current_image,trial_index,is_blank_trial,is_repeat,is_new_run,run_num,sess_num,is_not_last_trial,all_blanks_list,practice.thisRepN,practice.thisTrialN,practice.thisN,practice.thisIndex,loop_runs.thisRepN,loop_runs.thisTrialN,loop_runs.thisN,loop_runs.thisIndex,loop_all_images.thisRepN,loop_all_images.thisTrialN,loop_all_images.thisN,loop_all_images.thisIndex,thisRow.t,notes,set_up.started,set_up.stopped,practice_continue.started,key_resp_6.started,text_6.started,practice_continue.stopped,key_resp_6.keys,key_resp_6.rt,key_resp_6.duration,practice_trial.started,image_2.started,press_if_repeat_2.started,polygon_3.started,all_keys_pressed_2.started,image_2.stopped,press_if_repeat_2.stopped,practice_trial.stopped,press_if_repeat_2.keys,press_if_repeat_2.corr,press_if_repeat_2.rt,press_if_repeat_2.duration,all_keys_pressed_2.keys,all_keys_pressed_2.rt,all_keys_pressed_2.duration,polygon_3.stopped,all_keys_pressed_2.stopped,testing_continue.started,key_resp_7.started,text_7.started,testing_continue.stopped,key_resp_7.keys,key_resp_7.rt,key_resp_7.duration,waiting_fmri.started,key_resp_2.started,text_3.started,waiting_fmri.stopped,key_resp_2.keys,key_resp_2.rt,key_resp_2.duration,set_skips_and_correct_key.started,set_skips_and_correct_key.stopped,trial.started,image.started,press_if_repeat.started,polygon.started,all_keys_pressed.started,image.stopped,press_if_repeat.stopped,trial.stopped,press_if_repeat.keys,press_if_repeat.corr,press_if_repeat.rt,press_if_repeat.duration,all_keys_pressed.keys,run_wait2_2.started,run_wait2_2.stopped,key_resp_5.keys,waiting_fmri_2.started,waiting_fmri_2.stopped,key_resp_4.keys,polygon.stopped,all_keys_pressed.stopped,all_keys_pressed.rt,all_keys_pressed.duration,key_resp_5.started,text_5.started,key_resp_5.rt,key_resp_5.duration,key_resp_4.started,text_4.started,key_resp_4.rt,key_resp_4.duration,participant,session (1 2 or 3),starting_run,skip_practice,date,expName,psychopyVersion,frameRate,expStart,
,,,,,,,,,,,,,,,,,,,,,,,0.0034954589791595936,0.003632917068898678,,,,,,,,,,,,,,,,,,,,,,,,,,,,,,,,,,,,,,,,,,,,,,,,,,,,,,,,,,,,,,,,,,,,,,,,3,1,0,0,2024-12-13_14h18.09.698,rtmindeye,2024.1.5,None,2024-12-13 14h18.19.111265 -0500,
,,,,,,,,,,,,,,,,,,,,,,,,,0.003643500152975321,0.013445209246128798,0.013445209246128798,11.7496497919783,1,11.453981459140778,None,,,,,,,,,,,,,,,,,,,,,,,,,,,,,,,,,,,,,,,,,,,,,,,,,,,,,,,,,,,,,,,,,3,1,0,0,2024-12-13_14h18.09.698,rtmindeye,2024.1.5,None,2024-12-13 14h18.19.111265 -0500,
practice_images/w_kitchen2.jpg,0,0,,,,,,,0,0,0,0,,,,,,,,,11.789817417040467,,,,,,,,,,,11.759941542055458,11.789817417040467,11.789817417040467,11.789817417040467,11.789817417040467,14.799966709222645,14.799966709222645,15.750905792228878,1,0,1.5556168328039348,0.15286187501624227,None,,,,,,,,,,,,,,,,,,,,,,,,,,,,,,,,,,,,,,,,,,,,,,,,,,,,3,1,0,0,2024-12-13_14h18.09.698,rtmindeye,2024.1.5,None,2024-12-13 14h18.19.111265 -0500,
practice_images/w_boardwalk2.jpg,1,0,,,,,,,0,1,1,1,,,,,,,,,15.767060625366867,,,,,,,,,,,15.753270250279456,15.767060625366867,15.767060625366867,15.767060625366867,15.767060625366867,18.766363917384297,18.766363917384297,19.751582209020853,1,0,0.786246876232326,0.16802233271300793,None,,,,,,,,,,,,,,,,,,,,,,,,,,,,,,,,,,,,,,,,,,,,,,,,,,,,3,1,0,0,2024-12-13_14h18.09.698,rtmindeye,2024.1.5,None,2024-12-13 14h18.19.111265 -0500,
practice_images/w_monument2.jpg,2,0,,,,,,,0,2,2,2,,,,,,,,,19.763537000399083,,,,,,,,,,,19.752497542183846,19.763537000399083,19.763537000399083,19.763537000399083,19.763537000399083,22.750509542413056,22.750509542413056,23.750685709062964,1,0,0.7257732511498034,0.1500291246920824,None,,,,,,,,,,,,,,,,,,,,,,,,,,,,,,,,,,,,,,,,,,,,,,,,,,,,3,1,0,0,2024-12-13_14h18.09.698,rtmindeye,2024.1.5,None,2024-12-13 14h18.19.111265 -0500,
practice_images/w_auditorium2.jpg,3,0,,,,,,,0,3,3,3,,,,,,,,,23.763548750430346,,,,,,,,,,,23.752146209124476,23.763548750430346,23.763548750430346,23.763548750430346,23.763548750430346,26.749603500124067,26.749603500124067,27.750990000087768,None,0,,,['1'],[0.6878112507984042],[0.13399845827370882],,,,,,,,,,,,,,,,,,,,,,,,,,,,,,,,,,,,,,,,,,,,,,,,,,3,1,0,0,2024-12-13_14h18.09.698,rtmindeye,2024.1.5,None,2024-12-13 14h18.19.111265 -0500,
practice_images/w_kitchen2.jpg,4,0,,,,,,,0,4,4,4,,,,,,,,,27.764312584418803,,,,,,,,,,,27.751868542283773,27.764312584418803,27.764312584418803,27.764312584418803,27.764312584418803,30.76649725018069,30.76649725018069,31.74998441711068,2,0,1.1231465418823063,0.15089091612026095,None,,,,,,,,,,,,,,,,,,,,,,,,,,,,,,,,,,,,,,,,,,,,,,,,,,,,3,1,0,0,2024-12-13_14h18.09.698,rtmindeye,2024.1.5,None,2024-12-13 14h18.19.111265 -0500,
practice_images/w_auditorium1.jpg,5,0,,,,,,,0,5,5,5,,,,,,,,,31.764294292312115,,,,,,,,,,,31.750892834272236,31.764294292312115,31.764294292312115,31.764294292312115,31.764294292312115,34.75103475013748,34.75103475013748,35.75114500010386,1,0,1.2491509169340134,0.14705054182559252,None,,,,,,,,,,,,,,,,,,,,,,,,,,,,,,,,,,,,,,,,,,,,,,,,,,,,3,1,0,0,2024-12-13_14h18.09.698,rtmindeye,2024.1.5,None,2024-12-13 14h18.19.111265 -0500,
practice_images/w_bedroom2.jpg,6,0,,,,,,,0,6,6,6,,,,,,,,,35.781632625032216,,,,,,,,,,,35.75246429210529,35.781632625032216,35.781632625032216,35.781632625032216,35.781632625032216,38.76779141742736,38.76779141742736,39.751612834166735,1,0,0.7577617089264095,0.1259853751398623,None,,,,,,,,,,,,,,,,,,,,,,,,,,,,,,,,,,,,,,,,,,,,,,,,,,,,3,1,0,0,2024-12-13_14h18.09.698,rtmindeye,2024.1.5,None,2024-12-13 14h18.19.111265 -0500,
practice_images/w_kitchen1.jpg,7,0,,,,,,,0,7,7,7,,,,,,,,,39.76365675032139,,,,,,,,,,,39.752337417099625,39.76365675032139,39.76365675032139,39.76365675032139,39.76365675032139,42.76443441724405,42.76443441724405,43.74810412526131,1,0,1.3168255002237856,0.14093312481418252,None,,,43.75954233435914,43.75954233435914,,,,,,,,,,,,,,,,,,,,,,,,,,,,,,,,,,,,,,,,,,,,,,,,3,1,0,0,2024-12-13_14h18.09.698,rtmindeye,2024.1.5,None,2024-12-13 14h18.19.111265 -0500,
practice_images/w_bedroom1.jpg,8,0,,,,,,,0,8,8,8,,,,,,,,,43.75954233435914,,,,,,,,,,,43.74889804236591,43.75954233435914,43.75954233435914,43.75954233435914,43.75954233435914,46.7511055842042,46.7511055842042,47.74793433398008,2,0,0.9629105003550649,0.1710234167985618,None,,,47.75811329204589,47.75811329204589,,,,,,,,,,,,,,,,,,,,,,,,,,,,,,,,,,,,,,,,,,,,,,,,3,1,0,0,2024-12-13_14h18.09.698,rtmindeye,2024.1.5,None,2024-12-13 14h18.19.111265 -0500,
practice_images/w_monument2.jpg,9,0,,,,,,,0,9,9,9,,,,,,,,,47.75811329204589,,,,,,,,,,,47.74869004217908,47.75811329204589,47.75811329204589,47.75811329204589,47.75811329204589,50.75085095921531,50.75085095921531,51.74954516720027,2,0,0.7102897921577096,0.14697908284142613,None,,,51.76366733433679,51.76366733433679,,,,,,,,,,,,,,,,,,,,,,,,,,,,,,,,,,,,,,,,,,,,,,,,3,1,0,0,2024-12-13_14h18.09.698,rtmindeye,2024.1.5,None,2024-12-13 14h18.19.111265 -0500,
,,,,,,,,,,,,,,,,,,,,,,,,,,,,,,,,,,,,,,,,,,,,,,,,,51.7500279173255,51.76366733433679,51.76366733433679,55.019157209433615,1,3.2508624591864645,None,,,,,,,,,,,,,,,,,,,,,,,,,,,,,,,,,,,,,,,,,3,1,0,0,2024-12-13_14h18.09.698,rtmindeye,2024.1.5,None,2024-12-13 14h18.19.111265 -0500,
,,,,,,,,,,,,,,,,,,,,,,,,,,,,,,,,,,,,,,,,,,,,,,,,,,,,,,,,55.019204792100936,55.0306991674006,55.0306991674006,596.6869045840576,equal,541.6547768749297,None,,,,,,,,,,,,,,,,,,,,,,,,,,,,,,,,,,3,1,0,0,2024-12-13_14h18.09.698,rtmindeye,2024.1.5,None,2024-12-13 14h18.19.111265 -0500,
all_stimuli/rtmindeye_stimuli/image_686_seed_1.png,0,0,0,0,0,1,1,"[9, 19, 29, 39, 49, 59, 68, 69, 70, 71]",,,,,0,0,0,0,0,0,0,0,596.7289943750948,,,,,,,,,,,,,,,,,,,,,,,,,,,,,,,,,,,,,,,,,,596.7076239171438,596.7081190003082,596.7081350842491,596.7289943750948,596.7289943750948,596.7289943750948,596.7289943750948,599.7194577502087,599.7194577502087,600.7167999590747,1,1,1.0373921263962984,0.16519362479448318,None,600.7176052089781,600.7176606249996,None,600.7178193340078,600.717846667394,None,,,,,,,,,,,,,3,1,0,0,2024-12-13_14h18.09.698,rtmindeye,2024.1.5,None,2024-12-13 14h18.19.111265 -0500,
all_stimuli/rtmindeye_stimuli/image_262_seed_1.png,1,0,0,0,0,1,1,"[9, 19, 29, 39, 49, 59, 68, 69, 70, 71]",,,,,0,0,0,0,0,1,1,1,600.7406461671926,,,,,,,,,,,,,,,,,,,,,,,,,,,,,,,,,,,,,,,,,,600.7181995003484,600.7189910421148,600.7190032503568,600.7406461671926,600.7406461671926,600.7406461671926,600.7406461671926,603.7497112923302,603.7497112923302,604.7221147501841,1,1,0.7817640001885593,0.15000066673383117,None,604.7226496250369,604.7227078340948,None,604.7228062092327,604.7228393340483,None,,,,,,,,,,,,,3,1,0,0,2024-12-13_14h18.09.698,rtmindeye,2024.1.5,None,2024-12-13 14h18.19.111265 -0500,
all_stimuli/rtmindeye_stimuli/image_508_seed_1.png,2,0,0,0,0,1,1,"[9, 19, 29, 39, 49, 59, 68, 69, 70, 71]",,,,,0,0,0,0,0,2,2,2,604.7435205001384,,,,,,,,,,,,,,,,,,,,,,,,,,,,,,,,,,,,,,,,,,604.7232072502375,604.72330741724,604.7233209591359,604.7435205001384,604.7435205001384,604.7435205001384,604.7435205001384,607.7365745841525,607.7365745841525,608.7332874592394,1,1,0.604974458925426,0.14999854192137718,None,608.7336987503804,608.7337419171818,None,608.7338075842708,608.7338292920031,None,,,,,,,,,,,,,3,1,0,0,2024-12-13_14h18.09.698,rtmindeye,2024.1.5,None,2024-12-13 14h18.19.111265 -0500,
all_stimuli/rtmindeye_stimuli/image_671_seed_1.png,3,0,0,0,0,1,1,"[9, 19, 29, 39, 49, 59, 68, 69, 70, 71]",,,,,0,0,0,0,0,3,3,3,608.7527417503297,,,,,,,,,,,,,,,,,,,,,,,,,,,,,,,,,,,,,,,,,,608.734088584315,608.7341777500696,608.7341870004311,608.7527417503297,608.7527417503297,608.7527417503297,608.7527417503297,611.7499520843849,611.7499520843849,612.7363931671716,1,1,0.5817176252603531,0.13296558381989598,None,612.7368949591182,612.73695112532,None,612.7370384172536,612.7370675420389,None,,,,,,,,,,,,,3,1,0,0,2024-12-13_14h18.09.698,rtmindeye,2024.1.5,None,2024-12-13 14h18.19.111265 -0500,
all_stimuli/rtmindeye_stimuli/image_555_seed_1.png,4,0,0,0,0,1,1,"[9, 19, 29, 39, 49, 59, 68, 69, 70, 71]",,,,,0,0,0,0,0,4,4,4,612.7581667504273,,,,,,,,,,,,,,,,,,,,,,,,,,,,,,,,,,,,,,,,,,612.7374289170839,612.737514084205,612.7375252922066,612.7581667504273,612.7581667504273,612.7581667504273,612.7581667504273,615.766520709265,615.766520709265,616.7498951251619,1,1,0.5933164171874523,0.13196250004693866,None,616.7503523752093,616.7503989171237,None,616.7504720841534,616.7504965420812,None,,,,,,,,,,,,,3,1,0,0,2024-12-13_14h18.09.698,rtmindeye,2024.1.5,None,2024-12-13 14h18.19.111265 -0500,
all_stimuli/rtmindeye_stimuli/image_376_seed_1.png,5,0,0,0,0,1,1,"[9, 19, 29, 39, 49, 59, 68, 69, 70, 71]",,,,,0,0,0,0,0,5,5,5,616.7730689169839,,,,,,,,,,,,,,,,,,,,,,,,,,,,,,,,,,,,,,,,,,616.7507868753746,616.7508864593692,616.7508968343027,616.7730689169839,616.7730689169839,616.7730689169839,616.7730689169839,619.7730648340657,619.7730648340657,620.7550315000117,1,1,0.4745059171691537,0.141847041901201,None,620.7556690000929,620.7557378751226,None,620.7558566671796,620.7558970423415,None,,,,,,,,,,,,,3,1,0,0,2024-12-13_14h18.09.698,rtmindeye,2024.1.5,None,2024-12-13 14h18.19.111265 -0500,
all_stimuli/rtmindeye_stimuli/image_321_seed_1.png,6,0,0,0,0,1,1,"[9, 19, 29, 39, 49, 59, 68, 69, 70, 71]",,,,,0,0,0,0,0,6,6,6,620.7807495840825,,,,,,,,,,,,,,,,,,,,,,,,,,,,,,,,,,,,,,,,,,620.7563399593346,620.756469250191,620.7564859171398,620.7807495840825,620.7807495840825,620.7807495840825,620.7807495840825,623.7830673339777,623.7830673339777,624.7666674591601,1,1,0.5157943340018392,0.12196783302351832,None,624.7671242500655,624.7671716250479,None,624.7672482500784,624.7672723750584,None,,,,,,,,,,,,,3,1,0,0,2024-12-13_14h18.09.698,rtmindeye,2024.1.5,None,2024-12-13 14h18.19.111265 -0500,
all_stimuli/rtmindeye_stimuli/image_729_seed_1.png,7,0,0,0,0,1,1,"[9, 19, 29, 39, 49, 59, 68, 69, 70, 71]",,,,,0,0,0,0,0,7,7,7,624.7918697502464,,,,,,,,,,,,,,,,,,,,,,,,,,,,,,,,,,,,,,,,,,624.767571542412,624.7676672092639,624.7676775003783,624.7918697502464,624.7918697502464,624.7918697502464,624.7918697502464,627.7998207923956,627.7998207923956,628.7698177089915,1,1,0.7475777920335531,0.13401245791465044,None,628.7702788342722,628.7703303750604,None,628.7704159170389,628.7704442092218,None,,,,,,,,,,,,,3,1,0,0,2024-12-13_14h18.09.698,rtmindeye,2024.1.5,None,2024-12-13 14h18.19.111265 -0500,
all_stimuli/rtmindeye_stimuli/image_106_seed_1.png,8,0,0,0,0,1,1,"[9, 19, 29, 39, 49, 59, 68, 69, 70, 71]",,,,,0,0,0,0,0,8,8,8,628.7920780424029,,,,,,,,,,,,,,,,,,,,,,,,,,,,,,,,,,,,,,,,,,628.7707634591497,628.7708498751745,628.7708620000631,628.7920780424029,628.7920780424029,628.7920780424029,628.7920780424029,631.7875069594011,631.7875069594011,632.7851284174249,1,1,0.5374775002710521,0.1449986668303609,None,632.7855818341486,632.7856295001693,None,632.7856961251236,632.7857207502238,None,,,,,,,,,,,,,3,1,0,0,2024-12-13_14h18.09.698,rtmindeye,2024.1.5,None,2024-12-13 14h18.19.111265 -0500,
blank.jpg,9,1,0,0,0,1,1,"[9, 19, 29, 39, 49, 59, 68, 69, 70, 71]",,,,,0,0,0,0,0,9,9,9,632.7951859170571,,,,,,,,,,,,,,,,,,,,,,,,,,,,,,,,,,,,,,,,,,632.7859870423563,632.7860884172842,632.7860975000076,632.7951859170571,632.7951859170571,632.7951859170571,632.7951859170571,635.7997776251286,635.7997776251286,636.7859076671302,None,0,,,None,636.7862452920526,636.7862826250494,None,636.7863516672514,636.7863720841706,None,636.8064066250809,636.8064066250809,,,,,,,,,,,3,1,0,0,2024-12-13_14h18.09.698,rtmindeye,2024.1.5,None,2024-12-13 14h18.19.111265 -0500,
all_stimuli/rtmindeye_stimuli/image_518_seed_1.png,10,0,0,0,0,1,1,"[9, 19, 29, 39, 49, 59, 68, 69, 70, 71]",,,,,0,0,0,0,0,10,10,10,636.8064066250809,,,,,,,,,,,,,,,,,,,,,,,,,,,,,,,,,,,,,,,,,,636.7866279170848,636.7866892921738,636.7866983343847,636.8064066250809,636.8064066250809,636.8064066250809,636.8064066250809,639.8028735420667,639.8028735420667,640.7894411250018,1,1,0.6912256670184433,0.1619941252283752,None,640.7898795842193,640.7899277922697,None,640.7900017499924,640.7900271252729,None,,,,,,,,,,,,,3,1,0,0,2024-12-13_14h18.09.698,rtmindeye,2024.1.5,None,2024-12-13 14h18.19.111265 -0500,
all_stimuli/rtmindeye_stimuli/image_359_seed_1.png,11,0,0,0,0,1,1,"[9, 19, 29, 39, 49, 59, 68, 69, 70, 71]",,,,,0,0,0,0,0,11,11,11,640.8093140842393,,,,,,,,,,,,,,,,,,,,,,,,,,,,,,,,,,,,,,,,,,640.7903077923693,640.7904102504253,640.7904206672683,640.8093140842393,640.8093140842393,640.8093140842393,640.8093140842393,643.816613084171,643.816613084171,644.79993591737,1,1,0.5322622917592525,0.14296108298003674,None,644.8006212920882,644.8006945843808,None,644.8008179171011,644.8008585004136,None,,,,,,,,,,,,,3,1,0,0,2024-12-13_14h18.09.698,rtmindeye,2024.1.5,None,2024-12-13 14h18.19.111265 -0500,
all_stimuli/rtmindeye_stimuli/image_234_seed_1.png,12,0,0,0,0,1,1,"[9, 19, 29, 39, 49, 59, 68, 69, 70, 71]",,,,,0,0,0,0,0,12,12,12,644.8273214590736,,,,,,,,,,,,,,,,,,,,,,,,,,,,,,,,,,,,,,,,,,644.8013385422528,644.8014803752303,644.8014975842088,644.8273214590736,644.8273214590736,644.8273214590736,644.8273214590736,647.8359239171259,647.8359239171259,648.8028097921051,1,1,0.8422377919778228,0.1280202497728169,None,648.8033390422352,648.8033980419859,None,648.8034967919812,648.8035288341343,None,,,,,,,,,,,,,3,1,0,0,2024-12-13_14h18.09.698,rtmindeye,2024.1.5,None,2024-12-13 14h18.19.111265 -0500,
all_stimuli/rtmindeye_stimuli/image_424_seed_1.png,13,0,0,0,0,1,1,"[9, 19, 29, 39, 49, 59, 68, 69, 70, 71]",,,,,0,0,0,0,0,13,13,13,648.8264391673729,,,,,,,,,,,,,,,,,,,,,,,,,,,,,,,,,,,,,,,,,,648.8038865001872,648.8039835840464,648.803996917326,648.8264391673729,648.8264391673729,648.8264391673729,648.8264391673729,651.8192902500741,651.8192902500741,652.8199535002932,1,1,0.5572151252999902,0.14103866694495082,None,652.8210376673378,652.8211798341945,None,652.8213421669789,652.8214035001583,None,,,,,,,,,,,,,3,1,0,0,2024-12-13_14h18.09.698,rtmindeye,2024.1.5,None,2024-12-13 14h18.19.111265 -0500,
all_stimuli/rtmindeye_stimuli/image_203_seed_1.png,14,0,0,0,0,1,1,"[9, 19, 29, 39, 49, 59, 68, 69, 70, 71]",,,,,0,0,0,0,0,14,14,14,652.8458151253872,,,,,,,,,,,,,,,,,,,,,,,,,,,,,,,,,,,,,,,,,,652.8225645842031,652.8228215840645,652.8229214171879,652.8458151253872,652.8458151253872,652.8458151253872,652.8458151253872,655.8499530423433,655.8499530423433,656.8361455840059,1,1,0.6499015418812633,0.10986329196020961,None,656.8365606670268,656.8366072922945,None,656.8366804593243,656.8367050844245,None,,,,,,,,,,,,,3,1,0,0,2024-12-13_14h18.09.698,rtmindeye,2024.1.5,None,2024-12-13 14h18.19.111265 -0500,
all_stimuli/rtmindeye_stimuli/image_664_seed_1.png,15,0,0,0,0,1,1,"[9, 19, 29, 39, 49, 59, 68, 69, 70, 71]",,,,,0,0,0,0,0,15,15,15,656.8581944592297,,,,,,,,,,,,,,,,,,,,,,,,,,,,,,,,,,,,,,,,,,656.8369846250862,656.8370819170959,656.8370921672322,656.8581944592297,656.8581944592297,656.8581944592297,656.8581944592297,659.8531210003421,659.8531210003421,660.8499704999849,1,1,0.5814177091233432,0.11799795785918832,None,660.850608792156,660.8506816253066,None,660.850820292253,660.8508700840175,None,,,,,,,,,,,,,3,1,0,0,2024-12-13_14h18.09.698,rtmindeye,2024.1.5,None,2024-12-13 14h18.19.111265 -0500,
all_stimuli/rtmindeye_stimuli/image_450_seed_1.png,16,0,0,0,0,1,1,"[9, 19, 29, 39, 49, 59, 68, 69, 70, 71]",,,,,0,0,0,0,0,16,16,16,660.8753336672671,,,,,,,,,,,,,,,,,,,,,,,,,,,,,,,,,,,,,,,,,,660.8513274593279,660.8514455840923,660.851462167222,660.8753336672671,660.8753336672671,660.8753336672671,660.8753336672671,663.8833533753641,663.8833533753641,664.8530542501248,1,1,0.5293805841356516,0.1459267078898847,None,664.8537416672334,664.8538143751211,None,664.8539391253144,664.8539806250483,None,,,,,,,,,,,,,3,1,0,0,2024-12-13_14h18.09.698,rtmindeye,2024.1.5,None,2024-12-13 14h18.19.111265 -0500,
all_stimuli/rtmindeye_stimuli/3_89.png,17,0,0,0,0,1,1,"[9, 19, 29, 39, 49, 59, 68, 69, 70, 71]",,,,,0,0,0,0,0,17,17,17,664.870694250334,,,,,,,,,,,,,,,,,,,,,,,,,,,,,,,,,,,,,,,,,,664.8544463342987,664.8545670001768,664.8545862920582,664.870694250334,664.870694250334,664.870694250334,664.870694250334,667.8704301672988,667.8704301672988,668.8666907092556,1,1,0.5009112497791648,0.12212725030258298,None,668.8673350000754,668.8674243343994,None,668.8675805842504,668.8676318749785,None,,,,,,,,,,,,,3,1,0,0,2024-12-13_14h18.09.698,rtmindeye,2024.1.5,None,2024-12-13 14h18.19.111265 -0500,
all_stimuli/rtmindeye_stimuli/image_260_seed_1.png,18,0,0,0,0,1,1,"[9, 19, 29, 39, 49, 59, 68, 69, 70, 71]",,,,,0,0,0,0,0,18,18,18,668.8973328340799,,,,,,,,,,,,,,,,,,,,,,,,,,,,,,,,,,,,,,,,,,668.8682244173251,668.8683762922883,668.8684006254189,668.8973328340799,668.8973328340799,668.8973328340799,668.8973328340799,671.9038499593735,671.9038499593735,672.8699352503754,1,1,0.46641720877960324,0.15096774976700544,None,672.8707961253822,672.8708890844136,None,672.8710510423407,672.8711058343761,None,,,,,,,,,,,,,3,1,0,0,2024-12-13_14h18.09.698,rtmindeye,2024.1.5,None,2024-12-13 14h18.19.111265 -0500,
blank.jpg,19,1,0,0,0,1,1,"[9, 19, 29, 39, 49, 59, 68, 69, 70, 71]",,,,,0,0,0,0,0,19,19,19,672.8826255840249,,,,,,,,,,,,,,,,,,,,,,,,,,,,,,,,,,,,,,,,,,672.8716537919827,672.871828917414,672.8718501674011,672.8826255840249,672.8826255840249,672.8826255840249,672.8826255840249,675.8702721251175,675.8702721251175,676.8669030000456,None,0,,,None,676.8673225841485,676.8673820840195,None,676.8674887921661,676.8675210420042,None,676.8967757089995,676.8967757089995,,,,,,,,,,,3,1,0,0,2024-12-13_14h18.09.698,rtmindeye,2024.1.5,None,2024-12-13 14h18.19.111265 -0500,
all_stimuli/rtmindeye_stimuli/image_281_seed_1.png,20,0,0,0,0,1,1,"[9, 19, 29, 39, 49, 59, 68, 69, 70, 71]",,,,,0,0,0,0,0,20,20,20,676.8967757089995,,,,,,,,,,,,,,,,,,,,,,,,,,,,,,,,,,,,,,,,,,676.8679129173979,676.8680070000701,676.8680201251991,676.8967757089995,676.8967757089995,676.8967757089995,676.8967757089995,679.8863629591651,679.8863629591651,680.8700848752633,1,1,0.833011417184025,0.1520254579372704,None,680.8704950842075,680.8705395003781,None,680.8706123339944,680.8706366671249,None,,,,,,,,,,,,,3,1,0,0,2024-12-13_14h18.09.698,rtmindeye,2024.1.5,None,2024-12-13 14h18.19.111265 -0500,
all_stimuli/rtmindeye_stimuli/image_585_seed_1.png,21,0,0,0,0,1,1,"[9, 19, 29, 39, 49, 59, 68, 69, 70, 71]",,,,,0,0,0,0,0,21,21,21,680.8924620002508,,,,,,,,,,,,,,,,,,,,,,,,,,,,,,,,,,,,,,,,,,680.8709107921459,680.8709858343937,680.8709962922148,680.8924620002508,680.8924620002508,680.8924620002508,680.8924620002508,683.8869900424033,683.8869900424033,684.8734989999793,1,1,0.6821940839290619,0.1580902081914246,None,684.8741245842539,684.87418583408,None,684.8742871670984,684.8743195002899,None,,,,,,,,,,,,,3,1,0,0,2024-12-13_14h18.09.698,rtmindeye,2024.1.5,None,2024-12-13 14h18.19.111265 -0500,
all_stimuli/rtmindeye_stimuli/image_609_seed_1.png,22,0,0,0,0,1,1,"[9, 19, 29, 39, 49, 59, 68, 69, 70, 71]",,,,,0,0,0,0,0,22,22,22,684.8982848343439,,,,,,,,,,,,,,,,,,,,,,,,,,,,,,,,,,,,,,,,,,684.8746854173951,684.8748167091981,684.8748305421323,684.8982848343439,684.8982848343439,684.8982848343439,684.8982848343439,687.8869247501716,687.8869247501716,688.8861015844159,1,1,0.8914079591631889,0.1290087909437716,None,688.8864840003662,688.8865234171972,None,688.8865803750232,688.8866003341973,None,,,,,,,,,,,,,3,1,0,0,2024-12-13_14h18.09.698,rtmindeye,2024.1.5,None,2024-12-13 14h18.19.111265 -0500,
all_stimuli/rtmindeye_stimuli/image_477_seed_1.png,23,0,0,0,0,1,1,"[9, 19, 29, 39, 49, 59, 68, 69, 70, 71]",,,,,0,0,0,0,0,23,23,23,688.9017353341915,,,,,,,,,,,,,,,,,,,,,,,,,,,,,,,,,,,,,,,,,,688.886822709348,688.8869064589962,688.8869139594026,688.9017353341915,688.9017353341915,688.9017353341915,688.9017353341915,691.901926709339,691.901926709339,692.8870391254313,1,1,0.7380042509175837,0.13607858307659626,None,692.8875143751502,692.8875638754107,None,692.8876466252841,692.8876744592562,None,692.9115209169686,692.9115209169686,,,,,,,,,,,3,1,0,0,2024-12-13_14h18.09.698,rtmindeye,2024.1.5,None,2024-12-13 14h18.19.111265 -0500,
all_stimuli/rtmindeye_stimuli/image_110_seed_1.png,24,0,0,0,0,1,1,"[9, 19, 29, 39, 49, 59, 68, 69, 70, 71]",,,,,0,0,0,0,0,24,24,24,692.9115209169686,,,,,,,,,,,,,,,,,,,,,,,,,,,,,,,,,,,,,,,,,,692.8879850003868,692.8880650419742,692.8880767091177,692.9115209169686,692.9115209169686,692.9115209169686,692.9115209169686,695.9069979591295,695.9069979591295,696.9001668342389,1,1,0.5081506250426173,0.15404662489891052,None,696.9005954172462,696.9006411251612,None,696.9007018753327,696.9007221250795,None,,,,,,,,,,,,,3,1,0,0,2024-12-13_14h18.09.698,rtmindeye,2024.1.5,None,2024-12-13 14h18.19.111265 -0500,
all_stimuli/rtmindeye_stimuli/image_111_seed_1.png,25,0,0,0,0,1,1,"[9, 19, 29, 39, 49, 59, 68, 69, 70, 71]",,,,,0,0,0,0,0,25,25,25,696.9196157921106,,,,,,,,,,,,,,,,,,,,,,,,,,,,,,,,,,,,,,,,,,696.9009633343667,696.9010539590381,696.9010622091591,696.9196157921106,696.9196157921106,696.9196157921106,696.9196157921106,699.916744292248,699.916744292248,700.9035793342628,1,1,0.8031902089715004,0.13889812491834164,None,700.9039739593863,700.9040160002187,None,700.904070542194,700.9040884589776,None,,,,,,,,,,,,,3,1,0,0,2024-12-13_14h18.09.698,rtmindeye,2024.1.5,None,2024-12-13 14h18.19.111265 -0500,
all_stimuli/rtmindeye_stimuli/image_474_seed_1.png,26,0,0,0,0,1,1,"[9, 19, 29, 39, 49, 59, 68, 69, 70, 71]",,,,,0,0,0,0,0,26,26,26,700.9191601253115,,,,,,,,,,,,,,,,,,,,,,,,,,,,,,,,,,,,,,,,,,700.9043064592406,700.9043903341517,700.9043980841525,700.9191601253115,700.9191601253115,700.9191601253115,700.9191601253115,703.9186733751558,703.9186733751558,704.9035252500325,1,1,0.6826586248353124,0.16495179198682308,None,704.9038735842332,704.9039121670648,None,704.9039709591307,704.9039910421707,None,704.9198857923038,704.9198857923038,,,,,,,,,,,3,1,0,0,2024-12-13_14h18.09.698,rtmindeye,2024.1.5,None,2024-12-13 14h18.19.111265 -0500,
all_stimuli/rtmindeye_stimuli/image_272_seed_1.png,27,0,0,0,0,1,1,"[9, 19, 29, 39, 49, 59, 68, 69, 70, 71]",,,,,0,0,0,0,0,27,27,27,704.9198857923038,,,,,,,,,,,,,,,,,,,,,,,,,,,,,,,,,,,,,,,,,,704.9042202089913,704.9042768753134,704.904285042081,704.9198857923038,704.9198857923038,704.9198857923038,704.9198857923038,707.9334548343904,707.9334548343904,708.9044574592263,1,1,0.8569940840825438,0.14290999993681908,None,708.9051183750853,708.9051909171976,None,708.9053122503683,708.9053523340262,None,,,,,,,,,,,,,3,1,0,0,2024-12-13_14h18.09.698,rtmindeye,2024.1.5,None,2024-12-13 14h18.19.111265 -0500,
all_stimuli/rtmindeye_stimuli/paired_image_886_2.png,28,0,0,0,0,1,1,"[9, 19, 29, 39, 49, 59, 68, 69, 70, 71]",,,,,0,0,0,0,0,28,28,28,708.9306500842795,,,,,,,,,,,,,,,,,,,,,,,,,,,,,,,,,,,,,,,,,,708.9057951252908,708.9059242922813,708.905940875411,708.9306500842795,708.9306500842795,708.9306500842795,708.9306500842795,711.9201907920651,711.9201907920651,712.917217625305,1,1,0.7342621246352792,0.14393495908007026,None,712.9182766252197,712.9183972091414,None,712.9185315421782,712.9185825423338,None,,,,,,,,,,,,,3,1,0,0,2024-12-13_14h18.09.698,rtmindeye,2024.1.5,None,2024-12-13 14h18.19.111265 -0500,
blank.jpg,29,1,0,0,0,1,1,"[9, 19, 29, 39, 49, 59, 68, 69, 70, 71]",,,,,0,0,0,0,0,29,29,29,712.9306037090719,,,,,,,,,,,,,,,,,,,,,,,,,,,,,,,,,,,,,,,,,,712.9192133340985,712.9194060419686,712.9194240001962,712.9306037090719,712.9306037090719,712.9306037090719,712.9306037090719,715.9217240423895,715.9217240423895,716.9169372092001,None,0,,,None,716.9172723754309,716.9173211250454,None,716.9174092924222,716.9174364591017,None,716.9411295424215,716.9411295424215,,,,,,,,,,,3,1,0,0,2024-12-13_14h18.09.698,rtmindeye,2024.1.5,None,2024-12-13 14h18.19.111265 -0500,
all_stimuli/rtmindeye_stimuli/image_137_seed_1.png,30,0,0,0,0,1,1,"[9, 19, 29, 39, 49, 59, 68, 69, 70, 71]",,,,,0,0,0,0,0,30,30,30,716.9411295424215,,,,,,,,,,,,,,,,,,,,,,,,,,,,,,,,,,,,,,,,,,716.9177889591083,716.9178686672822,716.9178824592382,716.9411295424215,716.9411295424215,716.9411295424215,716.9411295424215,719.9366122502834,719.9366122502834,720.9201726252213,1,1,0.49868304235860705,0.14305029064416885,None,720.9207004173659,720.9207577924244,None,720.9208568753675,720.9208887922578,None,,,,,,,,,,,,,3,1,0,0,2024-12-13_14h18.09.698,rtmindeye,2024.1.5,None,2024-12-13 14h18.19.111265 -0500,
all_stimuli/rtmindeye_stimuli/image_64_seed_1.png,31,0,0,0,0,1,1,"[9, 19, 29, 39, 49, 59, 68, 69, 70, 71]",,,,,0,0,0,0,0,31,31,31,720.9482542090118,,,,,,,,,,,,,,,,,,,,,,,,,,,,,,,,,,,,,,,,,,720.9212512923405,720.9213477093726,720.9213612922467,720.9482542090118,720.9482542090118,720.9482542090118,720.9482542090118,723.9500660840422,723.9500660840422,724.933577875141,1,1,0.5515426672063768,0.14005720894783735,None,724.9340747501701,724.9341296250932,None,724.9342170003802,724.9342455421574,None,,,,,,,,,,,,,3,1,0,0,2024-12-13_14h18.09.698,rtmindeye,2024.1.5,None,2024-12-13 14h18.19.111265 -0500,
all_stimuli/rtmindeye_stimuli/image_225_seed_1.png,32,0,0,0,0,1,1,"[9, 19, 29, 39, 49, 59, 68, 69, 70, 71]",,,,,0,0,0,0,0,32,32,32,724.9588540419936,,,,,,,,,,,,,,,,,,,,,,,,,,,,,,,,,,,,,,,,,,724.9345824592747,724.9346673754044,724.9346790001728,724.9588540419936,724.9588540419936,724.9588540419936,724.9588540419936,727.9570679171011,727.9570679171011,728.9368596253917,1,1,0.7439705831930041,0.15100687462836504,None,728.9375062501058,728.93757770909,None,728.937701750081,728.9377417094074,None,,,,,,,,,,,,,3,1,0,0,2024-12-13_14h18.09.698,rtmindeye,2024.1.5,None,2024-12-13 14h18.19.111265 -0500,
all_stimuli/rtmindeye_stimuli/image_98_seed_1.png,33,0,0,0,0,1,1,"[9, 19, 29, 39, 49, 59, 68, 69, 70, 71]",,,,,0,0,0,0,0,33,33,33,728.963571625296,,,,,,,,,,,,,,,,,,,,,,,,,,,,,,,,,,,,,,,,,,728.9381787921302,728.9382996251807,728.9383157920092,728.963571625296,728.963571625296,728.963571625296,728.963571625296,731.966840042267,731.966840042267,732.9532009172253,1,1,0.6083194576203823,0.16010808432474732,None,732.9538144590333,732.9538752920926,None,732.9539505001158,732.9539767093956,None,,,,,,,,,,,,,3,1,0,0,2024-12-13_14h18.09.698,rtmindeye,2024.1.5,None,2024-12-13 14h18.19.111265 -0500,
all_stimuli/rtmindeye_stimuli/image_129_seed_1.png,34,0,0,0,0,1,1,"[9, 19, 29, 39, 49, 59, 68, 69, 70, 71]",,,,,0,0,0,0,0,34,34,34,732.9806148339994,,,,,,,,,,,,,,,,,,,,,,,,,,,,,,,,,,,,,,,,,,732.9542816672474,732.9543614173308,732.9543715841137,732.9806148339994,732.9806148339994,732.9806148339994,732.9806148339994,735.9699229593389,735.9699229593389,736.9552837093361,1,1,0.5212714578956366,0.1559975417330861,None,736.955929542426,736.9559985422529,None,736.9561183750629,736.9561575422995,None,,,,,,,,,,,,,3,1,0,0,2024-12-13_14h18.09.698,rtmindeye,2024.1.5,None,2024-12-13 14h18.19.111265 -0500,
all_stimuli/rtmindeye_stimuli/image_308_seed_1.png,35,0,0,0,0,1,1,"[9, 19, 29, 39, 49, 59, 68, 69, 70, 71]",,,,,0,0,0,0,0,35,35,35,736.9846341251396,,,,,,,,,,,,,,,,,,,,,,,,,,,,,,,,,,,,,,,,,,736.9566016672179,736.956720459275,736.9567370000295,736.9846341251396,736.9846341251396,736.9846341251396,736.9846341251396,739.9835895420983,739.9835895420983,740.9694402501918,1,1,0.7342087081633508,0.13401162484660745,None,740.969851875212,740.9698986671865,None,740.969971709419,740.9699957091361,None,,,,,,,,,,,,,3,1,0,0,2024-12-13_14h18.09.698,rtmindeye,2024.1.5,None,2024-12-13 14h18.19.111265 -0500,
all_stimuli/rtmindeye_stimuli/image_606_seed_1.png,36,0,0,0,0,1,1,"[9, 19, 29, 39, 49, 59, 68, 69, 70, 71]",,,,,0,0,0,0,0,36,36,36,740.9934511673637,,,,,,,,,,,,,,,,,,,,,,,,,,,,,,,,,,,,,,,,,,740.970286292024,740.970358917024,740.9703691252507,740.9934511673637,740.9934511673637,740.9934511673637,740.9934511673637,743.9872620841488,743.9872620841488,744.9835681673139,1,1,0.7814586670137942,0.17009341716766357,None,744.9840822503902,744.9841364170425,None,744.9842221671715,744.9842490423471,None,,,,,,,,,,,,,3,1,0,0,2024-12-13_14h18.09.698,rtmindeye,2024.1.5,None,2024-12-13 14h18.19.111265 -0500,
all_stimuli/rtmindeye_stimuli/image_35_seed_1.png,37,0,0,0,0,1,1,"[9, 19, 29, 39, 49, 59, 68, 69, 70, 71]",,,,,0,0,0,0,0,37,37,37,745.0100407921709,,,,,,,,,,,,,,,,,,,,,,,,,,,,,,,,,,,,,,,,,,744.9845651672222,744.9846795001067,744.9846910419874,745.0100407921709,745.0100407921709,745.0100407921709,745.0100407921709,748.0167788341641,748.0167788341641,748.9865678343922,1,1,0.9058901253156364,0.18800783390179276,None,748.9872183753178,748.9872891670093,None,748.9874082501046,748.9874473754317,None,,,,,,,,,,,,,3,1,0,0,2024-12-13_14h18.09.698,rtmindeye,2024.1.5,None,2024-12-13 14h18.19.111265 -0500,
all_stimuli/rtmindeye_stimuli/image_562_seed_1.png,38,0,0,0,0,1,1,"[9, 19, 29, 39, 49, 59, 68, 69, 70, 71]",,,,,0,0,0,0,0,38,38,38,749.0129222092219,,,,,,,,,,,,,,,,,,,,,,,,,,,,,,,,,,,,,,,,,,748.9878835002892,748.9879920003004,748.9880035421811,749.0129222092219,749.0129222092219,749.0129222092219,749.0129222092219,752.0169645422138,752.0169645422138,752.9896755423397,1,1,0.6079901671037078,0.1550042498856783,None,752.9901898750104,752.9902436253615,None,752.9903297922574,752.9903575424105,None,,,,,,,,,,,,,3,1,0,0,2024-12-13_14h18.09.698,rtmindeye,2024.1.5,None,2024-12-13 14h18.19.111265 -0500,
blank.jpg,39,1,0,0,0,1,1,"[9, 19, 29, 39, 49, 59, 68, 69, 70, 71]",,,,,0,0,0,0,0,39,39,39,752.9994643754326,,,,,,,,,,,,,,,,,,,,,,,,,,,,,,,,,,,,,,,,,,752.9906679173,752.9907692093402,752.9907810003497,752.9994643754326,752.9994643754326,752.9994643754326,752.9994643754326,756.0002935840748,756.0002935840748,756.9838191671297,None,0,,,None,756.9841173752211,756.9841582924128,None,756.9842383749783,756.9842621251009,None,757.0102270422503,757.0102270422503,,,,,,,,,,,3,1,0,0,2024-12-13_14h18.09.698,rtmindeye,2024.1.5,None,2024-12-13 14h18.19.111265 -0500,
all_stimuli/rtmindeye_stimuli/image_242_seed_1.png,40,0,0,0,0,1,1,"[9, 19, 29, 39, 49, 59, 68, 69, 70, 71]",,,,,0,0,0,0,0,40,40,40,757.0102270422503,,,,,,,,,,,,,,,,,,,,,,,,,,,,,,,,,,,,,,,,,,756.984542875085,756.9846122092567,756.9846221674234,757.0102270422503,757.0102270422503,757.0102270422503,757.0102270422503,760.0036120000295,760.0036120000295,761.0014078752138,1,1,0.780732958111912,0.16100650001317263,None,761.002525167074,761.0026289592497,None,761.0027797920629,761.0028340420686,None,,,,,,,,,,,,,3,1,0,0,2024-12-13_14h18.09.698,rtmindeye,2024.1.5,None,2024-12-13 14h18.19.111265 -0500,
all_stimuli/rtmindeye_stimuli/image_590_seed_1.png,41,0,0,0,0,1,1,"[9, 19, 29, 39, 49, 59, 68, 69, 70, 71]",,,,,0,0,0,0,0,41,41,41,761.0258554592729,,,,,,,,,,,,,,,,,,,,,,,,,,,,,,,,,,,,,,,,,,761.0033932500519,761.0035884170793,761.003609708976,761.0258554592729,761.0258554592729,761.0258554592729,761.0258554592729,764.0198131673969,764.0198131673969,765.0170288751833,1,1,0.7940695839934051,0.13806700007990003,None,765.0175691670738,765.0176277500577,None,765.0177243752405,765.017757375259,None,,,,,,,,,,,,,3,1,0,0,2024-12-13_14h18.09.698,rtmindeye,2024.1.5,None,2024-12-13 14h18.19.111265 -0500,
all_stimuli/rtmindeye_stimuli/image_298_seed_1.png,42,0,0,0,0,1,1,"[9, 19, 29, 39, 49, 59, 68, 69, 70, 71]",,,,,0,0,0,0,0,42,42,42,765.0424855002202,,,,,,,,,,,,,,,,,,,,,,,,,,,,,,,,,,,,,,,,,,765.0181561671197,765.0182650843635,765.0182808754034,765.0424855002202,765.0424855002202,765.0424855002202,765.0424855002202,768.0531760002486,768.0531760002486,769.0190508342348,1,1,0.5645544999279082,0.14792379178106785,None,769.0195131669752,769.0195648344234,None,769.0196503750049,769.0196810839698,None,,,,,,,,,,,,,3,1,0,0,2024-12-13_14h18.09.698,rtmindeye,2024.1.5,None,2024-12-13 14h18.19.111265 -0500,
all_stimuli/rtmindeye_stimuli/image_25_seed_1.png,43,0,0,0,0,1,1,"[9, 19, 29, 39, 49, 59, 68, 69, 70, 71]",,,,,0,0,0,0,0,43,43,43,769.0425150841475,,,,,,,,,,,,,,,,,,,,,,,,,,,,,,,,,,,,,,,,,,769.0199918341823,769.0200761673041,769.0200875001028,769.0425150841475,769.0425150841475,769.0425150841475,769.0425150841475,772.0521808341146,772.0521808341146,773.0201878752559,1,1,0.7825357089750469,0.16093758307397366,None,773.0208863751031,773.0209662499838,None,773.021091000177,773.021131625399,None,,,,,,,,,,,,,3,1,0,0,2024-12-13_14h18.09.698,rtmindeye,2024.1.5,None,2024-12-13 14h18.19.111265 -0500,
all_stimuli/rtmindeye_stimuli/image_266_seed_1.png,44,0,0,0,0,1,1,"[9, 19, 29, 39, 49, 59, 68, 69, 70, 71]",,,,,0,0,0,0,0,44,44,44,773.0474100001156,,,,,,,,,,,,,,,,,,,,,,,,,,,,,,,,,,,,,,,,,,773.0216091671027,773.0217311671004,773.021747583989,773.0474100001156,773.0474100001156,773.0474100001156,773.0474100001156,776.0390525003895,776.0390525003895,777.0341700422578,1,1,0.7266965829767287,0.14497337490320206,None,777.0351389171556,777.0352523750626,None,777.0353854591958,777.0354341249913,None,,,,,,,,,,,,,3,1,0,0,2024-12-13_14h18.09.698,rtmindeye,2024.1.5,None,2024-12-13 14h18.19.111265 -0500,
all_stimuli/rtmindeye_stimuli/image_441_seed_1.png,45,0,0,0,0,1,1,"[9, 19, 29, 39, 49, 59, 68, 69, 70, 71]",,,,,0,0,0,0,0,45,45,45,777.0606964170001,,,,,,,,,,,,,,,,,,,,,,,,,,,,,,,,,,,,,,,,,,777.0360580421984,777.0362522504292,777.0362705001608,777.0606964170001,777.0606964170001,777.0606964170001,777.0606964170001,780.0673116673715,780.0673116673715,781.0515390844084,None,0,,,['1'],781.0522513752803,781.0522981253453,None,781.0523701254278,781.0523922503926,None,,,[0.6222932920791209],[0.14815183263272047],,,,,,,,,3,1,0,0,2024-12-13_14h18.09.698,rtmindeye,2024.1.5,None,2024-12-13 14h18.19.111265 -0500,
all_stimuli/rtmindeye_stimuli/image_440_seed_1.png,46,0,0,0,0,1,1,"[9, 19, 29, 39, 49, 59, 68, 69, 70, 71]",,,,,0,0,0,0,0,46,46,46,781.0692695002072,,,,,,,,,,,,,,,,,,,,,,,,,,,,,,,,,,,,,,,,,,781.0526535841636,781.0527522922494,781.0527611253783,781.0692695002072,781.0692695002072,781.0692695002072,781.0692695002072,784.0697710001841,784.0697710001841,785.0530499592423,1,1,1.7357387919910252,0.1500807497650385,None,785.0540162920952,785.0541157503612,None,785.0542552503757,785.0543127502315,None,,,,,,,,,,,,,3,1,0,0,2024-12-13_14h18.09.698,rtmindeye,2024.1.5,None,2024-12-13 14h18.19.111265 -0500,
all_stimuli/rtmindeye_stimuli/image_180_seed_1.png,47,0,0,0,0,1,1,"[9, 19, 29, 39, 49, 59, 68, 69, 70, 71]",,,,,0,0,0,0,0,47,47,47,785.0780901252292,,,,,,,,,,,,,,,,,,,,,,,,,,,,,,,,,,,,,,,,,,785.0550228753127,785.0551059590653,785.0551192089915,785.0780901252292,785.0780901252292,785.0780901252292,785.0780901252292,788.0701953340322,788.0701953340322,789.0558212501928,1,1,0.5819548340514302,0.14203425031155348,None,789.0562890423462,789.0563403340057,None,789.0564330844209,789.0564680839889,None,,,,,,,,,,,,,3,1,0,0,2024-12-13_14h18.09.698,rtmindeye,2024.1.5,None,2024-12-13 14h18.19.111265 -0500,
all_stimuli/rtmindeye_stimuli/w_log_cabin1.jpg,48,0,0,0,0,1,1,"[9, 19, 29, 39, 49, 59, 68, 69, 70, 71]",,,,,0,0,0,0,0,48,48,48,789.0711926673539,,,,,,,,,,,,,,,,,,,,,,,,,,,,,,,,,,,,,,,,,,789.0568359591998,789.0569390421733,789.0569553342648,789.0711926673539,789.0711926673539,789.0711926673539,789.0711926673539,792.0680162501521,792.0680162501521,793.053818625398,1,1,0.6048665000125766,0.12504574982449412,None,793.0543572921306,793.0544171254151,None,793.0545267923735,793.0545593751594,None,793.0662364591844,793.0662364591844,,,,,,,,,,,3,1,0,0,2024-12-13_14h18.09.698,rtmindeye,2024.1.5,None,2024-12-13 14h18.19.111265 -0500,
blank.jpg,49,1,0,0,0,1,1,"[9, 19, 29, 39, 49, 59, 68, 69, 70, 71]",,,,,0,0,0,0,0,49,49,49,793.0662364591844,,,,,,,,,,,,,,,,,,,,,,,,,,,,,,,,,,,,,,,,,,793.0549518340267,793.0550470002927,793.0550604593009,793.0662364591844,793.0662364591844,793.0662364591844,793.0662364591844,796.0528290001675,796.0528290001675,797.0506258751266,None,0,,,None,797.0510030002333,797.0510577922687,None,797.0511761251837,797.0512109589763,None,797.079349459149,797.079349459149,,,,,,,,,,,3,1,0,0,2024-12-13_14h18.09.698,rtmindeye,2024.1.5,None,2024-12-13 14h18.19.111265 -0500,
all_stimuli/rtmindeye_stimuli/image_339_seed_1.png,50,0,0,0,0,1,1,"[9, 19, 29, 39, 49, 59, 68, 69, 70, 71]",,,,,0,0,0,0,0,50,50,50,797.079349459149,,,,,,,,,,,,,,,,,,,,,,,,,,,,,,,,,,,,,,,,,,797.051592042204,797.0516850841232,797.0517011252232,797.079349459149,797.079349459149,797.079349459149,797.079349459149,800.0703579173423,800.0703579173423,801.0541613344103,1,1,0.6868119593709707,0.18192979088053107,None,801.0547479172237,801.0548202092759,None,801.0549420421012,801.054982167203,None,,,,,,,,,,,,,3,1,0,0,2024-12-13_14h18.09.698,rtmindeye,2024.1.5,None,2024-12-13 14h18.19.111265 -0500,
all_stimuli/rtmindeye_stimuli/image_84_seed_1.png,51,0,0,0,0,1,1,"[9, 19, 29, 39, 49, 59, 68, 69, 70, 71]",,,,,0,0,0,0,0,51,51,51,801.0802317094058,,,,,,,,,,,,,,,,,,,,,,,,,,,,,,,,,,,,,,,,,,801.0554184173234,801.0555407921784,801.055557792075,801.0802317094058,801.0802317094058,801.0802317094058,801.0802317094058,804.0837376671843,804.0837376671843,805.0690704169683,1,1,0.8159897089935839,0.15101699996739626,None,805.0697236252017,805.0698106670752,None,805.0699749593623,805.070025625173,None,,,,,,,,,,,,,3,1,0,0,2024-12-13_14h18.09.698,rtmindeye,2024.1.5,None,2024-12-13 14h18.19.111265 -0500,
all_stimuli/rtmindeye_stimuli/image_274_seed_1.png,52,0,0,0,0,1,1,"[9, 19, 29, 39, 49, 59, 68, 69, 70, 71]",,,,,0,0,0,0,0,52,52,52,805.0963110839948,,,,,,,,,,,,,,,,,,,,,,,,,,,,,,,,,,,,,,,,,,805.0705952923745,805.0707560842857,805.0707798344083,805.0963110839948,805.0963110839948,805.0963110839948,805.0963110839948,808.0871826671064,808.0871826671064,809.0838844589889,1,1,0.859823958016932,0.11004958394914865,None,809.0844094171189,809.0844677500427,None,809.0845682923682,809.0846015419811,None,,,,,,,,,,,,,3,1,0,0,2024-12-13_14h18.09.698,rtmindeye,2024.1.5,None,2024-12-13 14h18.19.111265 -0500,
all_stimuli/rtmindeye_stimuli/image_244_seed_1.png,53,0,0,0,0,1,1,"[9, 19, 29, 39, 49, 59, 68, 69, 70, 71]",,,,,0,0,0,0,0,53,53,53,809.1100856252015,,,,,,,,,,,,,,,,,,,,,,,,,,,,,,,,,,,,,,,,,,809.0849624173716,809.0850597093813,809.0850731669925,809.1100856252015,809.1100856252015,809.1100856252015,809.1100856252015,812.1029756669886,812.1029756669886,813.0868448340334,1,1,0.8281450001522899,0.16490183304995298,None,813.0874827504158,813.0875773751177,None,813.0876833749935,813.0877209589817,None,,,,,,,,,,,,,3,1,0,0,2024-12-13_14h18.09.698,rtmindeye,2024.1.5,None,2024-12-13 14h18.19.111265 -0500,
all_stimuli/rtmindeye_stimuli/paired_image_158_2.png,54,0,0,0,0,1,1,"[9, 19, 29, 39, 49, 59, 68, 69, 70, 71]",,,,,0,0,0,0,0,54,54,54,813.1147086252458,,,,,,,,,,,,,,,,,,,,,,,,,,,,,,,,,,,,,,,,,,813.0881746252999,813.088291125372,813.0883054593578,813.1147086252458,813.1147086252458,813.1147086252458,813.1147086252458,816.1030332092196,816.1030332092196,817.102974917274,1,1,0.8244367502629757,0.11300445906817913,None,817.1034657503478,817.1035170843825,None,817.1036004172638,817.1036290423945,None,,,,,,,,,,,,,3,1,0,0,2024-12-13_14h18.09.698,rtmindeye,2024.1.5,None,2024-12-13 14h18.19.111265 -0500,
all_stimuli/rtmindeye_stimuli/image_34_seed_1.png,55,0,0,0,0,1,1,"[9, 19, 29, 39, 49, 59, 68, 69, 70, 71]",,,,,0,0,0,0,0,55,55,55,817.1287522092462,,,,,,,,,,,,,,,,,,,,,,,,,,,,,,,,,,,,,,,,,,817.1039439593442,817.1040370422415,817.1040487093851,817.1287522092462,817.1287522092462,817.1287522092462,817.1287522092462,820.1220187922008,820.1220187922008,821.1196792502888,1,1,0.8675322500057518,0.19689312484115362,None,821.1206662501208,821.1207631253637,None,821.120885875076,821.120929042343,None,,,,,,,,,,,,,3,1,0,0,2024-12-13_14h18.09.698,rtmindeye,2024.1.5,None,2024-12-13 14h18.19.111265 -0500,
all_stimuli/rtmindeye_stimuli/image_132_seed_1.png,56,0,0,0,0,1,1,"[9, 19, 29, 39, 49, 59, 68, 69, 70, 71]",,,,,0,0,0,0,0,56,56,56,821.1402224591002,,,,,,,,,,,,,,,,,,,,,,,,,,,,,,,,,,,,,,,,,,821.1214219592512,821.1215527500026,821.1215703343041,821.1402224591002,821.1402224591002,821.1402224591002,821.1402224591002,824.1392350844108,824.1392350844108,825.1231112093665,1,1,1.046129791997373,0.14779445761814713,None,825.1235095420852,825.1235502092168,None,825.1236157920212,825.1236373754218,None,,,,,,,,,,,,,3,1,0,0,2024-12-13_14h18.09.698,rtmindeye,2024.1.5,None,2024-12-13 14h18.19.111265 -0500,
all_stimuli/rtmindeye_stimuli/image_576_seed_1.png,57,0,0,0,0,1,1,"[9, 19, 29, 39, 49, 59, 68, 69, 70, 71]",,,,,0,0,0,0,0,57,57,57,825.1489096670412,,,,,,,,,,,,,,,,,,,,,,,,,,,,,,,,,,,,,,,,,,825.1238928753883,825.1239748341031,825.1239835419692,825.1489096670412,825.1489096670412,825.1489096670412,825.1489096670412,828.1504199174233,828.1504199174233,829.1341357091442,1,1,0.6952402498573065,0.13710708310827613,None,829.1345978751779,829.1346446252428,None,829.1347104590386,829.1347332093865,None,,,,,,,,,,,,,3,1,0,0,2024-12-13_14h18.09.698,rtmindeye,2024.1.5,None,2024-12-13 14h18.19.111265 -0500,
all_stimuli/rtmindeye_stimuli/image_324_seed_1.png,58,0,0,0,0,1,1,"[9, 19, 29, 39, 49, 59, 68, 69, 70, 71]",,,,,0,0,0,0,0,58,58,58,829.1524450844154,,,,,,,,,,,,,,,,,,,,,,,,,,,,,,,,,,,,,,,,,,829.1350062093697,829.135125959292,829.1351353339851,829.1524450844154,829.1524450844154,829.1524450844154,829.1524450844154,832.1510728751309,832.1510728751309,833.1371748750098,None,0,,,['1'],833.1375400424004,833.1375789172016,None,833.1376382093877,833.137658667285,None,,,[0.7977825007401407],[0.12098512519150972],,,,,,,,,3,1,0,0,2024-12-13_14h18.09.698,rtmindeye,2024.1.5,None,2024-12-13 14h18.19.111265 -0500,
blank.jpg,59,1,0,0,0,1,1,"[9, 19, 29, 39, 49, 59, 68, 69, 70, 71]",,,,,0,0,0,0,0,59,59,59,833.150034500286,,,,,,,,,,,,,,,,,,,,,,,,,,,,,,,,,,,,,,,,,,833.1378898341209,833.1379556250758,833.1379636670463,833.150034500286,833.150034500286,833.150034500286,833.150034500286,836.137047292199,836.137047292199,837.1341655002907,None,0,,,None,837.1345793753862,837.1346338340081,None,837.134748084005,837.1347815422341,None,837.1557656251825,837.1557656251825,,,,,,,,,,,3,1,0,0,2024-12-13_14h18.09.698,rtmindeye,2024.1.5,None,2024-12-13 14h18.19.111265 -0500,
all_stimuli/rtmindeye_stimuli/image_142_seed_1.png,60,0,0,0,0,1,1,"[9, 19, 29, 39, 49, 59, 68, 69, 70, 71]",,,,,0,0,0,0,0,60,60,60,837.1557656251825,,,,,,,,,,,,,,,,,,,,,,,,,,,,,,,,,,,,,,,,,,837.13515366707,837.1352587090805,837.1352728339843,837.1557656251825,837.1557656251825,837.1557656251825,837.1557656251825,840.1505120843649,840.1505120843649,841.1520722503774,1,1,0.8355020419694483,0.16504195798188448,None,841.1531570004299,841.1532662920654,None,841.1534245423973,841.1534825423732,None,,,,,,,,,,,,,3,1,0,0,2024-12-13_14h18.09.698,rtmindeye,2024.1.5,None,2024-12-13 14h18.19.111265 -0500,
all_stimuli/rtmindeye_stimuli/image_401_seed_1.png,61,0,0,0,0,1,1,"[9, 19, 29, 39, 49, 59, 68, 69, 70, 71]",,,,,0,0,0,0,0,61,61,61,841.1796193751507,,,,,,,,,,,,,,,,,,,,,,,,,,,,,,,,,,,,,,,,,,841.1541359592229,841.1544510424137,841.1545005841181,841.1796193751507,841.1796193751507,841.1796193751507,841.1796193751507,844.183789125178,844.183789125178,845.1553662503138,1,1,0.5266493749804795,0.175073167309165,None,845.156313917134,845.1564114172943,None,845.1565399169922,845.1565887923352,None,,,,,,,,,,,,,3,1,0,0,2024-12-13_14h18.09.698,rtmindeye,2024.1.5,None,2024-12-13 14h18.19.111265 -0500,
all_stimuli/rtmindeye_stimuli/image_299_seed_1.png,62,0,0,0,0,1,1,"[9, 19, 29, 39, 49, 59, 68, 69, 70, 71]",,,,,0,0,0,0,0,62,62,62,845.185242625419,,,,,,,,,,,,,,,,,,,,,,,,,,,,,,,,,,,,,,,,,,845.1572599173523,845.1575410421938,845.1575590004213,845.185242625419,845.185242625419,845.185242625419,845.185242625419,848.1839061253704,848.1839061253704,849.1704767923802,1,1,0.9880212917923927,0.1460080831311643,None,849.1711128749885,849.1711841253564,None,849.1713036252186,849.1713434592821,None,,,,,,,,,,,,,3,1,0,0,2024-12-13_14h18.09.698,rtmindeye,2024.1.5,None,2024-12-13 14h18.19.111265 -0500,
all_stimuli/rtmindeye_stimuli/image_434_seed_1.png,63,0,0,0,0,1,1,"[9, 19, 29, 39, 49, 59, 68, 69, 70, 71]",,,,,0,0,0,0,0,63,63,63,849.1920327921398,,,,,,,,,,,,,,,,,,,,,,,,,,,,,,,,,,,,,,,,,,849.1718210843392,849.1719429171644,849.1719596670009,849.1920327921398,849.1920327921398,849.1920327921398,849.1920327921398,852.2022550841793,852.2022550841793,853.1839245003648,1,1,1.1802998748607934,0.20594445895403624,None,853.1844539591111,853.1845312924124,None,853.1846570423804,853.1846968340687,None,,,,,,,,,,,,,3,1,0,0,2024-12-13_14h18.09.698,rtmindeye,2024.1.5,None,2024-12-13 14h18.19.111265 -0500,
all_stimuli/rtmindeye_stimuli/18_78.png,64,0,0,0,0,1,1,"[9, 19, 29, 39, 49, 59, 68, 69, 70, 71]",,,,,0,0,0,0,0,64,64,64,853.2030201670714,,,,,,,,,,,,,,,,,,,,,,,,,,,,,,,,,,,,,,,,,,853.1851337091066,853.1852519172244,853.185268250294,853.2030201670714,853.2030201670714,853.2030201670714,853.2030201670714,856.2009123340249,856.2009123340249,857.1874901251867,1,1,1.1633166251704097,0.15597200021147728,None,857.1881436672993,857.188221000135,None,857.1883504171856,857.1883922093548,None,,,,,,,,,,,,,3,1,0,0,2024-12-13_14h18.09.698,rtmindeye,2024.1.5,None,2024-12-13 14h18.19.111265 -0500,
all_stimuli/rtmindeye_stimuli/image_532_seed_1.png,65,0,0,0,0,1,1,"[9, 19, 29, 39, 49, 59, 68, 69, 70, 71]",,,,,0,0,0,0,0,65,65,65,857.2161293341778,,,,,,,,,,,,,,,,,,,,,,,,,,,,,,,,,,,,,,,,,,857.1888756672852,857.1889960421249,857.1890124171041,857.2161293341778,857.2161293341778,857.2161293341778,857.2161293341778,860.2171340840869,860.2171340840869,861.1900420421734,1,1,1.114229251164943,0.15109958313405514,None,861.1904980842955,861.1905480003916,None,861.1906216251664,861.1906465422362,None,,,,,,,,,,,,,3,1,0,0,2024-12-13_14h18.09.698,rtmindeye,2024.1.5,None,2024-12-13 14h18.19.111265 -0500,
all_stimuli/rtmindeye_stimuli/image_708_seed_1.png,66,0,0,0,0,1,1,"[9, 19, 29, 39, 49, 59, 68, 69, 70, 71]",,,,,0,0,0,0,0,66,66,66,861.2140038344078,,,,,,,,,,,,,,,,,,,,,,,,,,,,,,,,,,,,,,,,,,861.1909312503412,861.1910335002467,861.1910439589992,861.2140038344078,861.2140038344078,861.2140038344078,861.2140038344078,864.2023985423148,864.2023985423148,865.203590084333,1,1,0.9702802090905607,0.16604800010100007,None,865.2039923751727,865.2040377501398,None,865.2041113344021,865.2041355841793,None,,,,,,,,,,,,,3,1,0,0,2024-12-13_14h18.09.698,rtmindeye,2024.1.5,None,2024-12-13 14h18.19.111265 -0500,
all_stimuli/rtmindeye_stimuli/image_178_seed_1.png,67,0,0,0,0,1,1,"[9, 19, 29, 39, 49, 59, 68, 69, 70, 71]",,,,,0,0,0,0,0,67,67,67,865.2288022502325,,,,,,,,,,,,,,,,,,,,,,,,,,,,,,,,,,,,,,,,,,865.2044055843726,865.2044777092524,865.2044902923517,865.2288022502325,865.2288022502325,865.2288022502325,865.2288022502325,868.2338951253332,868.2338951253332,869.2205806253478,1,1,1.4105579582974315,0.17205924959853292,None,869.221880167257,869.2220318750478,None,869.2221976253204,869.2222576253116,None,,,,,,,,,,,,,3,1,0,0,2024-12-13_14h18.09.698,rtmindeye,2024.1.5,None,2024-12-13 14h18.19.111265 -0500,
blank.jpg,68,1,0,0,0,1,1,"[9, 19, 29, 39, 49, 59, 68, 69, 70, 71]",,,,,0,0,0,0,0,68,68,68,869.2333754589781,,,,,,,,,,,,,,,,,,,,,,,,,,,,,,,,,,,,,,,,,,869.2231366671622,869.2233187924139,869.2233366253786,869.2333754589781,869.2333754589781,869.2333754589781,869.2333754589781,872.2338492092676,872.2338492092676,873.2179113342427,None,0,,,None,873.2183083342388,873.2183564170264,None,873.2184482091106,873.2184763341211,None,873.2258639591746,873.2258639591746,,,,,,,,,,,3,1,0,0,2024-12-13_14h18.09.698,rtmindeye,2024.1.5,None,2024-12-13 14h18.19.111265 -0500,
blank.jpg,69,1,0,1,0,1,0,"[9, 19, 29, 39, 49, 59, 68, 69, 70, 71]",,,,,0,0,0,0,0,69,69,69,873.2258639591746,,,,,,,,,,,,,,,,,,,,,,,,,,,,,,,,,,,,,,,,,,873.2188059589826,873.2188870841637,873.2188985003158,873.2258639591746,873.2258639591746,873.2258639591746,873.2258639591746,876.2205872503109,876.2205872503109,877.217563459184,None,0,,,None,877.2179541252553,882.2869480419904,1,882.2882570843212,918.1413869173266,equal,877.2398530421779,877.2398530421779,,,877.2398530421779,877.2398530421779,5.035608000122011,None,882.3001526254229,882.3001526254229,35.83748554205522,None,3,1,0,0,2024-12-13_14h18.09.698,rtmindeye,2024.1.5,None,2024-12-13 14h18.19.111265 -0500,
,,,,,,,,,,,,,0,0,0,0,,,,,,,,,,,,,,,,,,,,,,,,,,,,,,,,,,,,,,,,,,,,,,,,,,,,,,,,,,,,,,,,,,,,,,,,,,,,,,,,3,1,0,0,2024-12-13_14h18.09.698,rtmindeye,2024.1.5,None,2024-12-13 14h18.19.111265 -0500,
all_stimuli/rtmindeye_stimuli/image_267_seed_1.png,0,0,0,0,1,1,1,"[9, 19, 31, 42, 56, 68, 69, 70, 71]",,,,,1,0,1,0,0,0,0,0,918.1790997921489,,,,,,,,,,,,,,,,,,,,,,,,,,,,,,,,,,,,,,,,,,918.1589317093603,918.1592782502994,918.1592920841649,918.1790997921489,918.1790997921489,918.1790997921489,918.1790997921489,921.1713676252402,921.1713676252402,922.1668254174292,1,1,1.2855179170146585,0.17089562490582466,None,922.1678069173358,922.1678769174032,None,922.1680870424025,922.1681232093833,None,,,,,,,,,,,,,3,1,0,0,2024-12-13_14h18.09.698,rtmindeye,2024.1.5,None,2024-12-13 14h18.19.111265 -0500,
all_stimuli/rtmindeye_stimuli/image_145_seed_1.png,1,0,0,0,1,1,1,"[9, 19, 31, 42, 56, 68, 69, 70, 71]",,,,,1,0,1,0,0,1,1,1,922.1916845422238,,,,,,,,,,,,,,,,,,,,,,,,,,,,,,,,,,,,,,,,,,922.1686342093162,922.1687893751077,922.1688032089733,922.1916845422238,922.1916845422238,922.1916845422238,922.1916845422238,925.1872676252387,925.1872676252387,926.1842187093571,1,1,0.6658561672084033,0.15705783292651176,None,926.1847789590247,926.1848374172114,None,926.184933417011,926.1849657502025,None,,,,,,,,,,,,,3,1,0,0,2024-12-13_14h18.09.698,rtmindeye,2024.1.5,None,2024-12-13 14h18.19.111265 -0500,
all_stimuli/rtmindeye_stimuli/13_44.png,2,0,0,0,1,1,1,"[9, 19, 31, 42, 56, 68, 69, 70, 71]",,,,,1,0,1,0,0,2,2,2,926.200678834226,,,,,,,,,,,,,,,,,,,,,,,,,,,,,,,,,,,,,,,,,,926.1853343751281,926.1854337500408,926.1854468751699,926.200678834226,926.200678834226,926.200678834226,926.200678834226,929.2029823753983,929.2029823753983,930.1845899592154,1,1,0.5289391255937517,0.15200170828029513,None,930.1850156253204,930.1850598752499,None,930.1851241253316,930.1851449999958,None,930.2049434999935,930.2049434999935,,,,,,,,,,,3,1,0,0,2024-12-13_14h18.09.698,rtmindeye,2024.1.5,None,2024-12-13 14h18.19.111265 -0500,
all_stimuli/rtmindeye_stimuli/image_506_seed_1.png,3,0,0,0,1,1,1,"[9, 19, 31, 42, 56, 68, 69, 70, 71]",,,,,1,0,1,0,0,3,3,3,930.2049434999935,,,,,,,,,,,,,,,,,,,,,,,,,,,,,,,,,,,,,,,,,,930.1853950843215,930.1854572920129,930.1854662923142,930.2049434999935,930.2049434999935,930.2049434999935,930.2049434999935,933.2038380419835,933.2038380419835,934.1871254174039,1,1,0.7485906258225441,0.138029458001256,None,934.1876512090676,934.187710667029,None,934.1878115003929,934.187844667118,None,,,,,,,,,,,,,3,1,0,0,2024-12-13_14h18.09.698,rtmindeye,2024.1.5,None,2024-12-13 14h18.19.111265 -0500,
all_stimuli/rtmindeye_stimuli/image_420_seed_1.png,4,0,0,0,1,1,1,"[9, 19, 31, 42, 56, 68, 69, 70, 71]",,,,,1,0,1,0,0,4,4,4,934.2093325844035,,,,,,,,,,,,,,,,,,,,,,,,,,,,,,,,,,,,,,,,,,934.188207084313,934.1883030841127,934.1883160420693,934.2093325844035,934.2093325844035,934.2093325844035,934.2093325844035,937.2175897089764,937.2175897089764,938.200990209356,1,1,0.6142842080444098,0.13294133404269814,None,938.2015329590067,938.201593792066,None,938.2016896251589,938.2017219592817,None,,,,,,,,,,,,,3,1,0,0,2024-12-13_14h18.09.698,rtmindeye,2024.1.5,None,2024-12-13 14h18.19.111265 -0500,
all_stimuli/rtmindeye_stimuli/image_651_seed_1.png,5,0,0,0,1,1,1,"[9, 19, 31, 42, 56, 68, 69, 70, 71]",,,,,1,0,1,0,0,5,5,5,938.22415404208,,,,,,,,,,,,,,,,,,,,,,,,,,,,,,,,,,,,,,,,,,938.2020807922818,938.2021908750758,938.2022043750621,938.22415404208,938.22415404208,938.22415404208,938.22415404208,941.2362482091412,941.2362482091412,942.2045573340729,1,1,0.5443940842524171,0.1601072079502046,None,942.2052192091942,942.2052963753231,None,942.2054172502831,942.2054595001973,None,,,,,,,,,,,,,3,1,0,0,2024-12-13_14h18.09.698,rtmindeye,2024.1.5,None,2024-12-13 14h18.19.111265 -0500,
all_stimuli/rtmindeye_stimuli/image_694_seed_1.png,6,0,0,0,1,1,1,"[9, 19, 31, 42, 56, 68, 69, 70, 71]",,,,,1,0,1,0,0,6,6,6,942.2303904592991,,,,,,,,,,,,,,,,,,,,,,,,,,,,,,,,,,,,,,,,,,942.2059411671944,942.2060709171928,942.2060888339765,942.2303904592991,942.2303904592991,942.2303904592991,942.2303904592991,945.2341866670176,945.2341866670176,946.2175452089868,1,1,0.6112509169615805,0.16095566703006625,None,946.2180831250735,946.2181497090496,None,946.2182511673309,946.2182835000567,None,,,,,,,,,,,,,3,1,0,0,2024-12-13_14h18.09.698,rtmindeye,2024.1.5,None,2024-12-13 14h18.19.111265 -0500,
all_stimuli/rtmindeye_stimuli/image_358_seed_1.png,7,0,0,0,1,1,1,"[9, 19, 31, 42, 56, 68, 69, 70, 71]",,,,,1,0,1,0,0,7,7,7,946.2429128750227,,,,,,,,,,,,,,,,,,,,,,,,,,,,,,,,,,,,,,,,,,946.2186541673727,946.2187706669793,946.2187846251763,946.2429128750227,946.2429128750227,946.2429128750227,946.2429128750227,949.2509294589981,949.2509294589981,950.2211714172736,1,1,0.6008036253042519,0.14500266686081886,None,950.2216989169829,950.221759042237,None,950.2218598341569,950.2218923750333,None,,,,,,,,,,,,,3,1,0,0,2024-12-13_14h18.09.698,rtmindeye,2024.1.5,None,2024-12-13 14h18.19.111265 -0500,
all_stimuli/rtmindeye_stimuli/image_153_seed_1.png,8,0,0,0,1,1,1,"[9, 19, 31, 42, 56, 68, 69, 70, 71]",,,,,1,0,1,0,0,8,8,8,950.2457984592766,,,,,,,,,,,,,,,,,,,,,,,,,,,,,,,,,,,,,,,,,,950.222254042048,950.2223500842229,950.2223637090065,950.2457984592766,950.2457984592766,950.2457984592766,950.2457984592766,953.2509210002609,953.2509210002609,954.2343212091364,1,1,0.7288388749584556,0.16106566693633795,None,954.2348527922295,954.234912250191,None,954.2350092092529,954.2350417920388,None,,,,,,,,,,,,,3,1,0,0,2024-12-13_14h18.09.698,rtmindeye,2024.1.5,None,2024-12-13 14h18.19.111265 -0500,
blank.jpg,9,1,0,0,1,1,1,"[9, 19, 31, 42, 56, 68, 69, 70, 71]",,,,,1,0,1,0,0,9,9,9,954.2444175840355,,,,,,,,,,,,,,,,,,,,,,,,,,,,,,,,,,,,,,,,,,954.2354151252657,954.2355308341794,954.2355447923765,954.2444175840355,954.2444175840355,954.2444175840355,954.2444175840355,957.2372103342786,957.2372103342786,958.236057125032,None,0,,,None,958.2365217502229,958.2365893339738,None,958.2367099593394,958.2367489170283,None,,,,,,,,,,,,,3,1,0,0,2024-12-13_14h18.09.698,rtmindeye,2024.1.5,None,2024-12-13 14h18.19.111265 -0500,
all_stimuli/rtmindeye_stimuli/image_565_seed_1.png,10,0,0,0,1,1,1,"[9, 19, 31, 42, 56, 68, 69, 70, 71]",,,,,1,0,1,0,0,10,10,10,958.2635582922958,,,,,,,,,,,,,,,,,,,,,,,,,,,,,,,,,,,,,,,,,,958.2372974590398,958.2374471672811,958.2374687921256,958.2635582922958,958.2635582922958,958.2635582922958,958.2635582922958,961.2542859590612,961.2542859590612,962.2398743750528,1,1,0.8280991250649095,0.14405604172497988,None,962.2405296671204,962.2406029594131,None,962.2407221253961,962.2407637923025,None,,,,,,,,,,,,,3,1,0,0,2024-12-13_14h18.09.698,rtmindeye,2024.1.5,None,2024-12-13 14h18.19.111265 -0500,
all_stimuli/rtmindeye_stimuli/image_8_seed_1.png,11,0,0,0,1,1,1,"[9, 19, 31, 42, 56, 68, 69, 70, 71]",,,,,1,0,1,0,0,11,11,11,962.2671382920817,,,,,,,,,,,,,,,,,,,,,,,,,,,,,,,,,,,,,,,,,,962.2411960423924,962.2413239171728,962.2413403340615,962.2671382920817,962.2671382920817,962.2671382920817,962.2671382920817,965.2542965002358,965.2542965002358,966.250985709019,1,1,0.6565955011174083,0.16897466592490673,None,966.2515603341162,966.2516247923486,None,966.251724250149,966.2517581670545,None,,,,,,,,,,,,,3,1,0,0,2024-12-13_14h18.09.698,rtmindeye,2024.1.5,None,2024-12-13 14h18.19.111265 -0500,
all_stimuli/rtmindeye_stimuli/image_152_seed_1.png,12,0,0,0,1,1,1,"[9, 19, 31, 42, 56, 68, 69, 70, 71]",,,,,1,0,1,0,0,12,12,12,966.2732304590754,,,,,,,,,,,,,,,,,,,,,,,,,,,,,,,,,,,,,,,,,,966.2521460424177,966.2522522923537,966.2522660843097,966.2732304590754,966.2732304590754,966.2732304590754,966.2732304590754,969.2717989170924,969.2717989170924,970.2545015420765,1,1,1.0295168748125434,0.1600593333132565,None,970.2551355422474,970.255207750015,None,970.2553261253051,970.2553665423766,None,,,,,,,,,,,,,3,1,0,0,2024-12-13_14h18.09.698,rtmindeye,2024.1.5,None,2024-12-13 14h18.19.111265 -0500,
all_stimuli/rtmindeye_stimuli/image_173_seed_1.png,13,0,0,0,1,1,1,"[9, 19, 31, 42, 56, 68, 69, 70, 71]",,,,,1,0,1,0,0,13,13,13,970.2813965003006,,,,,,,,,,,,,,,,,,,,,,,,,,,,,,,,,,,,,,,,,,970.2558083753102,970.2559259589761,970.2559425421059,970.2813965003006,970.2813965003006,970.2813965003006,970.2813965003006,973.2708574170247,973.2708574170247,974.2720480002463,1,1,0.7624130421318114,0.1428727088496089,None,974.2727186670527,974.2727902922779,None,974.2729110843502,974.2729517091066,None,,,,,,,,,,,,,3,1,0,0,2024-12-13_14h18.09.698,rtmindeye,2024.1.5,None,2024-12-13 14h18.19.111265 -0500,
all_stimuli/rtmindeye_stimuli/4_22.png,14,0,0,0,1,1,1,"[9, 19, 31, 42, 56, 68, 69, 70, 71]",,,,,1,0,1,0,0,14,14,14,974.2907000002451,,,,,,,,,,,,,,,,,,,,,,,,,,,,,,,,,,,,,,,,,,974.2734090001322,974.273565125186,974.273581625428,974.2907000002451,974.2907000002451,974.2907000002451,974.2907000002451,977.2876331252046,977.2876331252046,978.2864977093413,1,1,0.7751109590753913,0.15687841596081853,None,978.2875247923657,978.2876220843755,None,978.2877238751389,978.2877606670372,None,,,,,,,,,,,,,3,1,0,0,2024-12-13_14h18.09.698,rtmindeye,2024.1.5,None,2024-12-13 14h18.19.111265 -0500,
all_stimuli/rtmindeye_stimuli/image_648_seed_1.png,15,0,0,0,1,1,1,"[9, 19, 31, 42, 56, 68, 69, 70, 71]",,,,,1,0,1,0,0,15,15,15,978.313897666987,,,,,,,,,,,,,,,,,,,,,,,,,,,,,,,,,,,,,,,,,,978.2881982093677,978.2883513341658,978.2883686251007,978.313897666987,978.313897666987,978.313897666987,978.313897666987,981.3176441672258,981.3176441672258,982.3012077920139,1,1,0.9418806252069771,0.17304637469351292,None,982.3017894173972,982.3018560842611,None,982.301954000257,982.3019882091321,None,,,,,,,,,,,,,3,1,0,0,2024-12-13_14h18.09.698,rtmindeye,2024.1.5,None,2024-12-13 14h18.19.111265 -0500,
all_stimuli/rtmindeye_stimuli/image_618_seed_1.png,16,0,0,0,1,1,1,"[9, 19, 31, 42, 56, 68, 69, 70, 71]",,,,,1,0,1,0,0,16,16,16,982.3302725423127,,,,,,,,,,,,,,,,,,,,,,,,,,,,,,,,,,,,,,,,,,982.3023731671274,982.3025055844337,982.3025220423006,982.3302725423127,982.3302725423127,982.3302725423127,982.3302725423127,985.3237040000968,985.3237040000968,986.3066499591805,1,1,1.1634782091714442,0.15606779186055064,None,986.3071832503192,986.3072425001301,None,986.3073391672224,986.307372292038,None,,,,,,,,,,,,,3,1,0,0,2024-12-13_14h18.09.698,rtmindeye,2024.1.5,None,2024-12-13 14h18.19.111265 -0500,
all_stimuli/rtmindeye_stimuli/image_13_seed_1.png,17,0,0,0,1,1,1,"[9, 19, 31, 42, 56, 68, 69, 70, 71]",,,,,1,0,1,0,0,17,17,17,986.3328363341279,,,,,,,,,,,,,,,,,,,,,,,,,,,,,,,,,,,,,,,,,,986.3077407502569,986.3078535003588,986.3078671670519,986.3328363341279,986.3328363341279,986.3328363341279,986.3328363341279,989.3371973750181,989.3371973750181,990.3192774173804,1,1,1.0469428761862218,0.1110258330591023,None,990.3203553752974,990.3204849590547,None,990.3206697502173,990.3207270842977,None,,,,,,,,,,,,,3,1,0,0,2024-12-13_14h18.09.698,rtmindeye,2024.1.5,None,2024-12-13 14h18.19.111265 -0500,
all_stimuli/rtmindeye_stimuli/image_593_seed_1.png,18,0,0,0,1,1,1,"[9, 19, 31, 42, 56, 68, 69, 70, 71]",,,,,1,0,1,0,0,18,18,18,990.3440336249769,,,,,,,,,,,,,,,,,,,,,,,,,,,,,,,,,,,,,,,,,,990.3215256254189,990.3216924173757,990.3217176250182,990.3440336249769,990.3440336249769,990.3440336249769,990.3440336249769,993.3365922090597,993.3365922090597,994.3339188341051,1,1,1.1388635840266943,0.16792366607114673,None,994.334554084111,994.3346273340285,None,994.3347494173795,994.3347895001061,None,,,,,,,,,,,,,3,1,0,0,2024-12-13_14h18.09.698,rtmindeye,2024.1.5,None,2024-12-13 14h18.19.111265 -0500,
blank.jpg,19,1,0,0,1,1,1,"[9, 19, 31, 42, 56, 68, 69, 70, 71]",,,,,1,0,1,0,0,19,19,19,994.3428293750621,,,,,,,,,,,,,,,,,,,,,,,,,,,,,,,,,,,,,,,,,,994.3352221674286,994.3353410842828,994.3353575421497,994.3428293750621,994.3428293750621,994.3428293750621,994.3428293750621,997.3386928751133,997.3386928751133,998.3347103754058,None,0,,,None,998.3350120424293,998.3350469172001,None,998.3351068343036,998.3351273341104,None,998.3516468340531,998.3516468340531,,,,,,,,,,,3,1,0,0,2024-12-13_14h18.09.698,rtmindeye,2024.1.5,None,2024-12-13 14h18.19.111265 -0500,
all_stimuli/rtmindeye_stimuli/image_66_seed_1.png,20,0,0,0,1,1,1,"[9, 19, 31, 42, 56, 68, 69, 70, 71]",,,,,1,0,1,0,0,20,20,20,998.3516468340531,,,,,,,,,,,,,,,,,,,,,,,,,,,,,,,,,,,,,,,,,,998.3353588343598,998.3354142503813,998.3354221251793,998.3516468340531,998.3516468340531,998.3516468340531,998.3516468340531,1001.3376372503117,1001.3376372503117,1002.3374097500928,1,1,0.7371784169226885,0.15304045798256993,None,1002.3380380840972,1002.3381089172326,None,1002.3382274592295,1002.3382670423016,None,,,,,,,,,,,,,3,1,0,0,2024-12-13_14h18.09.698,rtmindeye,2024.1.5,None,2024-12-13 14h18.19.111265 -0500,
all_stimuli/rtmindeye_stimuli/image_343_seed_1.png,21,0,0,0,1,1,1,"[9, 19, 31, 42, 56, 68, 69, 70, 71]",,,,,1,0,1,0,0,21,21,21,1002.3634952502325,,,,,,,,,,,,,,,,,,,,,,,,,,,,,,,,,,,,,,,,,,1002.3386714169756,1002.33875837503,1002.338769834023,1002.3634952502325,1002.3634952502325,1002.3634952502325,1002.3634952502325,1005.357906084042,1005.357906084042,1006.3512602089904,1,1,1.0163613338954747,0.1369638331234455,None,1006.3520532501861,1006.352144875098,None,1006.352294750046,1006.3523471252993,None,,,,,,,,,,,,,3,1,0,0,2024-12-13_14h18.09.698,rtmindeye,2024.1.5,None,2024-12-13 14h18.19.111265 -0500,
all_stimuli/rtmindeye_stimuli/image_47_seed_1.png,22,0,0,0,1,1,1,"[9, 19, 31, 42, 56, 68, 69, 70, 71]",,,,,1,0,1,0,0,22,22,22,1006.3784689591266,,,,,,,,,,,,,,,,,,,,,,,,,,,,,,,,,,,,,,,,,,1006.352914834395,1006.3530677501112,1006.3530889591202,1006.3784689591266,1006.3784689591266,1006.3784689591266,1006.3784689591266,1009.3845684169792,1009.3845684169792,1010.3543227920309,1,1,1.9563452508300543,0.13106845784932375,None,1010.3547307499684,1010.3547760844231,None,1010.3548489590175,1010.3548731673509,None,,,,,,,,,,,,,3,1,0,0,2024-12-13_14h18.09.698,rtmindeye,2024.1.5,None,2024-12-13 14h18.19.111265 -0500,
all_stimuli/rtmindeye_stimuli/15_89.png,23,0,0,0,1,1,1,"[9, 19, 31, 42, 56, 68, 69, 70, 71]",,,,,1,0,1,0,0,23,23,23,1010.3706719591282,,,,,,,,,,,,,,,,,,,,,,,,,,,,,,,,,,,,,,,,,,1010.3551459591836,1010.355220625177,1010.3552306671627,1010.3706719591282,1010.3706719591282,1010.3706719591282,1010.3706719591282,1013.3677448751405,1013.3677448751405,1014.3542942092754,1,1,0.9701534588821232,0.16399791603907943,None,1014.3550132922828,1014.3551218342036,None,1014.3552034171298,1014.3552305423655,None,1014.3756062500179,1014.3756062500179,,,,,,,,,,,3,1,0,0,2024-12-13_14h18.09.698,rtmindeye,2024.1.5,None,2024-12-13 14h18.19.111265 -0500,
all_stimuli/rtmindeye_stimuli/image_280_seed_1.png,24,0,0,0,1,1,1,"[9, 19, 31, 42, 56, 68, 69, 70, 71]",,,,,1,0,1,0,0,24,24,24,1014.3756062500179,,,,,,,,,,,,,,,,,,,,,,,,,,,,,,,,,,,,,,,,,,1014.3555772500113,1014.3556916671805,1014.3557021673769,1014.3756062500179,1014.3756062500179,1014.3756062500179,1014.3756062500179,1017.3716009170748,1017.3716009170748,1018.3679697089829,1,1,0.8353242091834545,0.12097175000235438,None,1018.3686320842244,1018.3687070002779,None,1018.3688453342766,1018.3688850840554,None,,,,,,,,,,,,,3,1,0,0,2024-12-13_14h18.09.698,rtmindeye,2024.1.5,None,2024-12-13 14h18.19.111265 -0500,
all_stimuli/rtmindeye_stimuli/image_445_seed_1.png,25,0,0,0,1,1,1,"[9, 19, 31, 42, 56, 68, 69, 70, 71]",,,,,1,0,1,0,0,25,25,25,1018.3950868751854,,,,,,,,,,,,,,,,,,,,,,,,,,,,,,,,,,,,,,,,,,1018.3693543751724,1018.3695181673393,1018.3695352501236,1018.3950868751854,1018.3950868751854,1018.3950868751854,1018.3950868751854,1021.4013199592009,1021.4013199592009,1022.3704925421625,1,1,0.8688452090136707,0.15595712466165423,None,1022.3709420002997,1022.370987709146,None,1022.3710545003414,1022.3710765000433,None,,,,,,,,,,,,,3,1,0,0,2024-12-13_14h18.09.698,rtmindeye,2024.1.5,None,2024-12-13 14h18.19.111265 -0500,
all_stimuli/rtmindeye_stimuli/image_677_seed_1.png,26,0,0,0,1,1,1,"[9, 19, 31, 42, 56, 68, 69, 70, 71]",,,,,1,0,1,0,0,26,26,26,1022.3907450423576,,,,,,,,,,,,,,,,,,,,,,,,,,,,,,,,,,,,,,,,,,1022.3713337089866,1022.3714333754033,1022.3714422923513,1022.3907450423576,1022.3907450423576,1022.3907450423576,1022.3907450423576,1025.3878068341874,1025.3878068341874,1026.3845762922429,1,1,0.8241802090778947,0.15196937508881092,None,1026.3850780841894,1026.38513358403,None,1026.3852181672119,1026.3852467089891,None,,,,,,,,,,,,,3,1,0,0,2024-12-13_14h18.09.698,rtmindeye,2024.1.5,None,2024-12-13 14h18.19.111265 -0500,
all_stimuli/rtmindeye_stimuli/image_16_seed_1.png,27,0,0,0,1,1,1,"[9, 19, 31, 42, 56, 68, 69, 70, 71]",,,,,1,0,1,0,0,27,27,27,1026.413270542398,,,,,,,,,,,,,,,,,,,,,,,,,,,,,,,,,,,,,,,,,,1026.3855905421078,1026.3856735001318,1026.3856851253659,1026.413270542398,1026.413270542398,1026.413270542398,1026.413270542398,1029.4062386252917,1029.4062386252917,1030.387840084266,1,1,0.826663457788527,0.13697470910847187,None,1030.3883876670152,1030.3884497093968,None,1030.3885489590466,1030.388581875246,None,,,,,,,,,,,,,3,1,0,0,2024-12-13_14h18.09.698,rtmindeye,2024.1.5,None,2024-12-13 14h18.19.111265 -0500,
all_stimuli/rtmindeye_stimuli/image_530_seed_1.png,28,0,0,0,1,1,1,"[9, 19, 31, 42, 56, 68, 69, 70, 71]",,,,,1,0,1,0,0,28,28,28,1030.4152041249909,,,,,,,,,,,,,,,,,,,,,,,,,,,,,,,,,,,,,,,,,,1030.388948792126,1030.3890582923777,1030.3890719171613,1030.4152041249909,1030.4152041249909,1030.4152041249909,1030.4152041249909,1033.4076145840809,1033.4076145840809,1034.4012557920069,1,1,1.2027443759143353,0.1899071247316897,None,1034.401881792117,1034.4019537093118,None,1034.4020900423639,1034.402139709331,None,,,,,,,,,,,,,3,1,0,0,2024-12-13_14h18.09.698,rtmindeye,2024.1.5,None,2024-12-13 14h18.19.111265 -0500,
all_stimuli/rtmindeye_stimuli/image_134_seed_1.png,29,0,0,0,1,1,1,"[9, 19, 31, 42, 56, 68, 69, 70, 71]",,,,,1,0,1,0,0,29,29,29,1034.427700500004,,,,,,,,,,,,,,,,,,,,,,,,,,,,,,,,,,,,,,,,,,1034.4025942501612,1034.402719750069,1034.4027363341302,1034.427700500004,1034.427700500004,1034.427700500004,1034.427700500004,1037.4241636670195,1037.4241636670195,1038.404723000247,1,1,1.6222586673684418,0.15793058276176453,None,1038.4051836254075,1038.4052355843596,None,1038.4053184590302,1038.4053470003419,None,,,,,,,,,,,,,3,1,0,0,2024-12-13_14h18.09.698,rtmindeye,2024.1.5,None,2024-12-13 14h18.19.111265 -0500,
all_stimuli/rtmindeye_stimuli/w_pool1.jpg,30,0,0,0,1,1,1,"[9, 19, 31, 42, 56, 68, 69, 70, 71]",,,,,1,0,1,0,0,30,30,30,1038.4213915420696,,,,,,,,,,,,,,,,,,,,,,,,,,,,,,,,,,,,,,,,,,1038.405672959052,1038.4060784592293,1038.406090834178,1038.4213915420696,1038.4213915420696,1038.4213915420696,1038.4213915420696,1041.4213343751617,1041.4213343751617,1042.417973625008,1,1,0.7165000420063734,0.1410764162428677,None,1042.418488375377,1042.418541750405,None,1042.4186252090149,1042.4186535002664,None,,,,,,,,,,,,,3,1,0,0,2024-12-13_14h18.09.698,rtmindeye,2024.1.5,None,2024-12-13 14h18.19.111265 -0500,
blank.jpg,31,1,0,0,1,1,1,"[9, 19, 31, 42, 56, 68, 69, 70, 71]",,,,,1,0,1,0,0,31,31,31,1042.4282109593041,,,,,,,,,,,,,,,,,,,,,,,,,,,,,,,,,,,,,,,,,,1042.4189906250685,1042.4190976251848,1042.419112334028,1042.4282109593041,1042.4282109593041,1042.4282109593041,1042.4282109593041,1045.43470558431,1045.43470558431,1046.4185201250948,None,0,,,None,1046.4190186671913,1046.4190865843557,None,1046.419211667031,1046.4192407503724,None,1046.447306000162,1046.447306000162,,,,,,,,,,,3,1,0,0,2024-12-13_14h18.09.698,rtmindeye,2024.1.5,None,2024-12-13 14h18.19.111265 -0500,
all_stimuli/rtmindeye_stimuli/image_591_seed_1.png,32,0,0,0,1,1,1,"[9, 19, 31, 42, 56, 68, 69, 70, 71]",,,,,1,0,1,0,0,32,32,32,1046.447306000162,,,,,,,,,,,,,,,,,,,,,,,,,,,,,,,,,,,,,,,,,,1046.4195599174127,1046.4196412502788,1046.4196527921595,1046.447306000162,1046.447306000162,1046.447306000162,1046.447306000162,1049.4366220002994,1049.4366220002994,1050.4224693751894,None,0,,,['1'],1050.4238912924193,1050.4240161250345,None,1050.4241626672447,1050.4242420843802,None,,,[1.1545930420979857],[0.14609737507998943],,,,,,,,,3,1,0,0,2024-12-13_14h18.09.698,rtmindeye,2024.1.5,None,2024-12-13 14h18.19.111265 -0500,
all_stimuli/rtmindeye_stimuli/image_523_seed_1.png,33,0,0,0,1,1,1,"[9, 19, 31, 42, 56, 68, 69, 70, 71]",,,,,1,0,1,0,0,33,33,33,1050.4522151672281,,,,,,,,,,,,,,,,,,,,,,,,,,,,,,,,,,,,,,,,,,1050.4250770001672,1050.425432417076,1050.4254777920432,1050.4522151672281,1050.4522151672281,1050.4522151672281,1050.4522151672281,1053.4378546671942,1053.4378546671942,1054.4347629169933,1,1,0.8327663340605795,0.1520012910477817,None,1054.4354519592598,1054.4355281251483,None,1054.4356467090547,1054.4356878753752,None,,,,,,,,,,,,,3,1,0,0,2024-12-13_14h18.09.698,rtmindeye,2024.1.5,None,2024-12-13 14h18.19.111265 -0500,
all_stimuli/rtmindeye_stimuli/image_184_seed_1.png,34,0,0,0,1,1,1,"[9, 19, 31, 42, 56, 68, 69, 70, 71]",,,,,1,0,1,0,0,34,34,34,1054.4599195001647,,,,,,,,,,,,,,,,,,,,,,,,,,,,,,,,,,,,,,,,,,1054.4361770004034,1054.4363371673971,1054.4363540001214,1054.4599195001647,1054.4599195001647,1054.4599195001647,1054.4599195001647,1057.455046375282,1057.455046375282,1058.4413428753614,1,1,0.8831638339906931,0.15603075036779046,None,1058.441977375187,1058.442046375014,None,1058.4421451250091,1058.4421771252528,None,,,,,,,,,,,,,3,1,0,0,2024-12-13_14h18.09.698,rtmindeye,2024.1.5,None,2024-12-13 14h18.19.111265 -0500,
all_stimuli/rtmindeye_stimuli/image_54_seed_1.png,35,0,0,0,1,1,1,"[9, 19, 31, 42, 56, 68, 69, 70, 71]",,,,,1,0,1,0,0,35,35,35,1058.4638063753955,,,,,,,,,,,,,,,,,,,,,,,,,,,,,,,,,,,,,,,,,,1058.4425408341922,1058.4426681674086,1058.442681667395,1058.4638063753955,1058.4638063753955,1058.4638063753955,1058.4638063753955,1061.4549416671507,1061.4549416671507,1062.451577084139,1,1,1.112145374994725,0.1760369590483606,None,1062.4521177504212,1062.452178959269,None,1062.452274542302,1062.452307375148,None,,,,,,,,,,,,,3,1,0,0,2024-12-13_14h18.09.698,rtmindeye,2024.1.5,None,2024-12-13 14h18.19.111265 -0500,
all_stimuli/rtmindeye_stimuli/image_585_seed_1.png,36,0,1,0,1,1,1,"[9, 19, 31, 42, 56, 68, 69, 70, 71]",,,,,1,0,1,0,0,36,36,36,1062.477417584043,,,,,,,,,,,,,,,,,,,,,,,,,,,,,,,,,,,,,,,,,,1062.452664209064,1062.4527671253309,1062.452780584339,1062.477417584043,1062.477417584043,1062.477417584043,1062.477417584043,1065.4713167091832,1065.4713167091832,1066.454667209182,2,1,0.7805932508781552,0.1430362081155181,None,1066.4550373340026,1066.4550818339922,None,1066.455147834029,1066.4551704172045,None,,,,,,,,,,,,,3,1,0,0,2024-12-13_14h18.09.698,rtmindeye,2024.1.5,None,2024-12-13 14h18.19.111265 -0500,
all_stimuli/rtmindeye_stimuli/19_56.png,37,0,0,0,1,1,1,"[9, 19, 31, 42, 56, 68, 69, 70, 71]",,,,,1,0,1,0,0,37,37,37,1066.4716561250389,,,,,,,,,,,,,,,,,,,,,,,,,,,,,,,,,,,,,,,,,,1066.4554232093506,1066.455493000336,1066.4555018753745,1066.4716561250389,1066.4716561250389,1066.4716561250389,1066.4716561250389,1069.4679175843485,1069.4679175843485,1070.454865167383,1,1,1.2303806249983609,0.16797079192474484,None,1070.4553324594162,1070.4553867923096,None,1070.4554697503336,1070.4554986250587,None,1070.482293792069,1070.482293792069,,,,,,,,,,,3,1,0,0,2024-12-13_14h18.09.698,rtmindeye,2024.1.5,None,2024-12-13 14h18.19.111265 -0500,
all_stimuli/rtmindeye_stimuli/image_22_seed_1.png,38,0,0,0,1,1,1,"[9, 19, 31, 42, 56, 68, 69, 70, 71]",,,,,1,0,1,0,0,38,38,38,1070.482293792069,,,,,,,,,,,,,,,,,,,,,,,,,,,,,,,,,,,,,,,,,,1070.4558159173466,1070.4559012502432,1070.4559127092361,1070.482293792069,1070.482293792069,1070.482293792069,1070.482293792069,1073.4848532499745,1073.4848532499745,1074.457042708993,2,0,1.5457922089844942,None,None,1074.4578715004027,1074.4579465002753,None,1074.4580650422722,1074.4581050002016,None,,,,,,,,,,,,,3,1,0,0,2024-12-13_14h18.09.698,rtmindeye,2024.1.5,None,2024-12-13 14h18.19.111265 -0500,
all_stimuli/rtmindeye_stimuli/image_242_seed_1.png,39,0,1,0,1,1,1,"[9, 19, 31, 42, 56, 68, 69, 70, 71]",,,,,1,0,1,0,0,39,39,39,1074.4841218753718,,,,,,,,,,,,,,,,,,,,,,,,,,,,,,,,,,,,,,,,,,1074.4585509169847,1074.458674625028,1074.458690542262,1074.4841218753718,1074.4841218753718,1074.4841218753718,1074.4841218753718,1077.4717244170606,1077.4717244170606,1078.468016042374,2,1,1.0310456263832748,0.12498866580426693,None,1078.4685307503678,1078.4685910842381,None,1078.4686876251362,1078.4687197501771,None,,,,,,,,,,,,,3,1,0,0,2024-12-13_14h18.09.698,rtmindeye,2024.1.5,None,2024-12-13 14h18.19.111265 -0500,
all_stimuli/rtmindeye_stimuli/image_231_seed_1.png,40,0,0,0,1,1,1,"[9, 19, 31, 42, 56, 68, 69, 70, 71]",,,,,1,0,1,0,0,40,40,40,1078.4940276253037,,,,,,,,,,,,,,,,,,,,,,,,,,,,,,,,,,,,,,,,,,1078.4691099170595,1078.4692062921822,1078.4692196249962,1078.4940276253037,1078.4940276253037,1078.4940276253037,1078.4940276253037,1081.5014536674134,1081.5014536674134,1082.47152041737,1,1,1.1110422923229635,0.13801737502217293,None,1082.4719528341666,1082.4720015842468,None,1082.4720766250975,1082.4721015840769,None,,,,,,,,,,,,,3,1,0,0,2024-12-13_14h18.09.698,rtmindeye,2024.1.5,None,2024-12-13 14h18.19.111265 -0500,
all_stimuli/rtmindeye_stimuli/image_697_seed_1.png,41,0,0,0,1,1,1,"[9, 19, 31, 42, 56, 68, 69, 70, 71]",,,,,1,0,1,0,0,41,41,41,1082.4916033754125,,,,,,,,,,,,,,,,,,,,,,,,,,,,,,,,,,,,,,,,,,1082.4723832090385,1082.4724791250192,1082.4724890422076,1082.4916033754125,1082.4916033754125,1082.4916033754125,1082.4916033754125,1085.5014460003003,1085.5014460003003,1086.484857709147,1,1,0.7755399579182267,0.12192649999633431,None,1086.4854807499796,1086.4855525842868,None,1086.4856709591113,1086.4857264170423,None,,,,,,,,,,,,,3,1,0,0,2024-12-13_14h18.09.698,rtmindeye,2024.1.5,None,2024-12-13 14h18.19.111265 -0500,
blank.jpg,42,1,0,0,1,1,1,"[9, 19, 31, 42, 56, 68, 69, 70, 71]",,,,,1,0,1,0,0,42,42,42,1086.4964032093994,,,,,,,,,,,,,,,,,,,,,,,,,,,,,,,,,,,,,,,,,,1086.486171292141,1086.4863115004264,1086.4863310842775,1086.4964032093994,1086.4964032093994,1086.4964032093994,1086.4964032093994,1089.488358750008,1089.488358750008,1090.4849732923321,None,0,,,None,1090.4854097091593,1090.4854920003563,None,1090.4856320000254,1090.4856702093966,None,1090.5147653343156,1090.5147653343156,,,,,,,,,,,3,1,0,0,2024-12-13_14h18.09.698,rtmindeye,2024.1.5,None,2024-12-13 14h18.19.111265 -0500,
all_stimuli/rtmindeye_stimuli/image_31_seed_1.png,43,0,0,0,1,1,1,"[9, 19, 31, 42, 56, 68, 69, 70, 71]",,,,,1,0,1,0,0,43,43,43,1090.5147653343156,,,,,,,,,,,,,,,,,,,,,,,,,,,,,,,,,,,,,,,,,,1090.4861245420761,1090.486238209065,1090.486254709307,1090.5147653343156,1090.5147653343156,1090.5147653343156,1090.5147653343156,1093.5182938752696,1093.5182938752696,1094.4875368750654,1,1,0.7923525418154895,0.17501462530344725,None,1094.488379875198,1094.4884500000626,None,1094.4885244593024,1094.4885500841774,None,,,,,,,,,,,,,3,1,0,0,2024-12-13_14h18.09.698,rtmindeye,2024.1.5,None,2024-12-13 14h18.19.111265 -0500,
all_stimuli/rtmindeye_stimuli/image_558_seed_1.png,44,0,0,0,1,1,1,"[9, 19, 31, 42, 56, 68, 69, 70, 71]",,,,,1,0,1,0,0,44,44,44,1094.5105584589764,,,,,,,,,,,,,,,,,,,,,,,,,,,,,,,,,,,,,,,,,,1094.488897875417,1094.489023459144,1094.48903345922,1094.5105584589764,1094.5105584589764,1094.5105584589764,1094.5105584589764,1097.517989042215,1097.517989042215,1098.5032731252722,1,1,1.0455235419794917,0.14003070909529924,None,1098.503956625238,1098.5040372093208,None,1098.504114750307,1098.504141042009,None,,,,,,,,,,,,,3,1,0,0,2024-12-13_14h18.09.698,rtmindeye,2024.1.5,None,2024-12-13 14h18.19.111265 -0500,
all_stimuli/rtmindeye_stimuli/image_54_seed_1.png,45,0,1,0,1,1,1,"[9, 19, 31, 42, 56, 68, 69, 70, 71]",,,,,1,0,1,0,0,45,45,45,1098.524744917173,,,,,,,,,,,,,,,,,,,,,,,,,,,,,,,,,,,,,,,,,,1098.504434209317,1098.504540250171,1098.5045507093892,1098.524744917173,1098.524744917173,1098.524744917173,1098.524744917173,1101.534517750144,1101.534517750144,1102.51849945914,2,1,0.8254590420983732,0.11891029169782996,None,1102.518943125382,1102.5189915420488,None,1102.5190563341603,1102.5190789173357,None,,,,,,,,,,,,,3,1,0,0,2024-12-13_14h18.09.698,rtmindeye,2024.1.5,None,2024-12-13 14h18.19.111265 -0500,
all_stimuli/rtmindeye_stimuli/image_474_seed_1.png,46,0,1,0,1,1,1,"[9, 19, 31, 42, 56, 68, 69, 70, 71]",,,,,1,0,1,0,0,46,46,46,1102.536940625403,,,,,,,,,,,,,,,,,,,,,,,,,,,,,,,,,,,,,,,,,,1102.5193694592454,1102.5194736672565,1102.5194832501002,1102.536940625403,1102.536940625403,1102.536940625403,1102.536940625403,1105.5347500843927,1105.5347500843927,1106.5209597502835,2,1,0.7243485418148339,0.11798375006765127,None,1106.5213761250488,1106.5214212089777,None,1106.5214953343384,1106.5215197093785,None,,,,,,,,,,,,,3,1,0,0,2024-12-13_14h18.09.698,rtmindeye,2024.1.5,None,2024-12-13 14h18.19.111265 -0500,
all_stimuli/rtmindeye_stimuli/image_726_seed_1.png,47,0,0,0,1,1,1,"[9, 19, 31, 42, 56, 68, 69, 70, 71]",,,,,1,0,1,0,0,47,47,47,1106.5469552502036,,,,,,,,,,,,,,,,,,,,,,,,,,,,,,,,,,,,,,,,,,1106.5217928751372,1106.5218704170547,1106.5218803752214,1106.5469552502036,1106.5469552502036,1106.5469552502036,1106.5469552502036,1109.5382335842587,1109.5382335842587,1110.5241052503698,1,1,1.0832723332569003,0.14300287514925003,None,1110.5245631253347,1110.524606875144,None,1110.5246735420078,1110.5246952502057,None,,,,,,,,,,,,,3,1,0,0,2024-12-13_14h18.09.698,rtmindeye,2024.1.5,None,2024-12-13 14h18.19.111265 -0500,
all_stimuli/rtmindeye_stimuli/image_195_seed_1.png,48,0,0,0,1,1,1,"[9, 19, 31, 42, 56, 68, 69, 70, 71]",,,,,1,0,1,0,0,48,48,48,1110.544189167209,,,,,,,,,,,,,,,,,,,,,,,,,,,,,,,,,,,,,,,,,,1110.5249366252683,1110.5250242501497,1110.52503308421,1110.544189167209,1110.544189167209,1110.544189167209,1110.544189167209,1113.5515160840005,1113.5515160840005,1114.5348737919703,1,1,1.3789968341588974,0.10402137506753206,None,1114.5353802922182,1114.5354382093064,None,1114.5355214593,1114.5355496671982,None,,,,,,,,,,,,,3,1,0,0,2024-12-13_14h18.09.698,rtmindeye,2024.1.5,None,2024-12-13 14h18.19.111265 -0500,
all_stimuli/rtmindeye_stimuli/image_24_seed_1.png,49,0,0,0,1,1,1,"[9, 19, 31, 42, 56, 68, 69, 70, 71]",,,,,1,0,1,0,0,49,49,49,1114.562596875243,,,,,,,,,,,,,,,,,,,,,,,,,,,,,,,,,,,,,,,,,,1114.5358870420605,1114.5360035421327,1114.5360175841488,1114.562596875243,1114.562596875243,1114.562596875243,1114.562596875243,1117.5545793753117,1117.5545793753117,1118.5400547920726,1,1,0.8176822923123837,0.14491362497210503,None,1118.540734542068,1118.540810292121,None,1118.5409329170361,1118.5409723343328,None,,,,,,,,,,,,,3,1,0,0,2024-12-13_14h18.09.698,rtmindeye,2024.1.5,None,2024-12-13 14h18.19.111265 -0500,
all_stimuli/rtmindeye_stimuli/image_581_seed_1.png,50,0,0,0,1,1,1,"[9, 19, 31, 42, 56, 68, 69, 70, 71]",,,,,1,0,1,0,0,50,50,50,1118.568367167376,,,,,,,,,,,,,,,,,,,,,,,,,,,,,,,,,,,,,,,,,,1118.54142100038,1118.5415755421855,1118.5415922091343,1118.568367167376,1118.568367167376,1118.568367167376,1118.568367167376,1121.5546385841444,1121.5546385841444,1122.5542972921394,1,1,0.7939005838707089,0.16291520791128278,None,1122.5546535421163,1122.5546943750232,None,1122.5547587922774,1122.5547797922045,None,,,,,,,,,,,,,3,1,0,0,2024-12-13_14h18.09.698,rtmindeye,2024.1.5,None,2024-12-13 14h18.19.111265 -0500,
all_stimuli/rtmindeye_stimuli/image_403_seed_1.png,51,0,0,0,1,1,1,"[9, 19, 31, 42, 56, 68, 69, 70, 71]",,,,,1,0,1,0,0,51,51,51,1122.5774957090616,,,,,,,,,,,,,,,,,,,,,,,,,,,,,,,,,,,,,,,,,,1122.5550241670571,1122.5550879170187,1122.55509666726,1122.5774957090616,1122.5774957090616,1122.5774957090616,1122.5774957090616,1125.5848417500965,1125.5848417500965,1126.5598230422474,1,1,1.138806626200676,0.15191974956542253,None,1126.5602536671795,1126.560299417004,None,1126.5603633751161,1126.5603865003213,None,,,,,,,,,,,,,3,1,0,0,2024-12-13_14h18.09.698,rtmindeye,2024.1.5,None,2024-12-13 14h18.19.111265 -0500,
all_stimuli/rtmindeye_stimuli/image_72_seed_1.png,52,0,0,0,1,1,1,"[9, 19, 31, 42, 56, 68, 69, 70, 71]",,,,,1,0,1,0,0,52,52,52,1126.580364917405,,,,,,,,,,,,,,,,,,,,,,,,,,,,,,,,,,,,,,,,,,1126.5606472920626,1126.5607430841774,1126.5607520421036,1126.580364917405,1126.580364917405,1126.580364917405,1126.580364917405,1129.5724020423368,1129.5724020423368,1130.5711892093532,1,1,0.6699183750897646,0.14192924974486232,None,1130.571821000427,1130.5718930843286,None,1130.5720091671683,1130.5720527921803,None,,,,,,,,,,,,,3,1,0,0,2024-12-13_14h18.09.698,rtmindeye,2024.1.5,None,2024-12-13 14h18.19.111265 -0500,
all_stimuli/rtmindeye_stimuli/image_638_seed_1.png,53,0,0,0,1,1,1,"[9, 19, 31, 42, 56, 68, 69, 70, 71]",,,,,1,0,1,0,0,53,53,53,1130.5972999171354,,,,,,,,,,,,,,,,,,,,,,,,,,,,,,,,,,,,,,,,,,1130.5724880001508,1130.5725736673921,1130.572585459333,1130.5972999171354,1130.5972999171354,1130.5972999171354,1130.5972999171354,1133.6014876253903,1133.6014876253903,1134.5885484591126,1,1,1.3599540423601866,0.14906274992972612,None,1134.5895203342661,1134.5896385000087,None,1134.5897737094201,1134.5898275421932,None,,,,,,,,,,,,,3,1,0,0,2024-12-13_14h18.09.698,rtmindeye,2024.1.5,None,2024-12-13 14h18.19.111265 -0500,
all_stimuli/rtmindeye_stimuli/image_205_seed_1.png,54,0,0,0,1,1,1,"[9, 19, 31, 42, 56, 68, 69, 70, 71]",,,,,1,0,1,0,0,54,54,54,1134.6129692923278,,,,,,,,,,,,,,,,,,,,,,,,,,,,,,,,,,,,,,,,,,1134.5905457921326,1134.5906597501598,1134.5906768343411,1134.6129692923278,1134.6129692923278,1134.6129692923278,1134.6129692923278,1137.6177001250908,1137.6177001250908,1138.601641708985,1,1,1.448309833649546,0.13001070823520422,None,1138.6022665002383,1138.6023392090574,None,1138.6024579172954,1138.6024972503074,None,,,,,,,,,,,,,3,1,0,0,2024-12-13_14h18.09.698,rtmindeye,2024.1.5,None,2024-12-13 14h18.19.111265 -0500,
all_stimuli/rtmindeye_stimuli/image_197_seed_1.png,55,0,0,0,1,1,1,"[9, 19, 31, 42, 56, 68, 69, 70, 71]",,,,,1,0,1,0,0,55,55,55,1138.6299634589814,,,,,,,,,,,,,,,,,,,,,,,,,,,,,,,,,,,,,,,,,,1138.602965875063,1138.6031045420095,1138.6031235842966,1138.6299634589814,1138.6299634589814,1138.6299634589814,1138.6299634589814,1141.621990292333,1141.621990292333,1142.6046825423837,1,1,0.7763189999386668,0.16709304181858897,None,1142.605734417215,1142.6058662501164,None,1142.6060278750956,1142.6060863751918,None,,,,,,,,,,,,,3,1,0,0,2024-12-13_14h18.09.698,rtmindeye,2024.1.5,None,2024-12-13 14h18.19.111265 -0500,
blank.jpg,56,1,0,0,1,1,1,"[9, 19, 31, 42, 56, 68, 69, 70, 71]",,,,,1,0,1,0,0,56,56,56,1142.6175464172848,,,,,,,,,,,,,,,,,,,,,,,,,,,,,,,,,,,,,,,,,,1142.6068804999813,1142.6071529593319,1142.6071749171242,1142.6175464172848,1142.6175464172848,1142.6175464172848,1142.6175464172848,1145.6202184171416,1145.6202184171416,1146.603107042145,None,0,,,None,1146.6039285003208,1146.6040547923185,None,1146.6042138752528,1146.6042726673186,None,1146.6298335003667,1146.6298335003667,,,,,,,,,,,3,1,0,0,2024-12-13_14h18.09.698,rtmindeye,2024.1.5,None,2024-12-13 14h18.19.111265 -0500,
all_stimuli/rtmindeye_stimuli/image_423_seed_1.png,57,0,0,0,1,1,1,"[9, 19, 31, 42, 56, 68, 69, 70, 71]",,,,,1,0,1,0,0,57,57,57,1146.6298335003667,,,,,,,,,,,,,,,,,,,,,,,,,,,,,,,,,,,,,,,,,,1146.6051806672476,1146.6053404170088,1146.6053590001538,1146.6298335003667,1146.6298335003667,1146.6298335003667,1146.6298335003667,1149.6349424594082,1149.6349424594082,1150.620855834335,1,1,1.4794154590927064,0.14800225012004375,None,1150.6212571254,1150.6213029590435,None,1150.6213764171116,1150.6214001253247,None,,,,,,,,,,,,,3,1,0,0,2024-12-13_14h18.09.698,rtmindeye,2024.1.5,None,2024-12-13 14h18.19.111265 -0500,
all_stimuli/rtmindeye_stimuli/image_491_seed_1.png,58,0,0,0,1,1,1,"[9, 19, 31, 42, 56, 68, 69, 70, 71]",,,,,1,0,1,0,0,58,58,58,1150.6464468343183,,,,,,,,,,,,,,,,,,,,,,,,,,,,,,,,,,,,,,,,,,1150.6216724594124,1150.6217554169707,1150.62176525034,1150.6464468343183,1150.6464468343183,1150.6464468343183,1150.6464468343183,1153.6521903751418,1153.6521903751418,1154.622243875172,1,1,0.9979079170152545,0.11806858284398913,None,1154.6227652924135,1154.6228261673823,None,1154.6229252922349,1154.6229572091252,None,,,,,,,,,,,,,3,1,0,0,2024-12-13_14h18.09.698,rtmindeye,2024.1.5,None,2024-12-13 14h18.19.111265 -0500,
all_stimuli/rtmindeye_stimuli/image_707_seed_1.png,59,0,0,0,1,1,1,"[9, 19, 31, 42, 56, 68, 69, 70, 71]",,,,,1,0,1,0,0,59,59,59,1154.6489172503352,,,,,,,,,,,,,,,,,,,,,,,,,,,,,,,,,,,,,,,,,,1154.6233238340355,1154.6234257090837,1154.62343895901,1154.6489172503352,1154.6489172503352,1154.6489172503352,1154.6489172503352,1157.6401769174263,1157.6401769174263,1158.6378126670606,1,1,0.9874169169925153,0.16109524993225932,None,1158.638434292283,1158.6385083752684,None,1158.6386252092198,1158.638665500097,None,,,,,,,,,,,,,3,1,0,0,2024-12-13_14h18.09.698,rtmindeye,2024.1.5,None,2024-12-13 14h18.19.111265 -0500,
all_stimuli/rtmindeye_stimuli/image_455_seed_1.png,60,0,0,0,1,1,1,"[9, 19, 31, 42, 56, 68, 69, 70, 71]",,,,,1,0,1,0,0,60,60,60,1158.6648082090542,,,,,,,,,,,,,,,,,,,,,,,,,,,,,,,,,,,,,,,,,,1158.6391181251965,1158.6392364590429,1158.6392554170452,1158.6648082090542,1158.6648082090542,1158.6648082090542,1158.6648082090542,1161.6554629593156,1161.6554629593156,1162.6536883753724,1,1,1.5605231672525406,0.16801983304321766,None,1162.6543098343536,1162.6543817501515,None,1162.6545015843585,1162.6545409173705,None,,,,,,,,,,,,,3,1,0,0,2024-12-13_14h18.09.698,rtmindeye,2024.1.5,None,2024-12-13 14h18.19.111265 -0500,
all_stimuli/rtmindeye_stimuli/image_668_seed_1.png,61,0,0,0,1,1,1,"[9, 19, 31, 42, 56, 68, 69, 70, 71]",,,,,1,0,1,0,0,61,61,61,1162.6810702090152,,,,,,,,,,,,,,,,,,,,,,,,,,,,,,,,,,,,,,,,,,1162.6549760843627,1162.6550935003906,1162.6551100420766,1162.6810702090152,1162.6810702090152,1162.6810702090152,1162.6810702090152,1165.672036584001,1165.672036584001,1166.6705075842328,2,0,1.2223350419662893,0.15201416704803705,None,1166.6712768343277,1166.6713664592244,None,1166.6715192091651,1166.6715679173358,None,,,,,,,,,,,,,3,1,0,0,2024-12-13_14h18.09.698,rtmindeye,2024.1.5,None,2024-12-13 14h18.19.111265 -0500,
all_stimuli/rtmindeye_stimuli/image_285_seed_1.png,62,0,0,0,1,1,1,"[9, 19, 31, 42, 56, 68, 69, 70, 71]",,,,,1,0,1,0,0,62,62,62,1166.695044042077,,,,,,,,,,,,,,,,,,,,,,,,,,,,,,,,,,,,,,,,,,1166.6721344590187,1166.6722873342223,1166.6723083751276,1166.695044042077,1166.695044042077,1166.695044042077,1166.695044042077,1169.6881638751365,1169.6881638751365,1170.68494329229,1,1,1.4783408748917282,0.1530874171294272,None,1170.6853989171796,1170.6854497091845,None,1170.6855232920498,1170.685547500383,None,,,,,,,,,,,,,3,1,0,0,2024-12-13_14h18.09.698,rtmindeye,2024.1.5,None,2024-12-13 14h18.19.111265 -0500,
all_stimuli/rtmindeye_stimuli/image_6_seed_1.png,63,0,0,0,1,1,1,"[9, 19, 31, 42, 56, 68, 69, 70, 71]",,,,,1,0,1,0,0,63,63,63,1170.709084250033,,,,,,,,,,,,,,,,,,,,,,,,,,,,,,,,,,,,,,,,,,1170.6858225842007,1170.6859260844067,1170.6859361673705,1170.709084250033,1170.709084250033,1170.709084250033,1170.709084250033,1173.704947959166,1173.704947959166,1174.6892653750256,1,1,0.7122837076894939,0.1460015419870615,None,1174.6897897920571,1174.6898617502302,None,1174.6899825423025,1174.6900224173442,None,,,,,,,,,,,,,3,1,0,0,2024-12-13_14h18.09.698,rtmindeye,2024.1.5,None,2024-12-13 14h18.19.111265 -0500,
all_stimuli/rtmindeye_stimuli/image_253_seed_1.png,64,0,0,0,1,1,1,"[9, 19, 31, 42, 56, 68, 69, 70, 71]",,,,,1,0,1,0,0,64,64,64,1174.7150932503864,,,,,,,,,,,,,,,,,,,,,,,,,,,,,,,,,,,,,,,,,,1174.6904627922922,1174.690582584124,1174.6905989171937,1174.7150932503864,1174.7150932503864,1174.7150932503864,1174.7150932503864,1177.7183433342725,1177.7183433342725,1178.7019746252336,1,1,1.5893231253139675,0.14995629200711846,None,1178.7023887922987,1178.7024325840175,None,1178.7024997500703,1178.7025219174102,None,,,,,,,,,,,,,3,1,0,0,2024-12-13_14h18.09.698,rtmindeye,2024.1.5,None,2024-12-13 14h18.19.111265 -0500,
all_stimuli/rtmindeye_stimuli/image_380_seed_1.png,65,0,0,0,1,1,1,"[9, 19, 31, 42, 56, 68, 69, 70, 71]",,,,,1,0,1,0,0,65,65,65,1178.720119042322,,,,,,,,,,,,,,,,,,,,,,,,,,,,,,,,,,,,,,,,,,1178.7027755840681,1178.7028650841676,1178.702873875387,1178.720119042322,1178.720119042322,1178.720119042322,1178.720119042322,1181.7214139592834,1181.7214139592834,1182.7058207090013,1,1,1.3863400421105325,0.14204258285462856,None,1182.7064449172467,1182.7065162500367,None,1182.7066360423341,1182.7066750843078,None,,,,,,,,,,,,,3,1,0,0,2024-12-13_14h18.09.698,rtmindeye,2024.1.5,None,2024-12-13 14h18.19.111265 -0500,
all_stimuli/rtmindeye_stimuli/image_546_seed_1.png,66,0,0,0,1,1,1,"[9, 19, 31, 42, 56, 68, 69, 70, 71]",,,,,1,0,1,0,0,66,66,66,1182.7332224589773,,,,,,,,,,,,,,,,,,,,,,,,,,,,,,,,,,,,,,,,,,1182.7071072091348,1182.7072259173729,1182.7072423342615,1182.7332224589773,1182.7332224589773,1182.7332224589773,1182.7332224589773,1185.722448125016,1185.722448125016,1186.7202640003525,2,0,2.0411966261453927,0.17212379071861506,None,1186.7209242503159,1186.7210010844283,None,1186.7211177092977,1186.7211566669866,None,,,,,,,,,,,,,3,1,0,0,2024-12-13_14h18.09.698,rtmindeye,2024.1.5,None,2024-12-13 14h18.19.111265 -0500,
all_stimuli/rtmindeye_stimuli/image_28_seed_1.png,67,0,0,0,1,1,1,"[9, 19, 31, 42, 56, 68, 69, 70, 71]",,,,,1,0,1,0,0,67,67,67,1186.747997125145,,,,,,,,,,,,,,,,,,,,,,,,,,,,,,,,,,,,,,,,,,1186.7216062922962,1186.7217417922802,1186.7217586673796,1186.747997125145,1186.747997125145,1186.747997125145,1186.747997125145,1189.7519308342598,1189.7519308342598,1190.738390041981,1,1,0.8515501669608057,0.182972458191216,None,1190.738905583974,1190.7389661669731,None,1190.7390606673434,1190.7390928342938,None,,,,,,,,,,,,,3,1,0,0,2024-12-13_14h18.09.698,rtmindeye,2024.1.5,None,2024-12-13 14h18.19.111265 -0500,
blank.jpg,68,1,0,0,1,1,1,"[9, 19, 31, 42, 56, 68, 69, 70, 71]",,,,,1,0,1,0,0,68,68,68,1190.7511927923188,,,,,,,,,,,,,,,,,,,,,,,,,,,,,,,,,,,,,,,,,,1190.7394432500005,1190.7395401252434,1190.739553542342,1190.7511927923188,1190.7511927923188,1190.7511927923188,1190.7511927923188,1193.7522599999793,1193.7522599999793,1194.7361550424248,None,0,,,None,1194.7367364172824,1194.7368597500026,None,1194.736991791986,1194.7370335422456,None,1194.74561533425,1194.74561533425,,,,,,,,,,,3,1,0,0,2024-12-13_14h18.09.698,rtmindeye,2024.1.5,None,2024-12-13 14h18.19.111265 -0500,
blank.jpg,69,1,0,1,1,1,0,"[9, 19, 31, 42, 56, 68, 69, 70, 71]",,,,,1,0,1,0,0,69,69,69,1194.74561533425,,,,,,,,,,,,,,,,,,,,,,,,,,,,,,,,,,,,,,,,,,1194.7375070000999,1194.7376693752594,1194.7376875421032,1194.74561533425,1194.74561533425,1194.74561533425,1194.74561533425,1197.7521554999985,1197.7521554999985,1198.737834500149,None,0,,,None,1198.738362334203,1203.3531257919967,1,1203.3536872500554,1270.0698890420608,equal,,,,,1198.755579334218,1198.755579334218,4.582973042037338,None,1203.3616506671533,1203.3616506671533,66.70518662501127,None,3,1,0,0,2024-12-13_14h18.09.698,rtmindeye,2024.1.5,None,2024-12-13 14h18.19.111265 -0500,
,,,,,,,,,,,,,1,0,1,0,,,,,,,,,,,,,,,,,,,,,,,,,,,,,,,,,,,,,,,,,,,,,,,,,,,,,,,,,,,,,,,,,,,,,,,,,,,,,,,,3,1,0,0,2024-12-13_14h18.09.698,rtmindeye,2024.1.5,None,2024-12-13 14h18.19.111265 -0500,
all_stimuli/rtmindeye_stimuli/image_248_seed_1.png,0,0,0,0,2,1,1,"[9, 19, 29, 39, 49, 59, 68, 69, 70, 71]",,,,,2,0,2,0,0,0,0,0,1270.111269917339,,,,,,,,,,,,,,,,,,,,,,,,,,,,,,,,,,,,,,,,,,1270.0897717922926,1270.0901463753544,1270.0901614171453,1270.111269917339,1270.111269917339,1270.111269917339,1270.111269917339,1273.1054882924072,1273.1054882924072,1274.102104875259,1,1,0.9204383343458176,0.17301491694524884,None,1274.1030437503941,1274.1031103753485,None,1274.103336542379,1274.1033734590746,None,,,,,,,,,,,,,3,1,0,0,2024-12-13_14h18.09.698,rtmindeye,2024.1.5,None,2024-12-13 14h18.19.111265 -0500,
all_stimuli/rtmindeye_stimuli/image_30_seed_1.png,1,0,0,0,2,1,1,"[9, 19, 29, 39, 49, 59, 68, 69, 70, 71]",,,,,2,0,2,0,0,1,1,1,1274.12681045942,,,,,,,,,,,,,,,,,,,,,,,,,,,,,,,,,,,,,,,,,,1274.1038884171285,1274.103994875215,1274.1040082504041,1274.12681045942,1274.12681045942,1274.12681045942,1274.12681045942,1277.122239666991,1277.122239666991,1278.1049365843646,1,1,1.1289383340626955,0.1400897498242557,None,1278.1055162502453,1278.1055793752894,None,1278.1056794594042,1278.10571283428,None,,,,,,,,,,,,,3,1,0,0,2024-12-13_14h18.09.698,rtmindeye,2024.1.5,None,2024-12-13 14h18.19.111265 -0500,
all_stimuli/rtmindeye_stimuli/paired_image_547_1.png,2,0,0,0,2,1,1,"[9, 19, 29, 39, 49, 59, 68, 69, 70, 71]",,,,,2,0,2,0,0,2,2,2,1278.1274762921967,,,,,,,,,,,,,,,,,,,,,,,,,,,,,,,,,,,,,,,,,,1278.1060954593122,1278.1061946670525,1278.1062078750692,1278.1274762921967,1278.1274762921967,1278.1274762921967,1278.1274762921967,1281.1245915000327,1281.1245915000327,1282.118866042234,1,1,0.7083747503347695,0.12702349992468953,None,1282.119381584227,1282.119439500384,None,1282.1195378750563,1282.1195697090589,None,,,,,,,,,,,,,3,1,0,0,2024-12-13_14h18.09.698,rtmindeye,2024.1.5,None,2024-12-13 14h18.19.111265 -0500,
all_stimuli/rtmindeye_stimuli/image_669_seed_1.png,3,0,0,0,2,1,1,"[9, 19, 29, 39, 49, 59, 68, 69, 70, 71]",,,,,2,0,2,0,0,3,3,3,1282.142020250205,,,,,,,,,,,,,,,,,,,,,,,,,,,,,,,,,,,,,,,,,,1282.1199239999987,1282.1200205842033,1282.1200340422802,1282.142020250205,1282.142020250205,1282.142020250205,1282.142020250205,1285.1411119592376,1285.1411119592376,1286.1217387090437,1,1,0.8178285011090338,0.12302695773541927,None,1286.1221509170718,1286.1221964592114,None,1286.1222741249949,1286.1222997503355,None,,,,,,,,,,,,,3,1,0,0,2024-12-13_14h18.09.698,rtmindeye,2024.1.5,None,2024-12-13 14h18.19.111265 -0500,
all_stimuli/rtmindeye_stimuli/image_685_seed_1.png,4,0,0,0,2,1,1,"[9, 19, 29, 39, 49, 59, 68, 69, 70, 71]",,,,,2,0,2,0,0,4,4,4,1286.142856542021,,,,,,,,,,,,,,,,,,,,,,,,,,,,,,,,,,,,,,,,,,1286.1225780840032,1286.1226622923277,1286.1226722090505,1286.142856542021,1286.142856542021,1286.142856542021,1286.142856542021,1289.1542522502132,1289.1542522502132,1290.136832792312,1,1,1.2180038341321051,0.1409307080321014,None,1290.137460959144,1290.1375318341888,None,1290.1376486252993,1290.1376884169877,None,,,,,,,,,,,,,3,1,0,0,2024-12-13_14h18.09.698,rtmindeye,2024.1.5,None,2024-12-13 14h18.19.111265 -0500,
all_stimuli/rtmindeye_stimuli/image_718_seed_1.png,5,0,0,0,2,1,1,"[9, 19, 29, 39, 49, 59, 68, 69, 70, 71]",,,,,2,0,2,0,0,5,5,5,1290.1658947090618,,,,,,,,,,,,,,,,,,,,,,,,,,,,,,,,,,,,,,,,,,1290.1381175001152,1290.1382357091643,1290.1382518340833,1290.1658947090618,1290.1658947090618,1290.1658947090618,1290.1658947090618,1293.1550541673787,1293.1550541673787,1294.1386825842783,1,1,0.8949665841646492,0.16489291610196233,None,1294.1391034591943,1294.1391502092592,None,1294.1392234591767,1294.1392488339916,None,,,,,,,,,,,,,3,1,0,0,2024-12-13_14h18.09.698,rtmindeye,2024.1.5,None,2024-12-13 14h18.19.111265 -0500,
all_stimuli/rtmindeye_stimuli/image_623_seed_1.png,6,0,0,0,2,1,1,"[9, 19, 29, 39, 49, 59, 68, 69, 70, 71]",,,,,2,0,2,0,0,6,6,6,1294.1604745420627,,,,,,,,,,,,,,,,,,,,,,,,,,,,,,,,,,,,,,,,,,1294.1395366671495,1294.139620625414,1294.1396310003474,1294.1604745420627,1294.1604745420627,1294.1604745420627,1294.1604745420627,1297.1684749173,1297.1684749173,1298.1522938753478,1,1,0.769426042214036,0.1258744578808546,None,1298.1526901670732,1298.1527369590476,None,1298.152800584212,1298.1528221252374,None,,,,,,,,,,,,,3,1,0,0,2024-12-13_14h18.09.698,rtmindeye,2024.1.5,None,2024-12-13 14h18.19.111265 -0500,
all_stimuli/rtmindeye_stimuli/image_485_seed_1.png,7,0,0,0,2,1,1,"[9, 19, 29, 39, 49, 59, 68, 69, 70, 71]",,,,,2,0,2,0,0,7,7,7,1298.1712982500903,,,,,,,,,,,,,,,,,,,,,,,,,,,,,,,,,,,,,,,,,,1298.1530831670389,1298.1531997499987,1298.15320850024,1298.1712982500903,1298.1712982500903,1298.1712982500903,1298.1712982500903,1301.1688025840558,1301.1688025840558,1302.1560360002331,1,1,0.9685452920384705,0.15508512500673532,None,1302.1566168339923,1302.156679917127,None,1302.1567786252126,1302.156812292058,None,,,,,,,,,,,,,3,1,0,0,2024-12-13_14h18.09.698,rtmindeye,2024.1.5,None,2024-12-13 14h18.19.111265 -0500,
all_stimuli/rtmindeye_stimuli/image_254_seed_1.png,8,0,0,0,2,1,1,"[9, 19, 29, 39, 49, 59, 68, 69, 70, 71]",,,,,2,0,2,0,0,8,8,8,1302.1806900002994,,,,,,,,,,,,,,,,,,,,,,,,,,,,,,,,,,,,,,,,,,1302.1572230840102,1302.1573256254196,1302.1573390844278,1302.1806900002994,1302.1806900002994,1302.1806900002994,1302.1806900002994,1305.1854354590178,1305.1854354590178,1306.1689754170366,1,1,1.0561465001665056,0.12002583406865597,None,1306.1696420842782,1306.1697167921811,None,1306.1698341253214,1306.1698735002428,None,,,,,,,,,,,,,3,1,0,0,2024-12-13_14h18.09.698,rtmindeye,2024.1.5,None,2024-12-13 14h18.19.111265 -0500,
blank.jpg,9,1,0,0,2,1,1,"[9, 19, 29, 39, 49, 59, 68, 69, 70, 71]",,,,,2,0,2,0,0,9,9,9,1306.1810109592043,,,,,,,,,,,,,,,,,,,,,,,,,,,,,,,,,,,,,,,,,,1306.170322375372,1306.1704565002583,1306.1704726670869,1306.1810109592043,1306.1810109592043,1306.1810109592043,1306.1810109592043,1309.1721631251276,1309.1721631251276,1310.1716546672396,None,0,,,None,1310.1723142093979,1310.1724070422351,None,1310.1725121671334,1310.1725477920845,None,,,,,,,,,,,,,3,1,0,0,2024-12-13_14h18.09.698,rtmindeye,2024.1.5,None,2024-12-13 14h18.19.111265 -0500,
all_stimuli/rtmindeye_stimuli/image_694_seed_1.png,10,0,1,0,2,1,1,"[9, 19, 29, 39, 49, 59, 68, 69, 70, 71]",,,,,2,0,2,0,0,10,10,10,1310.199252750259,,,,,,,,,,,,,,,,,,,,,,,,,,,,,,,,,,,,,,,,,,1310.1729772500694,1310.1731471670792,1310.1731612090953,1310.199252750259,1310.199252750259,1310.199252750259,1310.199252750259,1313.202146709431,1313.202146709431,1314.187371500302,2,1,1.1536823748610914,0.14995829202234745,None,1314.1879912503064,1314.188060917426,None,1314.188176209107,1314.1882154592313,None,,,,,,,,,,,,,3,1,0,0,2024-12-13_14h18.09.698,rtmindeye,2024.1.5,None,2024-12-13 14h18.19.111265 -0500,
all_stimuli/rtmindeye_stimuli/image_317_seed_1.png,11,0,0,0,2,1,1,"[9, 19, 29, 39, 49, 59, 68, 69, 70, 71]",,,,,2,0,2,0,0,11,11,11,1314.21260037506,,,,,,,,,,,,,,,,,,,,,,,,,,,,,,,,,,,,,,,,,,1314.1886548344046,1314.188774459064,1314.1887911250815,1314.21260037506,1314.21260037506,1314.21260037506,1314.21260037506,1317.2186472089961,1317.2186472089961,1318.1895221252926,1,1,0.6873870422132313,0.13689283281564713,None,1318.1901513752528,1318.1902304170653,None,1318.1903512091376,1318.1903904173523,None,,,,,,,,,,,,,3,1,0,0,2024-12-13_14h18.09.698,rtmindeye,2024.1.5,None,2024-12-13 14h18.19.111265 -0500,
all_stimuli/rtmindeye_stimuli/image_670_seed_1.png,12,0,0,0,2,1,1,"[9, 19, 29, 39, 49, 59, 68, 69, 70, 71]",,,,,2,0,2,0,0,12,12,12,1318.213086083997,,,,,,,,,,,,,,,,,,,,,,,,,,,,,,,,,,,,,,,,,,1318.1908263340592,1318.1909560002387,1318.1909724590369,1318.213086083997,1318.213086083997,1318.213086083997,1318.213086083997,1321.2053184174001,1321.2053184174001,1322.2029773751274,1,1,1.0408582496456802,0.13796925032511353,None,1322.2039235420525,1322.2040210003033,None,1322.204144750256,1322.2041907501407,None,,,,,,,,,,,,,3,1,0,0,2024-12-13_14h18.09.698,rtmindeye,2024.1.5,None,2024-12-13 14h18.19.111265 -0500,
