current_image,trial_index,is_blank_trial,thisN,thisTrialN,thisRepN,press_if_repeat_2.keys,press_if_repeat_2.corr,all_keys_pressed_2.keys,is_repeat,is_new_run,run_num,sess_num,is_not_last_trial,all_blanks_list,press_if_repeat.keys,press_if_repeat.corr,press_if_repeat.rt,press_if_repeat.duration,all_keys_pressed.keys,key_resp_5.keys,key_resp_4.keys,all_keys_pressed.rt,all_keys_pressed.duration,key_resp_5.rt,key_resp_5.duration,key_resp_4.rt,key_resp_4.duration,practice.thisRepN,practice.thisTrialN,practice.thisN,practice.thisIndex,loop_runs.thisRepN,loop_runs.thisTrialN,loop_runs.thisN,loop_runs.thisIndex,loop_all_images.thisRepN,loop_all_images.thisTrialN,loop_all_images.thisN,loop_all_images.thisIndex,thisRow.t,notes,set_up.started,set_up.stopped,practice_continue.started,practice_continue.stopped,key_resp_6.keys,practice_trial.started,practice_trial.stopped,practice.press_if_repeat_2.keys,practice.press_if_repeat_2.corr,practice.all_keys_pressed_2.keys,testing_continue.started,testing_continue.stopped,key_resp_7.keys,waiting_fmri.started,key_resp_2.started,text_3.started,waiting_fmri.stopped,key_resp_2.keys,key_resp_2.rt,key_resp_2.duration,set_skips_and_correct_key.started,set_skips_and_correct_key.stopped,trial.started,image.started,press_if_repeat.started,polygon.started,all_keys_pressed.started,image.stopped,press_if_repeat.stopped,trial.stopped,loop_all_images.press_if_repeat.keys,loop_all_images.press_if_repeat.corr,loop_all_images.press_if_repeat.rt,loop_all_images.press_if_repeat.duration,loop_all_images.all_keys_pressed.keys,run_wait2_2.started,run_wait2_2.stopped,loop_all_images.key_resp_5.keys,waiting_fmri_2.started,waiting_fmri_2.stopped,loop_all_images.key_resp_4.keys,loop_all_images.all_keys_pressed.rt,loop_all_images.all_keys_pressed.duration,key_resp_5.started,text_5.started,loop_all_images.key_resp_5.rt,loop_all_images.key_resp_5.duration,key_resp_4.started,text_4.started,loop_all_images.key_resp_4.rt,loop_all_images.key_resp_4.duration,participant,session (1 2 or 3),starting_run,skip_practice,date,expName,psychopyVersion,frameRate,expStart,
,,,,,,,,,,,,,,,,,,,,,,,,,,,,,,,,,,,,,,,,,,0.0031999999919207767,0.0032805419905344024,,,,,,,,,,,,,,,,,,,,,,,,,,,,,,,,,,,,,,,,,,,,,,,,,,4,7,0,1,2025-02-06_13h39.58.023,rtmindeye,2024.2.4,None,2025-02-06 13h40.14.696244 -0500,
,,,,,,,,,,,,,,,,,,,,,,,,,,,,,,,,,,,,,,,,,,,,0.008859291992848739,0.008878499997081235,None,,,,,,,,,,,,,,,,,,,,,,,,,,,,,,,,,,,,,,,,,,,,,,,4,7,0,1,2025-02-06_13h39.58.023,rtmindeye,2024.2.4,None,2025-02-06 13h40.14.696244 -0500,
practice_images/w_kitchen2.jpg,0,0,0,0,0,None,0,None,,,,,,,,,,,,,,,,,,,,0,0,0,0,,,,,,,,,1.1882118329958757,,,,,,,0.21891945799870882,0.21900845799245872,None,0,None,,,,,,,,,,,,,,,,,,,,,,,,,,,,,,,,,,,,,,,,,,4,7,0,1,2025-02-06_13h39.58.023,rtmindeye,2024.2.4,None,2025-02-06 13h40.14.696244 -0500,
practice_images/w_boardwalk2.jpg,1,0,1,1,0,None,0,None,,,,,,,,,,,,,,,,,,,,0,1,1,1,,,,,,,,,1.1882118329958757,,,,,,,0.34916354199231137,0.349352541990811,None,0,None,,,,,,,,,,,,,,,,,,,,,,,,,,,,,,,,,,,,,,,,,,4,7,0,1,2025-02-06_13h39.58.023,rtmindeye,2024.2.4,None,2025-02-06 13h40.14.696244 -0500,
practice_images/w_monument2.jpg,2,0,2,2,0,None,0,None,,,,,,,,,,,,,,,,,,,,0,2,2,2,,,,,,,,,1.1882118329958757,,,,,,,0.4524405419942923,0.45253774999582674,None,0,None,,,,,,,,,,,,,,,,,,,,,,,,,,,,,,,,,,,,,,,,,,4,7,0,1,2025-02-06_13h39.58.023,rtmindeye,2024.2.4,None,2025-02-06 13h40.14.696244 -0500,
practice_images/w_auditorium2.jpg,3,0,3,3,0,None,0,None,,,,,,,,,,,,,,,,,,,,0,3,3,3,,,,,,,,,1.1882118329958757,,,,,,,0.5880801669991342,0.5881917079968844,None,0,None,,,,,,,,,,,,,,,,,,,,,,,,,,,,,,,,,,,,,,,,,,4,7,0,1,2025-02-06_13h39.58.023,rtmindeye,2024.2.4,None,2025-02-06 13h40.14.696244 -0500,
practice_images/w_kitchen2.jpg,4,0,4,4,0,None,0,None,,,,,,,,,,,,,,,,,,,,0,4,4,4,,,,,,,,,1.1882118329958757,,,,,,,0.6256574579892913,0.6257473749865312,None,0,None,,,,,,,,,,,,,,,,,,,,,,,,,,,,,,,,,,,,,,,,,,4,7,0,1,2025-02-06_13h39.58.023,rtmindeye,2024.2.4,None,2025-02-06 13h40.14.696244 -0500,
practice_images/w_auditorium1.jpg,5,0,5,5,0,None,0,None,,,,,,,,,,,,,,,,,,,,0,5,5,5,,,,,,,,,1.1882118329958757,,,,,,,0.754949874986778,0.755104666997795,None,0,None,,,,,,,,,,,,,,,,,,,,,,,,,,,,,,,,,,,,,,,,,,4,7,0,1,2025-02-06_13h39.58.023,rtmindeye,2024.2.4,None,2025-02-06 13h40.14.696244 -0500,
practice_images/w_bedroom2.jpg,6,0,6,6,0,None,0,None,,,,,,,,,,,,,,,,,,,,0,6,6,6,,,,,,,,,1.1882118329958757,,,,,,,0.8605027919984423,0.8606463329924736,None,0,None,,,,,,,,,,,,,,,,,,,,,,,,,,,,,,,,,,,,,,,,,,4,7,0,1,2025-02-06_13h39.58.023,rtmindeye,2024.2.4,None,2025-02-06 13h40.14.696244 -0500,
practice_images/w_kitchen1.jpg,7,0,7,7,0,None,0,None,,,,,,,,,,,,,,,,,,,,0,7,7,7,,,,,,,,,1.1882118329958757,,,,,,,0.9921527080005035,0.9922832499869401,None,0,None,,,,,,,,,,,,,,,,,,,,,,,,,,,,,,,,,,,,,,,,,,4,7,0,1,2025-02-06_13h39.58.023,rtmindeye,2024.2.4,None,2025-02-06 13h40.14.696244 -0500,
practice_images/w_bedroom1.jpg,8,0,8,8,0,None,0,None,,,,,,,,,,,,,,,,,,,,0,8,8,8,,,,,,,,,1.1882118329958757,,,,,,,1.1060829579946585,1.1061875829909695,None,0,None,,,,,,,,,,,,,,,,,,,,,,,,,,,,,,,,,,,,,,,,,,4,7,0,1,2025-02-06_13h39.58.023,rtmindeye,2024.2.4,None,2025-02-06 13h40.14.696244 -0500,
practice_images/w_monument2.jpg,9,0,9,9,0,None,0,None,,,,,,,,,,,,,,,,,,,,0,9,9,9,,,,,,,,,1.1882118329958757,,,,,,,1.1646049579867395,1.1647477079968667,None,0,None,,,,,,,,,,,,,,,,,,,,,,,,,,,,,,,,,,,,,,,,,,4,7,0,1,2025-02-06_13h39.58.023,rtmindeye,2024.2.4,None,2025-02-06 13h40.14.696244 -0500,
,,,,,,,,,,,,,,,,,,,,,,,,,,,,,,,,,,,,,,,,,,,,,,,,,,,,1.1807564999908209,1.1808030419924762,None,,,,,,,,,,,,,,,,,,,,,,,,,,,,,,,,,,,,,,,4,7,0,1,2025-02-06_13h39.58.023,rtmindeye,2024.2.4,None,2025-02-06 13h40.14.696244 -0500,
,,,,,,,,,,,,,,,,,,,,,,,,,,,,,,,,,,,,,,,,,,,,,,,,,,,,,,,1.1808432079997147,1.1882118329958757,1.1882118329958757,116.80477112499648,equal,115.50096166599542,None,,,,,,,,,,,,,,,,,,,,,,,,,,,,,,,,4,7,0,1,2025-02-06_13h39.58.023,rtmindeye,2024.2.4,None,2025-02-06 13h40.14.696244 -0500,
all_stimuli/special515/special_13613.jpg,0,0,0,0,0,,,,0,0,0,7,1,"[9, 21, 31, 45, 56, 68, 69]",1,1,2.011237415994401,0.534006000001682,None,None,None,,,,,,,,,,,0,0,0,0,0,0,0,0,117.08790808299091,,,,,,,,,,,,,,,,,,,,,,116.93158154199773,116.93163858298794,117.07711337499495,117.08790808299091,117.08790808299091,117.08790808299091,117.08790808299091,120.0763198749919,120.0763198749919,120.93899029199383,1,1,2.011237415994401,0.534006000001682,None,120.93920191698999,120.93928729199979,None,120.93943416699767,120.93951887499134,None,,,,,,,,,,,4,7,0,1,2025-02-06_13h39.58.023,rtmindeye,2024.2.4,None,2025-02-06 13h40.14.696244 -0500,
all_stimuli/shared1000_notspecial/notspecial_31049.png,1,0,1,1,0,,,,0,0,0,7,1,"[9, 21, 31, 45, 56, 68, 69]",1,1,0.9451051250071032,0.7159727499965811,None,None,None,,,,,,,,,,,0,0,0,0,0,1,1,1,121.13799183299125,,,,,,,,,,,,,,,,,,,,,,120.94012858299538,120.94033433299046,121.13452029199107,121.13799183299125,121.13799183299125,121.13799183299125,121.13799183299125,124.12650733299961,124.12650733299961,124.9438505829894,1,1,0.9451051250071032,0.7159727499965811,None,124.94401324998762,124.94406058298773,None,124.9441129170009,124.94415345799644,None,,,,,,,,,,,4,7,0,1,2025-02-06_13h39.58.023,rtmindeye,2024.2.4,None,2025-02-06 13h40.14.696244 -0500,
all_stimuli/special515/special_28096.jpg,2,0,2,2,0,,,,0,0,0,7,1,"[9, 21, 31, 45, 56, 68, 69]",1,1,0.948078750006971,0.7070152079977561,None,None,None,,,,,,,,,,,0,0,0,0,0,2,2,2,125.34904604199983,,,,,,,,,,,,,,,,,,,,,,124.94458495799336,124.94474337498832,125.34625645799679,125.34904604199983,125.34904604199983,125.34904604199983,125.34904604199983,128.34319008298917,128.34319008298917,128.95563083299203,1,1,0.948078750006971,0.7070152079977561,None,128.95590170798823,128.955993999989,None,128.95609241699276,128.95618429199385,None,,,,,,,,,,,4,7,0,1,2025-02-06_13h39.58.023,rtmindeye,2024.2.4,None,2025-02-06 13h40.14.696244 -0500,
all_stimuli/shared1000_notspecial/notspecial_68471.png,3,0,3,3,0,,,,0,0,0,7,1,"[9, 21, 31, 45, 56, 68, 69]",1,1,0.7151884159975452,0.4000053750060033,None,None,None,,,,,,,,,,,0,0,0,0,0,3,3,3,129.15196899999864,,,,,,,,,,,,,,,,,,,,,,128.95685770799173,128.95701308299613,129.14703437499702,129.15196899999864,129.15196899999864,129.15196899999864,129.15196899999864,132.14297866699053,132.14297866699053,132.95914562499092,1,1,0.7151884159975452,0.4000053750060033,None,132.95932383299805,132.9593759579875,None,132.95942887499405,132.95947520798654,None,,,,,,,,,,,4,7,0,1,2025-02-06_13h39.58.023,rtmindeye,2024.2.4,None,2025-02-06 13h40.14.696244 -0500,
all_stimuli/special515/special_15506.jpg,4,0,4,4,0,,,,0,0,0,7,1,"[9, 21, 31, 45, 56, 68, 69]",1,1,0.6323440410051262,0.5839997080038302,None,None,None,,,,,,,,,,,0,0,0,0,0,4,4,4,133.07581141698756,,,,,,,,,,,,,,,,,,,,,,132.95988974999636,132.96005208299903,133.07239841698902,133.07581141698756,133.07581141698756,133.07581141698756,133.07581141698756,136.0726187919936,136.0726187919936,136.97234704199946,1,1,0.6323440410051262,0.5839997080038302,None,136.97252104200015,136.97257324999373,None,136.97263795799518,136.97268579198862,None,,,,,,,,,,,4,7,0,1,2025-02-06_13h39.58.023,rtmindeye,2024.2.4,None,2025-02-06 13h40.14.696244 -0500,
all_stimuli/MST_pairs1/pair_24_nsd_158_1_cocoid_2285.png,5,0,5,5,0,,,,0,0,0,7,1,"[9, 21, 31, 45, 56, 68, 69]",1,1,0.7463065409974661,0.8350656669936143,None,None,None,,,,,,,,,,,0,0,0,0,0,5,5,5,137.25287516698882,,,,,,,,,,,,,,,,,,,,,,136.97313116698933,136.97330024999974,137.25084908299323,137.25287516698882,137.25287516698882,137.25287516698882,137.25287516698882,140.24304224998923,140.24304224998923,140.97613512499083,1,1,0.7463065409974661,0.8350656669936143,None,140.9762933329912,140.9763372499874,None,140.97638562499196,140.97642220799753,None,,,,,,,,,,,4,7,0,1,2025-02-06_13h39.58.023,rtmindeye,2024.2.4,None,2025-02-06 13h40.14.696244 -0500,
all_stimuli/MST_pairs1/pair_10_14_89.png,6,0,6,6,0,,,,0,0,0,7,1,"[9, 21, 31, 45, 56, 68, 69]",1,1,0.549965375001193,0.45596233299875166,None,None,None,,,,,,,,,,,0,0,0,0,0,6,6,6,141.15522429200064,,,,,,,,,,,,,,,,,,,,,,140.97678637498757,140.9769388329878,141.15166350000072,141.15522429200064,141.15522429200064,141.15522429200064,141.15522429200064,144.1417221249867,144.1417221249867,144.98938279198774,1,1,0.549965375001193,0.45596233299875166,None,144.989662707987,144.9897810830007,None,144.98996154199995,144.99007633299334,None,,,,,,,,,,,4,7,0,1,2025-02-06_13h39.58.023,rtmindeye,2024.2.4,None,2025-02-06 13h40.14.696244 -0500,
all_stimuli/special515/special_62015.jpg,7,0,7,7,0,,,,0,0,0,7,1,"[9, 21, 31, 45, 56, 68, 69]",1,1,0.6846304159989813,1.1120314590079943,None,None,None,,,,,,,,,,,0,0,0,0,0,7,7,7,145.12145658298687,,,,,,,,,,,,,,,,,,,,,,144.99083349999273,144.99115491699195,145.11797449999722,145.12145658298687,145.12145658298687,145.12145658298687,145.12145658298687,148.10954449999554,148.10954449999554,148.99211300000024,1,1,0.6846304159989813,1.1120314590079943,None,148.99226816699957,148.99231070799578,None,148.99236787499103,148.99240345798898,None,,,,,,,,,,,4,7,0,1,2025-02-06_13h39.58.023,rtmindeye,2024.2.4,None,2025-02-06 13h40.14.696244 -0500,
all_stimuli/special515/special_47687.jpg,8,0,8,8,0,,,,0,0,0,7,1,"[9, 21, 31, 45, 56, 68, 69]",1,1,0.8079183319932781,1.1679926670040004,None,None,None,,,,,,,,,,,0,0,0,0,0,8,8,8,149.1931912919972,,,,,,,,,,,,,,,,,,,,,,148.99278187500022,148.99293608299922,149.1895731669938,149.1931912919972,149.1931912919972,149.1931912919972,149.1931912919972,152.1930511249957,152.1930511249957,153.00611616698734,1,1,0.8079183319932781,1.1679926670040004,None,153.00645854198956,153.00664870798937,None,153.00676420799573,153.0068464579963,None,,,,,,,,,,,4,7,0,1,2025-02-06_13h39.58.023,rtmindeye,2024.2.4,None,2025-02-06 13h40.14.696244 -0500,
blank.jpg,9,1,9,9,0,,,,0,0,0,7,1,"[9, 21, 31, 45, 56, 68, 69]",None,0,,,None,None,None,,,,,,,,,,,0,0,0,0,0,9,9,9,153.07940716699522,,,,,,,,,,,,,,,,,,,,,,153.0076004579896,153.0078147919994,153.07592833299714,153.07940716699522,153.07940716699522,153.07940716699522,153.07940716699522,156.07548999998835,156.07548999998835,157.0084665829927,None,0,,,None,157.0086291669868,157.00867945799837,None,157.00874237499374,157.00878512499912,None,,,,,,,,,,,4,7,0,1,2025-02-06_13h39.58.023,rtmindeye,2024.2.4,None,2025-02-06 13h40.14.696244 -0500,
all_stimuli/special515/special_4249.jpg,10,0,10,10,0,,,,0,0,0,7,1,"[9, 21, 31, 45, 56, 68, 69]",1,1,0.7808178329869406,0.5160388330114074,None,None,None,,,,,,,,,,,0,0,0,0,0,10,10,10,157.48530758298875,,,,,,,,,,,,,,,,,,,,,,157.00919262498792,157.00935116699839,157.48182037498918,157.48530758298875,157.48530758298875,157.48530758298875,157.48530758298875,160.47674295799516,160.47674295799516,161.0107754169876,1,1,0.7808178329869406,0.5160388330114074,None,161.01096874999348,161.01102245799848,None,161.01108974999806,161.01113112499297,None,,,,,,,,,,,4,7,0,1,2025-02-06_13h39.58.023,rtmindeye,2024.2.4,None,2025-02-06 13h40.14.696244 -0500,
all_stimuli/special515/special_54361.jpg,11,0,11,11,0,,,,0,0,0,7,1,"[9, 21, 31, 45, 56, 68, 69]",1,1,0.7380535410047742,0.803003124994575,None,None,None,,,,,,,,,,,0,0,0,0,0,11,11,11,161.12713829199492,,,,,,,,,,,,,,,,,,,,,,161.01156966699637,161.01173708299757,161.12461295799585,161.12713829199492,161.12713829199492,161.12713829199492,161.12713829199492,164.12226624999312,164.12226624999312,165.02291845799482,1,1,0.7380535410047742,0.803003124994575,None,165.02335174998734,165.02346141698945,None,165.02356762498675,165.0236499169987,None,,,,,,,,,,,4,7,0,1,2025-02-06_13h39.58.023,rtmindeye,2024.2.4,None,2025-02-06 13h40.14.696244 -0500,
all_stimuli/special515/special_6489.jpg,12,0,12,12,0,,,,0,0,0,7,1,"[9, 21, 31, 45, 56, 68, 69]",1,1,1.2892601240018848,0.6349882089998573,None,None,None,,,,,,,,,,,0,0,0,0,0,12,12,12,165.15687437499582,,,,,,,,,,,,,,,,,,,,,,165.0244589169888,165.02475499999127,165.15329387498787,165.15687437499582,165.15687437499582,165.15687437499582,165.15687437499582,168.15585029199428,168.15585029199428,169.0262114169891,1,1,1.2892601240018848,0.6349882089998573,None,169.02642470799037,169.02649145798932,None,169.0265614999953,169.02661670799716,None,,,,,,,,,,,4,7,0,1,2025-02-06_13h39.58.023,rtmindeye,2024.2.4,None,2025-02-06 13h40.14.696244 -0500,
all_stimuli/special515/special_38641.jpg,13,0,13,13,0,,,,0,0,0,7,1,"[9, 21, 31, 45, 56, 68, 69]",1,1,0.7912236659904011,0.5390046250104206,None,None,None,,,,,,,,,,,0,0,0,0,0,13,13,13,169.55191312498937,,,,,,,,,,,,,,,,,,,,,,169.02717924999888,169.02737704198807,169.54817491699941,169.55191312498937,169.55191312498937,169.55191312498937,169.55191312498937,172.5443693749985,172.5443693749985,173.0395675829932,1,1,0.7912236659904011,0.5390046250104206,None,173.0397492919874,173.03980249998858,None,173.03989145800006,173.04000291699776,None,,,,,,,,,,,4,7,0,1,2025-02-06_13h39.58.023,rtmindeye,2024.2.4,None,2025-02-06 13h40.14.696244 -0500,
all_stimuli/shared1000_notspecial/notspecial_67168.png,14,0,14,14,0,,,,0,0,0,7,1,"[9, 21, 31, 45, 56, 68, 69]",1,1,0.7491719159879722,1.8609184580127476,None,None,None,,,,,,,,,,,0,0,0,0,0,14,14,14,173.25203016698651,,,,,,,,,,,,,,,,,,,,,,173.04050004199962,173.040687582994,173.24646883299283,173.25203016698651,173.25203016698651,173.25203016698651,173.25203016698651,176.24369058299635,176.24369058299635,177.04378654199536,1,1,0.7491719159879722,1.8609184580127476,None,177.04396120799356,177.04401137499372,None,177.0440771249996,177.04411845799768,None,,,,,,,,,,,4,7,0,1,2025-02-06_13h39.58.023,rtmindeye,2024.2.4,None,2025-02-06 13h40.14.696244 -0500,
all_stimuli/shared1000_notspecial/notspecial_59079.png,15,0,15,15,0,,,,0,0,0,7,1,"[9, 21, 31, 45, 56, 68, 69]",1,1,0.7872402909997618,None,None,None,None,,,,,,,,,,,0,0,0,0,0,15,15,15,177.20101183299266,,,,,,,,,,,,,,,,,,,,,,177.04453579199617,177.04477624999708,177.19726554199588,177.20101183299266,177.20101183299266,177.20101183299266,177.20101183299266,180.1939849999908,180.1939849999908,181.05666199998814,1,1,0.7872402909997618,None,None,181.05692362498667,181.0569933749939,None,181.05707629199605,181.0571209169866,None,,,,,,,,,,,4,7,0,1,2025-02-06_13h39.58.023,rtmindeye,2024.2.4,None,2025-02-06 13h40.14.696244 -0500,
all_stimuli/MST_pairs1/pair_2_4_89.png,16,0,16,16,0,,,,0,0,0,7,1,"[9, 21, 31, 45, 56, 68, 69]",1,1,0.8810797909973189,1.4700584579986753,None,None,None,,,,,,,,,,,0,0,0,0,0,16,16,16,181.29815829198924,,,,,,,,,,,,,,,,,,,,,,181.0576214169996,181.05781679198844,181.2943618749996,181.29815829198924,181.29815829198924,181.29815829198924,181.29815829198924,184.29314424999757,184.29314424999757,185.06033491699782,1,1,0.8810797909973189,1.4700584579986753,None,185.06051329198817,185.06055795800057,None,185.06060808298935,185.06065204199695,None,,,,,,,,,,,4,7,0,1,2025-02-06_13h39.58.023,rtmindeye,2024.2.4,None,2025-02-06 13h40.14.696244 -0500,
all_stimuli/shared1000_notspecial/notspecial_26127.png,17,0,17,17,0,,,,0,0,0,7,1,"[9, 21, 31, 45, 56, 68, 69]",1,1,0.6285904579999624,1.9810517500009155,None,None,None,,,,,,,,,,,0,0,0,0,0,17,17,17,185.2445385829924,,,,,,,,,,,,,,,,,,,,,,185.0610931669944,185.06136095798865,185.2388004999957,185.2445385829924,185.2445385829924,185.2445385829924,185.2445385829924,188.24294924999413,188.24294924999413,189.07313495798735,1,1,0.6285904579999624,1.9810517500009155,None,189.07332991699514,189.07338316699315,None,189.07349545799661,189.0735516249988,None,,,,,,,,,,,4,7,0,1,2025-02-06_13h39.58.023,rtmindeye,2024.2.4,None,2025-02-06 13h40.14.696244 -0500,
all_stimuli/shared1000_notspecial/notspecial_20223.png,18,0,18,18,0,,,,0,0,0,7,1,"[9, 21, 31, 45, 56, 68, 69]",1,1,0.8215358739980729,0.8870026669901563,None,None,None,,,,,,,,,,,0,0,0,0,0,18,18,18,189.23075729199627,,,,,,,,,,,,,,,,,,,,,,189.07407224999042,189.0742605419946,189.2272065829893,189.23075729199627,189.23075729199627,189.23075729199627,189.23075729199627,192.2272687079967,192.2272687079967,193.0766305829893,1,1,0.8215358739980729,0.8870026669901563,None,193.0768173749966,193.07687454199186,None,193.076929457995,193.0769688750006,None,,,,,,,,,,,4,7,0,1,2025-02-06_13h39.58.023,rtmindeye,2024.2.4,None,2025-02-06 13h40.14.696244 -0500,
all_stimuli/special515/special_62015.jpg,19,0,19,19,0,,,,1,0,0,7,1,"[9, 21, 31, 45, 56, 68, 69]",2,1,0.8489344990084646,1.187988541991217,None,None,None,,,,,,,,,,,0,0,0,0,0,19,19,19,193.18231758299225,,,,,,,,,,,,,,,,,,,,,,193.07743183299317,193.0776683749864,193.177663208,193.18231758299225,193.18231758299225,193.18231758299225,193.18231758299225,196.1902545419871,196.1902545419871,197.08995287498692,2,1,0.8489344990084646,1.187988541991217,None,197.09021079199738,197.09027512499597,None,197.09033708299103,197.09037779198843,None,,,,,,,,,,,4,7,0,1,2025-02-06_13h39.58.023,rtmindeye,2024.2.4,None,2025-02-06 13h40.14.696244 -0500,
all_stimuli/special515/special_10244.jpg,20,0,20,20,0,,,,0,0,0,7,1,"[9, 21, 31, 45, 56, 68, 69]",1,1,1.3936052909994032,1.3579833330004476,None,None,None,,,,,,,,,,,0,0,0,0,0,20,20,20,197.24868499999866,,,,,,,,,,,,,,,,,,,,,,197.09084162498766,197.09112037500017,197.24450391699793,197.24868499999866,197.24868499999866,197.24868499999866,197.24868499999866,200.24342975000036,200.24342975000036,201.09298149999813,1,1,1.3936052909994032,1.3579833330004476,None,201.09317979199113,201.0932359169965,None,201.09328654198907,201.09332558298775,None,,,,,,,,,,,4,7,0,1,2025-02-06_13h39.58.023,rtmindeye,2024.2.4,None,2025-02-06 13h40.14.696244 -0500,
blank.jpg,21,1,21,21,0,,,,0,0,0,7,1,"[9, 21, 31, 45, 56, 68, 69]",None,0,,,None,None,None,,,,,,,,,,,0,0,0,0,0,21,21,21,201.19014824999613,,,,,,,,,,,,,,,,,,,,,,201.09377691699774,201.09398183299345,201.18464270798722,201.19014824999613,201.19014824999613,201.19014824999613,201.19014824999613,204.17685304199404,204.17685304199404,205.10641795799893,None,0,,,None,205.10660837499017,205.1066669169959,None,205.10673070799385,205.10678595799254,None,,,,,,,,,,,4,7,0,1,2025-02-06_13h39.58.023,rtmindeye,2024.2.4,None,2025-02-06 13h40.14.696244 -0500,
all_stimuli/special515/special_28524.jpg,22,0,22,22,0,,,,0,0,0,7,1,"[9, 21, 31, 45, 56, 68, 69]",1,1,1.0169212490000064,1.8360333750024438,None,None,None,,,,,,,,,,,0,0,0,0,0,22,22,22,205.32232999999542,,,,,,,,,,,,,,,,,,,,,,205.10734033299377,205.10755012498703,205.31870624999283,205.32232999999542,205.32232999999542,205.32232999999542,205.32232999999542,208.31072791699262,208.31072791699262,209.1108745419915,1,1,1.0169212490000064,1.8360333750024438,None,209.1110342920001,209.11107729199284,None,209.11112570799014,209.11115824998706,None,,,,,,,,,,,4,7,0,1,2025-02-06_13h39.58.023,rtmindeye,2024.2.4,None,2025-02-06 13h40.14.696244 -0500,
all_stimuli/special515/special_30430.jpg,23,0,23,23,0,,,,0,0,0,7,1,"[9, 21, 31, 45, 56, 68, 69]",1,1,1.4323296660004416,None,None,None,None,,,,,,,,,,,0,0,0,0,0,23,23,23,209.30682949999755,,,,,,,,,,,,,,,,,,,,,,209.11151591700036,209.1116970419971,209.30132170800061,209.30682949999755,209.30682949999755,209.30682949999755,209.30682949999755,212.30679395799234,212.30679395799234,213.12417537499277,1,1,1.4323296660004416,None,None,213.12458041698847,213.12468391699076,None,213.1247988749965,213.12488166699768,None,,,,,,,,,,,4,7,0,1,2025-02-06_13h39.58.023,rtmindeye,2024.2.4,None,2025-02-06 13h40.14.696244 -0500,
all_stimuli/MST_pairs1/pair_10_14_33.png,24,0,24,24,0,,,,0,0,0,7,1,"[9, 21, 31, 45, 56, 68, 69]",1,1,1.4846036239905516,1.3709831250016578,None,None,None,,,,,,,,,,,0,0,0,0,0,24,24,24,214.121599332997,,,,,,,,,,,,,,,,,,,,,,213.12580245798745,213.1262625829986,214.11562570800015,214.121599332997,214.121599332997,214.121599332997,214.121599332997,217.10997662499722,217.10997662499722,217.1269557919877,1,1,1.4846036239905516,1.3709831250016578,None,217.12708004198794,217.12711566699727,None,217.12715633299376,217.12718608298746,None,,,,,,,,,,,4,7,0,1,2025-02-06_13h39.58.023,rtmindeye,2024.2.4,None,2025-02-06 13h40.14.696244 -0500,
all_stimuli/shared1000_notspecial/notspecial_10907.png,25,0,25,25,0,,,,0,0,0,7,1,"[9, 21, 31, 45, 56, 68, 69]",1,1,0.9566161659895442,1.001985709008295,None,None,None,,,,,,,,,,,0,0,0,0,0,25,25,25,217.3027038750006,,,,,,,,,,,,,,,,,,,,,,217.12751083298645,217.1276164999872,217.2985016249877,217.3027038750006,217.3027038750006,217.3027038750006,217.3027038750006,220.29483162499673,220.29483162499673,221.1399168749922,1,1,0.9566161659895442,1.001985709008295,None,221.14024495799094,221.1403087919898,None,221.14037524999003,221.14042220798729,None,,,,,,,,,,,4,7,0,1,2025-02-06_13h39.58.023,rtmindeye,2024.2.4,None,2025-02-06 13h40.14.696244 -0500,
all_stimuli/special515/special_22587.jpg,26,0,26,26,0,,,,0,0,0,7,1,"[9, 21, 31, 45, 56, 68, 69]",None,0,,,['1'],None,None,[1.091095875002793],[1.3270215829979861],,,,,,,,,0,0,0,0,0,26,26,26,221.4321562499972,,,,,,,,,,,,,,,,,,,,,,221.1409745419951,221.1413341669977,221.42815004198928,221.4321562499972,221.4321562499972,221.4321562499972,221.4321562499972,224.4282617919962,224.4282617919962,225.14426479199028,None,0,,,['1'],225.1445364169922,225.1445867500006,None,225.14464141699136,225.1446867499908,None,[1.091095875002793],[1.3270215829979861],,,,,,,,,4,7,0,1,2025-02-06_13h39.58.023,rtmindeye,2024.2.4,None,2025-02-06 13h40.14.696244 -0500,
all_stimuli/special515/special_3687.jpg,27,0,27,27,0,,,,0,0,0,7,1,"[9, 21, 31, 45, 56, 68, 69]",1,1,0.8398465829959605,1.1760519579984248,None,None,None,,,,,,,,,,,0,0,0,0,0,27,27,27,225.2993425829918,,,,,,,,,,,,,,,,,,,,,,225.14514454199525,225.14534287499555,225.29363658299553,225.2993425829918,225.2993425829918,225.2993425829918,225.2993425829918,228.2938641669898,228.2938641669898,229.15652470799978,1,1,0.8398465829959605,1.1760519579984248,None,229.1567583750002,229.15686124999775,None,229.15694608299236,229.1570012919983,None,,,,,,,,,,,4,7,0,1,2025-02-06_13h39.58.023,rtmindeye,2024.2.4,None,2025-02-06 13h40.14.696244 -0500,
all_stimuli/shared1000_notspecial/notspecial_58164.png,28,0,28,28,0,,,,0,0,0,7,1,"[9, 21, 31, 45, 56, 68, 69]",1,1,1.262712083000224,1.4550821660086513,None,None,None,,,,,,,,,,,0,0,0,0,0,28,28,28,229.31857199998922,,,,,,,,,,,,,,,,,,,,,,229.15757174999453,229.15777829199214,229.3148963329877,229.31857199998922,229.31857199998922,229.31857199998922,229.31857199998922,232.31022041699907,232.31022041699907,233.16132341699267,1,1,1.262712083000224,1.4550821660086513,None,233.1614965419867,233.1615409579972,None,233.16158679198998,233.1616243749886,None,,,,,,,,,,,4,7,0,1,2025-02-06_13h39.58.023,rtmindeye,2024.2.4,None,2025-02-06 13h40.14.696244 -0500,
all_stimuli/special515/special_38494.jpg,29,0,29,29,0,,,,0,0,0,7,1,"[9, 21, 31, 45, 56, 68, 69]",1,1,0.9867327910033055,1.5040371249924647,None,None,None,,,,,,,,,,,0,0,0,0,0,29,29,29,233.29052929198951,,,,,,,,,,,,,,,,,,,,,,233.16200804199616,233.1621775419917,233.28682654199656,233.29052929198951,233.29052929198951,233.29052929198951,233.29052929198951,236.27652624998882,236.27652624998882,237.17307379200065,1,1,0.9867327910033055,1.5040371249924647,None,237.17327579199628,237.17333137498645,None,237.17340570798842,237.1734491249954,None,,,,,,,,,,,4,7,0,1,2025-02-06_13h39.58.023,rtmindeye,2024.2.4,None,2025-02-06 13h40.14.696244 -0500,
all_stimuli/MST_pairs1/pair_12_16_22.png,30,0,30,30,0,,,,0,0,0,7,1,"[9, 21, 31, 45, 56, 68, 69]",1,1,0.9841608330025338,0.9369192909944104,None,None,None,,,,,,,,,,,0,0,0,0,0,30,30,30,237.36920141699375,,,,,,,,,,,,,,,,,,,,,,237.1739668329974,237.17415649999748,237.3654128749913,237.36920141699375,237.36920141699375,237.36920141699375,237.36920141699375,240.35983654198935,240.35983654198935,241.1763607920002,1,1,0.9841608330025338,0.9369192909944104,None,241.17654024998774,241.17659245799587,None,241.17665083298925,241.17669208299776,None,,,,,,,,,,,4,7,0,1,2025-02-06_13h39.58.023,rtmindeye,2024.2.4,None,2025-02-06 13h40.14.696244 -0500,
blank.jpg,31,1,31,31,0,,,,0,0,0,7,1,"[9, 21, 31, 45, 56, 68, 69]",None,0,,,None,None,None,,,,,,,,,,,0,0,0,0,0,31,31,31,241.26845999999205,,,,,,,,,,,,,,,,,,,,,,241.17709824998747,241.1772709999932,241.26486695799395,241.26845999999205,241.26845999999205,241.26845999999205,241.26845999999205,244.2601499579905,244.2601499579905,245.1895670419908,None,0,,,None,245.1898076669895,245.18997170799412,None,245.1901882079983,245.1902952919918,None,,,,,,,,,,,4,7,0,1,2025-02-06_13h39.58.023,rtmindeye,2024.2.4,None,2025-02-06 13h40.14.696244 -0500,
all_stimuli/special515/special_66489.jpg,32,0,32,32,0,,,,0,0,0,7,1,"[9, 21, 31, 45, 56, 68, 69]",1,1,1.1726193740032613,0.8550092920049792,None,None,None,,,,,,,,,,,0,0,0,0,0,32,32,32,245.3726972919976,,,,,,,,,,,,,,,,,,,,,,245.19102795798972,245.19133808299375,245.36938404198736,245.3726972919976,245.3726972919976,245.3726972919976,245.3726972919976,248.3590985829942,248.3590985829942,249.19362262499635,1,1,1.1726193740032613,0.8550092920049792,None,249.19379395799479,249.19384254199394,None,249.1939052499947,249.19394620798994,None,,,,,,,,,,,4,7,0,1,2025-02-06_13h39.58.023,rtmindeye,2024.2.4,None,2025-02-06 13h40.14.696244 -0500,
all_stimuli/MST_pairs1/pair_28_nsd_547_1_cocoid_60932.png,33,0,33,33,0,,,,0,0,0,7,1,"[9, 21, 31, 45, 56, 68, 69]",1,1,1.2391808739921544,1.3940417090052506,None,None,None,,,,,,,,,,,0,0,0,0,0,33,33,33,249.5531489999994,,,,,,,,,,,,,,,,,,,,,,249.1943469169928,249.19452033299603,249.55105562499375,249.5531489999994,249.5531489999994,249.5531489999994,249.5531489999994,252.54431029199623,252.54431029199623,253.20586899999762,1,1,1.2391808739921544,1.3940417090052506,None,253.20608145798906,253.2061482499994,None,253.2062654170004,253.20634529199742,None,,,,,,,,,,,4,7,0,1,2025-02-06_13h39.58.023,rtmindeye,2024.2.4,None,2025-02-06 13h40.14.696244 -0500,
all_stimuli/shared1000_notspecial/notspecial_46002.png,34,0,34,34,0,,,,0,0,0,7,1,"[9, 21, 31, 45, 56, 68, 69]",1,1,1.0030560409941245,0.4999840420059627,None,None,None,,,,,,,,,,,0,0,0,0,0,34,34,34,253.41220479199546,,,,,,,,,,,,,,,,,,,,,,253.20692795798823,253.20714049998787,253.40862904199457,253.41220479199546,253.41220479199546,253.41220479199546,253.41220479199546,256.4091984169936,256.4091984169936,257.20966741698794,1,1,1.0030560409941245,0.4999840420059627,None,257.2098154169944,257.2098630830005,None,257.2099099999905,257.20994558298844,None,,,,,,,,,,,4,7,0,1,2025-02-06_13h39.58.023,rtmindeye,2024.2.4,None,2025-02-06 13h40.14.696244 -0500,
all_stimuli/special515/special_30632.jpg,35,0,35,35,0,,,,0,0,0,7,1,"[9, 21, 31, 45, 56, 68, 69]",1,1,0.8864032910059905,0.23501479199330788,None,None,None,,,,,,,,,,,0,0,0,0,0,35,35,35,257.3528503749985,,,,,,,,,,,,,,,,,,,,,,257.2103073749895,257.21046054198814,257.34935449999466,257.3528503749985,257.3528503749985,257.3528503749985,257.3528503749985,260.3426984169928,260.3426984169928,261.22291849998874,1,1,0.8864032910059905,0.23501479199330788,None,261.2232761669875,261.2233348749869,None,261.22346062499855,261.22351566699217,None,,,,,,,,,,,4,7,0,1,2025-02-06_13h39.58.023,rtmindeye,2024.2.4,None,2025-02-06 13h40.14.696244 -0500,
all_stimuli/special515/special_31936.jpg,36,0,36,36,0,,,,0,0,0,7,1,"[9, 21, 31, 45, 56, 68, 69]",1,1,1.0762593330000527,0.3070120000047609,None,None,None,,,,,,,,,,,0,0,0,0,0,36,36,36,261.43305949999194,,,,,,,,,,,,,,,,,,,,,,261.2239487919869,261.2241162919963,261.42962758299836,261.43305949999194,261.43305949999194,261.43305949999194,261.43305949999194,264.4268646249984,264.4268646249984,265.22706316699623,1,1,1.0762593330000527,0.3070120000047609,None,265.22724220799864,265.2272927919985,None,265.22734641699935,265.2273874579987,None,,,,,,,,,,,4,7,0,1,2025-02-06_13h39.58.023,rtmindeye,2024.2.4,None,2025-02-06 13h40.14.696244 -0500,
all_stimuli/MST_pairs1/pair_8_12_56.png,37,0,37,37,0,,,,0,0,0,7,1,"[9, 21, 31, 45, 56, 68, 69]",1,1,1.1282463319948874,0.2940065419970779,None,None,None,,,,,,,,,,,0,0,0,0,0,37,37,37,265.3890148329956,,,,,,,,,,,,,,,,,,,,,,265.2277852499974,265.2279696249898,265.3854379580007,265.3890148329956,265.3890148329956,265.3890148329956,265.3890148329956,268.37573104198964,268.37573104198964,269.23934533300053,1,1,1.1282463319948874,0.2940065419970779,None,269.239521083,269.23956983299286,None,269.23963620798895,269.2396785829915,None,,,,,,,,,,,4,7,0,1,2025-02-06_13h39.58.023,rtmindeye,2024.2.4,None,2025-02-06 13h40.14.696244 -0500,
all_stimuli/special515/special_19074.jpg,38,0,38,38,0,,,,0,0,0,7,1,"[9, 21, 31, 45, 56, 68, 69]",1,1,1.3580192910012556,0.35104999999748543,None,None,None,,,,,,,,,,,0,0,0,0,0,38,38,38,269.4102423749864,,,,,,,,,,,,,,,,,,,,,,269.2401327080006,269.240306666994,269.4068156249996,269.4102423749864,269.4102423749864,269.4102423749864,269.4102423749864,272.4088278329873,272.4088278329873,273.2430708329921,1,1,1.3580192910012556,0.35104999999748543,None,273.24322266699164,273.2432703749946,None,273.243326041993,273.2433619999938,None,,,,,,,,,,,4,7,0,1,2025-02-06_13h39.58.023,rtmindeye,2024.2.4,None,2025-02-06 13h40.14.696244 -0500,
all_stimuli/shared1000_notspecial/notspecial_42648.png,39,0,39,39,0,,,,0,0,0,7,1,"[9, 21, 31, 45, 56, 68, 69]",1,1,2.5730713750090217,0.40299233299447224,"['1', '1']",None,None,"[2.9850618750060676, 3.22304220800288]","[0.16699070799222682, 0.1770127079944359]",,,,,,,,,0,0,0,0,0,39,39,39,273.4911657079938,,,,,,,,,,,,,,,,,,,,,,273.2437227499904,273.24387387499155,273.4875819579902,273.4911657079938,273.4911657079938,273.4911657079938,273.4911657079938,276.48888929199893,276.48888929199893,277.2560482919944,1,1,2.5730713750090217,0.40299233299447224,"['1', '1']",277.2564233329904,277.25651745799405,None,277.25658270799613,277.25662770798954,None,"[2.9850618750060676, 3.22304220800288]","[0.16699070799222682, 0.1770127079944359]",,,,,,,,,4,7,0,1,2025-02-06_13h39.58.023,rtmindeye,2024.2.4,None,2025-02-06 13h40.14.696244 -0500,
all_stimuli/MST_pairs1/pair_12_16_22.png,40,0,40,40,0,,,,1,0,0,7,1,"[9, 21, 31, 45, 56, 68, 69]",2,1,1.7233815409999806,0.9609869580017403,None,None,None,,,,,,,,,,,0,0,0,0,0,40,40,40,277.66603362499154,,,,,,,,,,,,,,,,,,,,,,277.2570596250007,277.2572277500003,277.6639842079894,277.66603362499154,277.66603362499154,277.66603362499154,277.66603362499154,280.6593457079871,280.6593457079871,281.26066120799806,2,1,1.7233815409999806,0.9609869580017403,None,281.2608408329979,281.2608885829977,None,281.26094758299587,281.26099345799594,None,,,,,,,,,,,4,7,0,1,2025-02-06_13h39.58.023,rtmindeye,2024.2.4,None,2025-02-06 13h40.14.696244 -0500,
all_stimuli/shared1000_notspecial/notspecial_3951.png,41,0,41,41,0,,,,0,0,0,7,1,"[9, 21, 31, 45, 56, 68, 69]",1,1,1.1323459160048515,1.1529740410041995,None,None,None,,,,,,,,,,,0,0,0,0,0,41,41,41,281.4519574579899,,,,,,,,,,,,,,,,,,,,,,281.26142099998833,281.2615957079979,281.4484330829873,281.4519574579899,281.4519574579899,281.4519574579899,281.4519574579899,284.4421848329948,284.4421848329948,285.2728994999925,1,1,1.1323459160048515,1.1529740410041995,None,285.27317604199925,285.27333183299925,None,285.2735432499903,285.2736551249982,None,,,,,,,,,,,4,7,0,1,2025-02-06_13h39.58.023,rtmindeye,2024.2.4,None,2025-02-06 13h40.14.696244 -0500,
all_stimuli/MST_pairs1/pair_12_16_78.png,42,0,42,42,0,,,,0,0,0,7,1,"[9, 21, 31, 45, 56, 68, 69]",2,0,2.4220704159961315,None,None,None,None,,,,,,,,,,,0,0,0,0,0,42,42,42,285.49121204199037,,,,,,,,,,,,,,,,,,,,,,285.2743872919964,285.27462654199917,285.4869732079969,285.49121204199037,285.49121204199037,285.49121204199037,285.49121204199037,288.4891271249944,288.4891271249944,289.27584574998764,2,0,2.4220704159961315,None,None,289.27602395799477,289.2760723329993,None,289.2761266669986,289.2761707499885,None,,,,,,,,,,,4,7,0,1,2025-02-06_13h39.58.023,rtmindeye,2024.2.4,None,2025-02-06 13h40.14.696244 -0500,
all_stimuli/special515/special_11952.jpg,43,0,43,43,0,,,,0,0,0,7,1,"[9, 21, 31, 45, 56, 68, 69]",1,1,1.134519208004349,1.1750035830045817,None,None,None,,,,,,,,,,,0,0,0,0,0,43,43,43,289.41579933298635,,,,,,,,,,,,,,,,,,,,,,289.27658387499105,289.2767607079877,289.4123085829924,289.41579933298635,289.41579933298635,289.41579933298635,289.41579933298635,292.4110374999873,292.4110374999873,293.277100124993,1,1,1.134519208004349,1.1750035830045817,None,293.2772616250004,293.27730945798976,None,293.27738029199827,293.27742062498874,None,,,,,,,,,,,4,7,0,1,2025-02-06_13h39.58.023,rtmindeye,2024.2.4,None,2025-02-06 13h40.14.696244 -0500,
all_stimuli/MST_pairs1/pair_14_18_22.png,44,0,44,44,0,,,,0,0,0,7,1,"[9, 21, 31, 45, 56, 68, 69]",1,1,1.6386992070038104,1.1550278749928111,None,None,None,,,,,,,,,,,0,0,0,0,0,44,44,44,293.47662599998876,,,,,,,,,,,,,,,,,,,,,,293.27785333299835,293.2780865829991,293.47308529198926,293.47662599998876,293.47662599998876,293.47662599998876,293.47662599998876,296.47240908299864,296.47240908299864,297.289684916992,1,1,1.6386992070038104,1.1550278749928111,None,297.2899070419953,297.28996033300064,None,297.29001462498854,297.29006808299164,None,,,,,,,,,,,4,7,0,1,2025-02-06_13h39.58.023,rtmindeye,2024.2.4,None,2025-02-06 13h40.14.696244 -0500,
blank.jpg,45,1,45,45,0,,,,0,0,0,7,1,"[9, 21, 31, 45, 56, 68, 69]",None,0,,,None,None,None,,,,,,,,,,,0,0,0,0,0,45,45,45,297.4299134999892,,,,,,,,,,,,,,,,,,,,,,297.2905290829949,297.29070295799465,297.42619137499423,297.4299134999892,297.4299134999892,297.4299134999892,297.4299134999892,300.4269220829883,300.4269220829883,301.29366979199403,None,0,,,None,301.2938140829938,301.29386308298854,None,301.29391620800016,301.29395783299697,None,,,,,,,,,,,4,7,0,1,2025-02-06_13h39.58.023,rtmindeye,2024.2.4,None,2025-02-06 13h40.14.696244 -0500,
all_stimuli/MST_pairs1/pair_16_20_56.png,46,0,46,46,0,,,,0,0,0,7,1,"[9, 21, 31, 45, 56, 68, 69]",1,1,0.9668172079982469,0.9690005000011297,None,None,None,,,,,,,,,,,0,0,0,0,0,46,46,46,301.5075015420007,,,,,,,,,,,,,,,,,,,,,,301.2943869169976,301.2945501249924,301.50380737498926,301.5075015420007,301.5075015420007,301.5075015420007,301.5075015420007,304.5057830000005,304.5057830000005,305.3058700830006,1,1,0.9668172079982469,0.9690005000011297,None,305.3060405419965,305.30609029199695,None,305.3061590829893,305.30620754198753,None,,,,,,,,,,,4,7,0,1,2025-02-06_13h39.58.023,rtmindeye,2024.2.4,None,2025-02-06 13h40.14.696244 -0500,
all_stimuli/special515/special_8933.jpg,47,0,47,47,0,,,,0,0,0,7,1,"[9, 21, 31, 45, 56, 68, 69]",2,0,1.8298308740049833,0.7080105829954846,None,None,None,,,,,,,,,,,0,0,0,0,0,47,47,47,305.4605466669891,,,,,,,,,,,,,,,,,,,,,,305.30663620799896,305.30680829199264,305.45706520800013,305.4605466669891,305.4605466669891,305.4605466669891,305.4605466669891,308.4590985419927,308.4590985419927,309.3090939169924,2,0,1.8298308740049833,0.7080105829954846,None,309.3092439999891,309.3092987079872,None,309.309346457987,309.309382499996,None,,,,,,,,,,,4,7,0,1,2025-02-06_13h39.58.023,rtmindeye,2024.2.4,None,2025-02-06 13h40.14.696244 -0500,
all_stimuli/MST_pairs1/pair_16_20_56.png,48,0,48,48,0,,,,1,0,0,7,1,"[9, 21, 31, 45, 56, 68, 69]",2,1,1.616420291000395,0.7710000840015709,None,None,None,,,,,,,,,,,0,0,0,0,0,48,48,48,309.41802474998985,,,,,,,,,,,,,,,,,,,,,,309.30976695798745,309.3099098329985,309.4160419580003,309.41802474998985,309.41802474998985,309.41802474998985,309.41802474998985,312.4099514579866,312.4099514579866,313.31041637499584,2,1,1.616420291000395,0.7710000840015709,None,313.3105716669961,313.3106139579904,None,313.3106609999959,313.310706291988,None,,,,,,,,,,,4,7,0,1,2025-02-06_13h39.58.023,rtmindeye,2024.2.4,None,2025-02-06 13h40.14.696244 -0500,
all_stimuli/special515/special_5034.jpg,49,0,49,49,0,,,,0,0,0,7,1,"[9, 21, 31, 45, 56, 68, 69]",1,1,1.7771262909955112,0.9289970000099856,None,None,None,,,,,,,,,,,0,0,0,0,0,49,49,49,313.41129154199734,,,,,,,,,,,,,,,,,,,,,,313.3110947499954,313.31124129198724,313.4078436669952,313.41129154199734,313.41129154199734,313.41129154199734,313.41129154199734,316.4061149999907,316.4061149999907,317.3229497919965,1,1,1.7771262909955112,0.9289970000099856,None,317.32323391699174,317.32339520798996,None,317.32360449999396,317.3237135419913,None,,,,,,,,,,,4,7,0,1,2025-02-06_13h39.58.023,rtmindeye,2024.2.4,None,2025-02-06 13h40.14.696244 -0500,
all_stimuli/MST_pairs1/pair_16_20_0.png,50,0,50,50,0,,,,0,0,0,7,1,"[9, 21, 31, 45, 56, 68, 69]",2,0,2.448863915997208,None,None,None,None,,,,,,,,,,,0,0,0,0,0,50,50,50,317.50948066699493,,,,,,,,,,,,,,,,,,,,,,317.32448487498914,317.3247177079902,317.5059150419984,317.50948066699493,317.50948066699493,317.50948066699493,317.50948066699493,320.5058382499992,320.5058382499992,321.3261449579877,2,0,2.448863915997208,None,None,321.3263205830008,321.3263738749956,None,321.32642787499935,321.32646941699204,None,,,,,,,,,,,4,7,0,1,2025-02-06_13h39.58.023,rtmindeye,2024.2.4,None,2025-02-06 13h40.14.696244 -0500,
all_stimuli/MST_pairs1/pair_46_w_pool2.jpg,51,0,51,51,0,,,,0,0,0,7,1,"[9, 21, 31, 45, 56, 68, 69]",1,1,0.8844807080022292,1.4319947500043781,None,None,None,,,,,,,,,,,0,0,0,0,0,51,51,51,321.4538842079928,,,,,,,,,,,,,,,,,,,,,,321.3268825829873,321.3270441249915,321.45032212499063,321.4538842079928,321.4538842079928,321.4538842079928,321.4538842079928,324.44351254199864,324.44351254199864,325.3394811670005,1,1,0.8844807080022292,1.4319947500043781,None,325.339745624995,325.3398382919986,None,325.3399935829948,325.34006833299645,None,,,,,,,,,,,4,7,0,1,2025-02-06_13h39.58.023,rtmindeye,2024.2.4,None,2025-02-06 13h40.14.696244 -0500,
all_stimuli/special515/special_62228.jpg,52,0,52,52,0,,,,0,0,0,7,1,"[9, 21, 31, 45, 56, 68, 69]",1,1,1.0220957080018707,1.244992166000884,None,None,None,,,,,,,,,,,0,0,0,0,0,52,52,52,325.4923361669935,,,,,,,,,,,,,,,,,,,,,,325.34060891698755,325.3408422079956,325.48890545799804,325.4923361669935,325.4923361669935,325.4923361669935,325.4923361669935,328.48902808300045,328.48902808300045,329.34414929199556,1,1,1.0220957080018707,1.244992166000884,None,329.3443306669942,329.344384541997,None,329.3444477079902,329.3444886669895,None,,,,,,,,,,,4,7,0,1,2025-02-06_13h39.58.023,rtmindeye,2024.2.4,None,2025-02-06 13h40.14.696244 -0500,
all_stimuli/MST_pairs1/pair_40_w_escalator2.jpg,53,0,53,53,0,,,,0,0,0,7,1,"[9, 21, 31, 45, 56, 68, 69]",1,1,0.9996320820064284,1.631999958990491,None,None,None,,,,,,,,,,,0,0,0,0,0,53,53,53,329.45378041699587,,,,,,,,,,,,,,,,,,,,,,329.3448837920005,329.3450505829969,329.4502932079922,329.45378041699587,329.45378041699587,329.45378041699587,329.45378041699587,332.44299912499264,332.44299912499264,333.35652470799687,1,1,0.9996320820064284,1.631999958990491,None,333.35694683299516,333.35705549998966,None,333.3571632499952,333.35724195798684,None,,,,,,,,,,,4,7,0,1,2025-02-06_13h39.58.023,rtmindeye,2024.2.4,None,2025-02-06 13h40.14.696244 -0500,
all_stimuli/MST_pairs1/pair_20_nsd_41_2_cocoid_63715.png,54,0,54,54,0,,,,0,0,0,7,1,"[9, 21, 31, 45, 56, 68, 69]",1,1,0.77734283299651,1.0110159169998951,None,None,None,,,,,,,,,,,0,0,0,0,0,54,54,54,333.6611000829871,,,,,,,,,,,,,,,,,,,,,,333.35798370798875,333.3582945419912,333.6577108329948,333.6611000829871,333.6611000829871,333.6611000829871,333.6611000829871,336.6562319169898,336.6562319169898,337.3604473749874,1,1,0.77734283299651,1.0110159169998951,None,337.36061920798966,337.3606757499947,None,337.36074191700027,337.3607829579996,None,,,,,,,,,,,4,7,0,1,2025-02-06_13h39.58.023,rtmindeye,2024.2.4,None,2025-02-06 13h40.14.696244 -0500,
all_stimuli/shared1000_notspecial/notspecial_22155.png,55,0,55,55,0,,,,0,0,0,7,1,"[9, 21, 31, 45, 56, 68, 69]",1,1,1.1657881249993807,0.5690203749982174,None,None,None,,,,,,,,,,,0,0,0,0,0,55,55,55,337.54953599999135,,,,,,,,,,,,,,,,,,,,,,337.36119304198655,337.3613580419915,337.5459537079878,337.54953599999135,337.54953599999135,337.54953599999135,337.54953599999135,340.54367091698805,340.54367091698805,341.3727502499969,1,1,1.1657881249993807,0.5690203749982174,None,341.37295816699043,341.373034291988,None,341.37310749999597,341.3731622919877,None,,,,,,,,,,,4,7,0,1,2025-02-06_13h39.58.023,rtmindeye,2024.2.4,None,2025-02-06 13h40.14.696244 -0500,
blank.jpg,56,1,56,56,0,,,,0,0,0,7,1,"[9, 21, 31, 45, 56, 68, 69]",None,0,,,None,None,None,,,,,,,,,,,0,0,0,0,0,56,56,56,341.5032035829936,,,,,,,,,,,,,,,,,,,,,,341.37366541699157,341.37382958299713,341.49964162499236,341.5032035829936,341.5032035829936,341.5032035829936,341.5032035829936,344.4920575419965,344.4920575419965,345.3754016249877,None,0,,,None,345.37552375000087,345.37556824999047,None,345.37561508298677,345.37564691698935,None,,,,,,,,,,,4,7,0,1,2025-02-06_13h39.58.023,rtmindeye,2024.2.4,None,2025-02-06 13h40.14.696244 -0500,
all_stimuli/special515/special_11617.jpg,57,0,57,57,0,,,,0,0,0,7,1,"[9, 21, 31, 45, 56, 68, 69]",1,1,1.1162478740006918,0.49600520900276024,None,None,None,,,,,,,,,,,0,0,0,0,0,57,57,57,345.5111963329982,,,,,,,,,,,,,,,,,,,,,,345.37595691699244,345.3760932919977,345.50783670799865,345.5111963329982,345.5111963329982,345.5111963329982,345.5111963329982,348.50925304199336,348.50925304199336,349.37692229199456,1,1,1.1162478740006918,0.49600520900276024,None,349.37709299998824,349.3771470829961,None,349.37719929199375,349.3772403329931,None,,,,,,,,,,,4,7,0,1,2025-02-06_13h39.58.023,rtmindeye,2024.2.4,None,2025-02-06 13h40.14.696244 -0500,
all_stimuli/MST_pairs1/pair_14_18_22.png,58,0,58,58,0,,,,1,0,0,7,1,"[9, 21, 31, 45, 56, 68, 69]",2,1,1.2808496240031673,0.8169604169961531,None,None,None,,,,,,,,,,,0,0,0,0,0,58,58,58,349.47863274998963,,,,,,,,,,,,,,,,,,,,,,349.37766899999406,349.37783704198955,349.47517783299554,349.47863274998963,349.47863274998963,349.47863274998963,349.47863274998963,352.47552062499744,352.47552062499744,353.3898345829948,2,1,1.2808496240031673,0.8169604169961531,None,353.39034462498967,353.3904546249978,None,353.39056416699896,353.3906432079966,None,,,,,,,,,,,4,7,0,1,2025-02-06_13h39.58.023,rtmindeye,2024.2.4,None,2025-02-06 13h40.14.696244 -0500,
all_stimuli/shared1000_notspecial/notspecial_63081.png,59,0,59,59,0,,,,0,0,0,7,1,"[9, 21, 31, 45, 56, 68, 69]",1,1,0.8546676659898367,1.653973375010537,None,None,None,,,,,,,,,,,0,0,0,0,0,59,59,59,354.26576116700016,,,,,,,,,,,,,,,,,,,,,,353.3914184579917,353.39171608298784,354.2615050829918,354.26576116700016,354.26576116700016,354.26576116700016,354.26576116700016,357.2598753749917,357.2598753749917,357.3945100419951,1,1,0.8546676659898367,1.653973375010537,None,357.39471012499416,357.39475458298693,None,357.39481033298944,357.3948482079868,None,,,,,,,,,,,4,7,0,1,2025-02-06_13h39.58.023,rtmindeye,2024.2.4,None,2025-02-06 13h40.14.696244 -0500,
all_stimuli/MST_pairs1/pair_42_w_icerink2.jpg,60,0,60,60,0,,,,0,0,0,7,1,"[9, 21, 31, 45, 56, 68, 69]",1,1,1.1020918739959598,1.2369817500002682,None,None,None,,,,,,,,,,,0,0,0,0,0,60,60,60,357.5883309579949,,,,,,,,,,,,,,,,,,,,,,357.39533233299153,357.39556870798697,357.58247129200026,357.5883309579949,357.5883309579949,357.5883309579949,357.5883309579949,360.57644320798863,360.57644320798863,361.4069114999875,1,1,1.1020918739959598,1.2369817500002682,None,361.4072175829933,361.4073001249926,None,361.4074391670001,361.4075168329873,None,,,,,,,,,,,4,7,0,1,2025-02-06_13h39.58.023,rtmindeye,2024.2.4,None,2025-02-06 13h40.14.696244 -0500,
all_stimuli/MST_pairs1/pair_46_w_pool1.jpg,61,0,61,61,0,,,,0,0,0,7,1,"[9, 21, 31, 45, 56, 68, 69]",1,1,0.8646779580012662,1.8449920830025803,None,None,None,,,,,,,,,,,0,0,0,0,0,61,61,61,361.5208092919929,,,,,,,,,,,,,,,,,,,,,,361.40817816699564,361.40849654198973,361.51586937499815,361.5208092919929,361.5208092919929,361.5208092919929,361.5208092919929,364.5104364579893,364.5104364579893,365.41014999999607,1,1,0.8646779580012662,1.8449920830025803,None,365.4103224999999,365.41036987499683,None,365.4104349579866,365.4104728329985,None,,,,,,,,,,,4,7,0,1,2025-02-06_13h39.58.023,rtmindeye,2024.2.4,None,2025-02-06 13h40.14.696244 -0500,
all_stimuli/special515/special_40840.jpg,62,0,62,62,0,,,,0,0,0,7,1,"[9, 21, 31, 45, 56, 68, 69]",1,1,1.0862419990007766,1.4019338750076713,None,None,None,,,,,,,,,,,0,0,0,0,0,62,62,62,365.7682505829871,,,,,,,,,,,,,,,,,,,,,,365.41090329199506,365.41112387499015,365.7631599999877,365.7682505829871,365.7682505829871,365.7682505829871,365.7682505829871,368.77332066699455,368.77332066699455,369.4231854999962,1,1,1.0862419990007766,1.4019338750076713,None,369.42337829199096,369.4234323749988,None,369.42349912499776,369.42354479199275,None,,,,,,,,,,,4,7,0,1,2025-02-06_13h39.58.023,rtmindeye,2024.2.4,None,2025-02-06 13h40.14.696244 -0500,
all_stimuli/special515/special_29837.jpg,63,0,63,63,0,,,,0,0,0,7,1,"[9, 21, 31, 45, 56, 68, 69]",1,1,1.9448840829863911,None,None,None,None,,,,,,,,,,,0,0,0,0,0,63,63,63,369.73766720799904,,,,,,,,,,,,,,,,,,,,,,369.4240659169882,369.42426641698694,369.7333653749956,369.73766720799904,369.73766720799904,369.73766720799904,369.73766720799904,372.7263120419957,372.7263120419957,373.4270731669967,1,1,1.9448840829863911,None,None,373.4271614169993,373.4271877079882,None,373.4272196249949,373.42724041698966,None,,,,,,,,,,,4,7,0,1,2025-02-06_13h39.58.023,rtmindeye,2024.2.4,None,2025-02-06 13h40.14.696244 -0500,
all_stimuli/shared1000_notspecial/notspecial_4768.png,64,0,64,64,0,,,,0,0,0,7,1,"[9, 21, 31, 45, 56, 68, 69]",1,1,1.2300109159987187,None,None,None,None,,,,,,,,,,,0,0,0,0,0,64,64,64,373.70349908299977,,,,,,,,,,,,,,,,,,,,,,373.42746945799445,373.42755274999945,373.6988305829873,373.70349908299977,373.70349908299977,373.70349908299977,373.70349908299977,376.69981633299903,376.69981633299903,377.4404848749982,1,1,1.2300109159987187,None,None,377.44069058299647,377.4407358749886,None,377.440780207995,377.4408288329869,None,,,,,,,,,,,4,7,0,1,2025-02-06_13h39.58.023,rtmindeye,2024.2.4,None,2025-02-06 13h40.14.696244 -0500,
all_stimuli/MST_pairs1/pair_20_nsd_41_1_cocoid_15472.png,65,0,65,65,0,,,,0,0,0,7,1,"[9, 21, 31, 45, 56, 68, 69]",1,1,1.2507041659991955,1.676997125003254,None,None,None,,,,,,,,,,,0,0,0,0,0,65,65,65,377.7518750419986,,,,,,,,,,,,,,,,,,,,,,377.44123533299717,377.4414109169884,377.74804058299924,377.7518750419986,377.7518750419986,377.7518750419986,377.7518750419986,380.74211229199136,380.74211229199136,381.44378333298664,1,1,1.2507041659991955,1.676997125003254,None,381.44396566700016,381.4440142079984,None,381.4440698749968,381.4441205829935,None,,,,,,,,,,,4,7,0,1,2025-02-06_13h39.58.023,rtmindeye,2024.2.4,None,2025-02-06 13h40.14.696244 -0500,
all_stimuli/shared1000_notspecial/notspecial_53157.png,66,0,66,66,0,,,,0,0,0,7,1,"[9, 21, 31, 45, 56, 68, 69]",1,1,1.1686430819972884,0.8979915420059115,None,None,None,,,,,,,,,,,0,0,0,0,0,66,66,66,381.685891791989,,,,,,,,,,,,,,,,,,,,,,381.4445158749877,381.4447086250002,381.6807894579979,381.685891791989,381.685891791989,381.685891791989,381.685891791989,384.6769408330001,384.6769408330001,385.4581189169985,1,1,1.1686430819972884,0.8979915420059115,None,385.45831874999567,385.45836283300014,None,385.45841316699807,385.4584493750008,None,,,,,,,,,,,4,7,0,1,2025-02-06_13h39.58.023,rtmindeye,2024.2.4,None,2025-02-06 13h40.14.696244 -0500,
all_stimuli/special515/special_38641.jpg,67,0,67,67,0,,,,1,0,0,7,1,"[9, 21, 31, 45, 56, 68, 69]",1,0,1.3735482490010327,1.126958167005796,None,None,None,,,,,,,,,,,0,0,0,0,0,67,67,67,385.5589873329882,,,,,,,,,,,,,,,,,,,,,,385.45893220799917,385.4591964579886,385.5539437499974,385.5589873329882,385.5589873329882,385.5589873329882,385.5589873329882,388.5615579999867,388.5615579999867,389.4611401669972,1,0,1.3735482490010327,1.126958167005796,None,389.4613032079942,389.4613449999888,None,389.4613913749927,389.46142433299974,None,,,,,,,,,,,4,7,0,1,2025-02-06_13h39.58.023,rtmindeye,2024.2.4,None,2025-02-06 13h40.14.696244 -0500,
blank.jpg,68,1,68,68,0,,,,0,0,0,7,1,"[9, 21, 31, 45, 56, 68, 69]",None,0,,,None,None,None,,,,,,,,,,,0,0,0,0,0,68,68,68,389.5408525829989,,,,,,,,,,,,,,,,,,,,,,389.4618160829996,389.4620401669963,389.5351541669952,389.5408525829989,389.5408525829989,389.5408525829989,389.5408525829989,392.52719004199025,392.52719004199025,393.4735493749904,None,0,,,None,393.47375837499567,393.4738282079925,None,393.4739526249905,393.47403604199644,None,,,,,,,,,,,4,7,0,1,2025-02-06_13h39.58.023,rtmindeye,2024.2.4,None,2025-02-06 13h40.14.696244 -0500,
blank.jpg,69,1,69,69,0,,,,0,1,0,7,0,"[9, 21, 31, 45, 56, 68, 69]",None,0,,,None,1,equal,,,9.818849332004902,None,25.968706915999064,None,,,,,0,0,0,0,0,69,69,69,393.5410399999964,,,,,,,,,,,,,,,,,,,,,,393.4746343329898,393.4748755420005,393.5355692079902,393.5410399999964,393.5410399999964,393.5410399999964,393.5410399999964,396.5405579169892,396.5405579169892,397.47780941698875,None,0,,,None,397.4950414169871,407.32567083298636,1,407.3259232499986,433.3084184999898,equal,,,397.4988344999874,397.4988344999874,9.818849332004902,None,407.335950875,407.335950875,25.968706915999064,None,4,7,0,1,2025-02-06_13h39.58.023,rtmindeye,2024.2.4,None,2025-02-06 13h40.14.696244 -0500,
,,,0,0,0,,,,,,,,,,,,,,,,,,,,,,,,,,,0,0,0,0,,,,,,,,,,,,,,,,,,,,,,,,,,,,,,,,,,,,,,,,,,,,,,,,,,,,,,,,,,4,7,0,1,2025-02-06_13h39.58.023,rtmindeye,2024.2.4,None,2025-02-06 13h40.14.696244 -0500,
all_stimuli/special515/special_71450.jpg,0,0,0,0,0,,,,0,0,1,7,1,"[9, 21, 31, 45, 56, 68, 69]",1,1,1.1757755819999147,0.5280175419902662,None,None,None,,,,,,,,,,,1,0,1,0,0,0,0,0,433.6568240419874,,,,,,,,,,,,,,,,,,,,,,433.4595493749948,433.4598785829876,433.65081054199254,433.6568240419874,433.6568240419874,433.6568240419874,433.6568240419874,436.6426489999867,436.6426489999867,437.4605234169867,1,1,1.1757755819999147,0.5280175419902662,None,437.4606923329993,437.4607480419945,None,437.4608118329925,437.46085449999373,None,,,,,,,,,,,4,7,0,1,2025-02-06_13h39.58.023,rtmindeye,2024.2.4,None,2025-02-06 13h40.14.696244 -0500,
all_stimuli/special515/special_38246.jpg,1,0,1,1,0,,,,0,0,1,7,1,"[9, 21, 31, 45, 56, 68, 69]",1,1,0.7431185409950558,0.40901966599631123,None,None,None,,,,,,,,,,,1,0,1,0,0,1,1,1,437.59039854198636,,,,,,,,,,,,,,,,,,,,,,437.46127537499706,437.46145024998987,437.5869062499987,437.59039854198636,437.59039854198636,437.59039854198636,437.59039854198636,440.576715874995,440.576715874995,441.4731329579954,1,1,0.7431185409950558,0.40901966599631123,None,441.4734452499979,441.47350770799676,None,441.4735691669921,441.47364095799276,None,,,,,,,,,,,4,7,0,1,2025-02-06_13h39.58.023,rtmindeye,2024.2.4,None,2025-02-06 13h40.14.696244 -0500,
all_stimuli/special515/special_10046.jpg,2,0,2,2,0,,,,0,0,1,7,1,"[9, 21, 31, 45, 56, 68, 69]",1,1,0.9319509570050286,0.3210008750029374,None,None,None,,,,,,,,,,,1,0,1,0,0,2,2,2,441.6005641669908,,,,,,,,,,,,,,,,,,,,,,441.4740472079866,441.4742140419985,441.5969429999968,441.6005641669908,441.6005641669908,441.6005641669908,441.6005641669908,444.5922794579965,444.5922794579965,445.4758295829961,1,1,0.9319509570050286,0.3210008750029374,None,445.47598074999405,445.47602437499154,None,445.4760715829907,445.47610787498706,None,,,,,,,,,,,4,7,0,1,2025-02-06_13h39.58.023,rtmindeye,2024.2.4,None,2025-02-06 13h40.14.696244 -0500,
all_stimuli/MST_pairs1/pair_38_w_arch2.jpg,3,0,3,3,0,,,,0,0,1,7,1,"[9, 21, 31, 45, 56, 68, 69]",1,1,0.9081052080000518,0.42399795800156426,None,None,None,,,,,,,,,,,1,0,1,0,0,3,3,3,445.6244995829911,,,,,,,,,,,,,,,,,,,,,,445.47650204198726,445.4766546669998,445.62104758298665,445.6244995829911,445.6244995829911,445.6244995829911,445.6244995829911,448.622858207993,448.622858207993,449.47685674999957,1,1,0.9081052080000518,0.42399795800156426,None,449.4770266669948,449.47707112498756,None,449.4771256249951,449.4771611249889,None,,,,,,,,,,,4,7,0,1,2025-02-06_13h39.58.023,rtmindeye,2024.2.4,None,2025-02-06 13h40.14.696244 -0500,
all_stimuli/special515/special_30395.jpg,4,0,4,4,0,,,,0,0,1,7,1,"[9, 21, 31, 45, 56, 68, 69]",1,1,0.7249977910105372,0.33497645799070597,None,None,None,,,,,,,,,,,1,0,1,0,0,4,4,4,449.62053566699615,,,,,,,,,,,,,,,,,,,,,,449.4775446669955,449.47770570799184,449.6167341249966,449.62053566699615,449.62053566699615,449.62053566699615,449.62053566699615,452.6098581249971,452.6098581249971,453.4894942499959,1,1,0.7249977910105372,0.33497645799070597,None,453.48971608300053,453.48978679199354,None,453.4898785419937,453.489935916994,None,,,,,,,,,,,4,7,0,1,2025-02-06_13h39.58.023,rtmindeye,2024.2.4,None,2025-02-06 13h40.14.696244 -0500,
all_stimuli/special515/special_38494.jpg,5,0,5,5,0,,,,1,0,1,7,1,"[9, 21, 31, 45, 56, 68, 69]",2,1,1.1563956660102122,0.6099689999973634,None,None,None,,,,,,,,,,,1,0,1,0,0,5,5,5,453.564221291992,,,,,,,,,,,,,,,,,,,,,,453.490446041993,453.4906015829911,453.56086008298735,453.564221291992,453.564221291992,453.564221291992,453.564221291992,456.5604538329935,456.5604538329935,457.49288270800025,2,1,1.1563956660102122,0.6099689999973634,None,457.49304116699204,457.4930882079934,None,457.49313929199707,457.4931750419928,None,,,,,,,,,,,4,7,0,1,2025-02-06_13h39.58.023,rtmindeye,2024.2.4,None,2025-02-06 13h40.14.696244 -0500,
all_stimuli/MST_pairs1/pair_28_nsd_547_1_cocoid_60932.png,6,0,6,6,0,,,,1,0,1,7,1,"[9, 21, 31, 45, 56, 68, 69]",2,1,2.046245581994299,0.6169808749982622,None,None,None,,,,,,,,,,,1,0,1,0,0,6,6,6,457.59241183300037,,,,,,,,,,,,,,,,,,,,,,457.49357408299693,457.4937234999961,457.59038087500085,457.59241183300037,457.59241183300037,457.59241183300037,457.59241183300037,460.5897929579951,460.5897929579951,461.5060399579961,2,1,2.046245581994299,0.6169808749982622,None,461.50622245798877,461.5062778749998,None,461.5063518329989,461.5063971669879,None,,,,,,,,,,,4,7,0,1,2025-02-06_13h39.58.023,rtmindeye,2024.2.4,None,2025-02-06 13h40.14.696244 -0500,
all_stimuli/special515/special_61133.jpg,7,0,7,7,0,,,,0,0,1,7,1,"[9, 21, 31, 45, 56, 68, 69]",1,1,1.4380411249876488,0.962992665998172,None,None,None,,,,,,,,,,,1,0,1,0,0,7,7,7,461.6245809169923,,,,,,,,,,,,,,,,,,,,,,461.50684845799697,461.5070190829865,461.6212952499918,461.6245809169923,461.6245809169923,461.6245809169923,461.6245809169923,464.62263416699716,464.62263416699716,465.5107483749889,1,1,1.4380411249876488,0.962992665998172,None,465.51090979199216,465.51095799999894,None,465.5110207079997,465.51106179199996,None,,,,,,,,,,,4,7,0,1,2025-02-06_13h39.58.023,rtmindeye,2024.2.4,None,2025-02-06 13h40.14.696244 -0500,
all_stimuli/shared1000_notspecial/notspecial_16635.png,8,0,8,8,0,,,,0,0,1,7,1,"[9, 21, 31, 45, 56, 68, 69]",1,1,1.3549219579872442,1.4409969160042237,None,None,None,,,,,,,,,,,1,0,1,0,0,8,8,8,465.7855523749895,,,,,,,,,,,,,,,,,,,,,,465.5114783329918,465.5116502079909,465.78158195799915,465.7855523749895,465.7855523749895,465.7855523749895,465.7855523749895,468.7892166249949,468.7892166249949,469.5231933749892,1,1,1.3549219579872442,1.4409969160042237,None,469.52342770798714,469.52347741699487,None,469.5235372919997,469.52357837499585,None,,,,,,,,,,,4,7,0,1,2025-02-06_13h39.58.023,rtmindeye,2024.2.4,None,2025-02-06 13h40.14.696244 -0500,
blank.jpg,9,1,9,9,0,,,,0,0,1,7,1,"[9, 21, 31, 45, 56, 68, 69]",None,0,,,None,None,None,,,,,,,,,,,1,0,1,0,0,9,9,9,469.5967871249886,,,,,,,,,,,,,,,,,,,,,,469.5240487919946,469.52423116700083,469.5932759579882,469.5967871249886,469.5967871249886,469.5967871249886,469.5967871249886,472.59235833300045,472.59235833300045,473.52777737499855,None,0,,,None,473.5279264169949,473.52797595800075,None,473.5280293329997,473.52806966699427,None,,,,,,,,,,,4,7,0,1,2025-02-06_13h39.58.023,rtmindeye,2024.2.4,None,2025-02-06 13h40.14.696244 -0500,
all_stimuli/MST_pairs1/pair_18_nsd_6_1_cocoid_13417.png,10,0,10,10,0,,,,0,0,1,7,1,"[9, 21, 31, 45, 56, 68, 69]",1,1,2.120808956999099,None,None,None,None,,,,,,,,,,,1,0,1,0,0,10,10,10,473.7838367499935,,,,,,,,,,,,,,,,,,,,,,473.5284581249871,473.5286260419962,473.78054545799387,473.7838367499935,473.7838367499935,473.7838367499935,473.7838367499935,476.7766512919916,476.7766512919916,477.53973854199285,1,1,2.120808956999099,None,None,477.53998212498846,477.5400521669944,None,477.54013712499,477.54027116698853,None,,,,,,,,,,,4,7,0,1,2025-02-06_13h39.58.023,rtmindeye,2024.2.4,None,2025-02-06 13h40.14.696244 -0500,
all_stimuli/shared1000_notspecial/notspecial_21703.png,11,0,11,11,0,,,,0,0,1,7,1,"[9, 21, 31, 45, 56, 68, 69]",1,1,1.7276812909985892,0.7440070419979747,None,None,None,,,,,,,,,,,1,0,1,0,0,11,11,11,477.7268995829945,,,,,,,,,,,,,,,,,,,,,,477.5408351669903,477.5410464579909,477.7233667499968,477.7268995829945,477.7268995829945,477.7268995829945,477.7268995829945,480.7232566249877,480.7232566249877,481.54354979199707,1,1,1.7276812909985892,0.7440070419979747,None,481.54378199999337,481.54385358298896,None,481.54393012500077,481.54399416699016,None,,,,,,,,,,,4,7,0,1,2025-02-06_13h39.58.023,rtmindeye,2024.2.4,None,2025-02-06 13h40.14.696244 -0500,
all_stimuli/special515/special_24530.jpg,12,0,12,12,0,,,,0,0,1,7,1,"[9, 21, 31, 45, 56, 68, 69]",1,1,1.3121026659937343,0.45698520900623407,None,None,None,,,,,,,,,,,1,0,1,0,0,12,12,12,481.6915631249867,,,,,,,,,,,,,,,,,,,,,,481.54458512499696,481.54479183298827,481.6882639579999,481.6915631249867,481.6915631249867,481.6915631249867,481.6915631249867,484.68934008298675,484.68934008298675,485.55681216699304,1,1,1.3121026659937343,0.45698520900623407,None,485.55725270799303,485.5573575419985,None,485.55745837499853,485.5575360829971,None,,,,,,,,,,,4,7,0,1,2025-02-06_13h39.58.023,rtmindeye,2024.2.4,None,2025-02-06 13h40.14.696244 -0500,
all_stimuli/shared1000_notspecial/notspecial_6222.png,13,0,13,13,0,,,,0,0,1,7,1,"[9, 21, 31, 45, 56, 68, 69]",1,1,0.6760605000017677,0.37800179098849185,None,None,None,,,,,,,,,,,1,0,1,0,0,13,13,13,485.7165867500007,,,,,,,,,,,,,,,,,,,,,,485.5583083329984,485.55864112499694,485.71268991699617,485.7165867500007,485.7165867500007,485.7165867500007,485.7165867500007,488.70921354199527,488.70921354199527,489.5589369579975,1,1,0.6760605000017677,0.37800179098849185,None,489.55910404199676,489.55915129199275,None,489.5592044169898,489.55927054199856,None,,,,,,,,,,,4,7,0,1,2025-02-06_13h39.58.023,rtmindeye,2024.2.4,None,2025-02-06 13h40.14.696244 -0500,
all_stimuli/MST_pairs1/pair_44_w_log_cabin2.jpg,14,0,14,14,0,,,,0,0,1,7,1,"[9, 21, 31, 45, 56, 68, 69]",1,1,0.3043454569997266,0.811963125001057,None,None,None,,,,,,,,,,,1,0,1,0,0,14,14,14,489.71225545799825,,,,,,,,,,,,,,,,,,,,,,489.5597263749951,489.5598896249867,489.70794387499336,489.71225545799825,489.71225545799825,489.71225545799825,489.71225545799825,492.7096462079935,492.7096462079935,493.5604689999891,1,1,0.3043454569997266,0.811963125001057,None,493.56064479199995,493.5606981669989,None,493.5607552500005,493.56079508298717,None,,,,,,,,,,,4,7,0,1,2025-02-06_13h39.58.023,rtmindeye,2024.2.4,None,2025-02-06 13h40.14.696244 -0500,
all_stimuli/special515/special_28068.jpg,15,0,15,15,0,,,,0,0,1,7,1,"[9, 21, 31, 45, 56, 68, 69]",1,1,1.0556983739952557,0.2889964580099331,None,None,None,,,,,,,,,,,1,0,1,0,0,15,15,15,493.69885599998815,,,,,,,,,,,,,,,,,,,,,,493.5612228329992,493.5613774999947,493.69535458298924,493.69885599998815,493.69885599998815,493.69885599998815,493.69885599998815,496.6926740829949,496.6926740829949,497.57293691700033,1,1,1.0556983739952557,0.2889964580099331,None,497.57314633298665,497.5732136250008,None,497.5732867499901,497.573353957996,None,,,,,,,,,,,4,7,0,1,2025-02-06_13h39.58.023,rtmindeye,2024.2.4,None,2025-02-06 13h40.14.696244 -0500,
all_stimuli/shared1000_notspecial/notspecial_60978.png,16,0,16,16,0,,,,0,0,1,7,1,"[9, 21, 31, 45, 56, 68, 69]",1,1,1.3064259990060236,0.331018041993957,None,None,None,,,,,,,,,,,1,0,1,0,0,16,16,16,497.8161877079983,,,,,,,,,,,,,,,,,,,,,,497.5739147919958,497.574133541988,497.8126224579901,497.8161877079983,497.8161877079983,497.8161877079983,497.8161877079983,500.8096294579882,500.8096294579882,501.5775138329918,1,1,1.3064259990060236,0.331018041993957,None,501.5777094579971,501.5777594169922,None,501.577820416991,501.57786283300084,None,,,,,,,,,,,4,7,0,1,2025-02-06_13h39.58.023,rtmindeye,2024.2.4,None,2025-02-06 13h40.14.696244 -0500,
all_stimuli/MST_pairs1/pair_2_4_22.png,17,0,17,17,0,,,,0,0,1,7,1,"[9, 21, 31, 45, 56, 68, 69]",1,1,1.3069373330072267,0.310025458005839,None,None,None,,,,,,,,,,,1,0,1,0,0,17,17,17,501.80666949998704,,,,,,,,,,,,,,,,,,,,,,501.57828887499636,501.5784561249893,501.8031616669905,501.80666949998704,501.80666949998704,501.80666949998704,501.80666949998704,504.7922384169942,504.7922384169942,505.58983741699194,1,1,1.3069373330072267,0.310025458005839,None,505.5900723329978,505.5901814999961,None,505.59025299998757,505.5902963749977,None,,,,,,,,,,,4,7,0,1,2025-02-06_13h39.58.023,rtmindeye,2024.2.4,None,2025-02-06 13h40.14.696244 -0500,
all_stimuli/shared1000_notspecial/notspecial_46160.png,18,0,18,18,0,,,,0,0,1,7,1,"[9, 21, 31, 45, 56, 68, 69]",1,1,1.2022706659918185,0.28400437500386033,None,None,None,,,,,,,,,,,1,0,1,0,0,18,18,18,505.75425433299097,,,,,,,,,,,,,,,,,,,,,,505.59072541698697,505.5909027079906,505.7502922499989,505.75425433299097,505.75425433299097,505.75425433299097,505.75425433299097,508.74260720799793,508.74260720799793,509.59290891699493,1,1,1.2022706659918185,0.28400437500386033,None,509.59307066698966,509.59311729199544,None,509.5931676249893,509.59320824999304,None,,,,,,,,,,,4,7,0,1,2025-02-06_13h39.58.023,rtmindeye,2024.2.4,None,2025-02-06 13h40.14.696244 -0500,
all_stimuli/special515/special_64880.jpg,19,0,19,19,0,,,,0,0,1,7,1,"[9, 21, 31, 45, 56, 68, 69]",1,1,1.7538029580027796,0.2879833329934627,None,None,None,,,,,,,,,,,1,0,1,0,0,19,19,19,509.74089362499944,,,,,,,,,,,,,,,,,,,,,,509.5935963749944,509.5937385419966,509.73826037498657,509.74089362499944,509.74089362499944,509.74089362499944,509.74089362499944,512.7396783749864,512.7396783749864,513.6062687919912,1,1,1.7538029580027796,0.2879833329934627,None,513.606482291987,513.6065497499949,None,513.6066646249965,513.6067422079941,None,,,,,,,,,,,4,7,0,1,2025-02-06_13h39.58.023,rtmindeye,2024.2.4,None,2025-02-06 13h40.14.696244 -0500,
all_stimuli/MST_pairs1/pair_36_nsd_949_1_cocoid_43196.png,20,0,20,20,0,,,,0,0,1,7,1,"[9, 21, 31, 45, 56, 68, 69]",1,1,1.776214790996164,0.34197133300767746,None,None,None,,,,,,,,,,,1,0,1,0,0,20,20,20,513.7765072079928,,,,,,,,,,,,,,,,,,,,,,513.6073436669976,513.6075541249884,513.7731169999897,513.7765072079928,513.7765072079928,513.7765072079928,513.7765072079928,516.7728183750005,516.7728183750005,517.6103878329886,1,1,1.776214790996164,0.34197133300767746,None,517.610554999992,517.6106068329973,None,517.6106637919875,517.6107042499934,None,,,,,,,,,,,4,7,0,1,2025-02-06_13h39.58.023,rtmindeye,2024.2.4,None,2025-02-06 13h40.14.696244 -0500,
blank.jpg,21,1,21,21,0,,,,0,0,1,7,1,"[9, 21, 31, 45, 56, 68, 69]",None,0,,,None,None,None,,,,,,,,,,,1,0,1,0,0,21,21,21,517.6879434999864,,,,,,,,,,,,,,,,,,,,,,517.6111177919956,517.6113005419902,517.6845858329907,517.6879434999864,517.6879434999864,517.6879434999864,517.6879434999864,520.6778373749985,520.6778373749985,521.6232629579899,None,0,,,None,521.6235570829886,521.6236534579948,None,521.6238038749871,521.6238836669945,None,,,,,,,,,,,4,7,0,1,2025-02-06_13h39.58.023,rtmindeye,2024.2.4,None,2025-02-06 13h40.14.696244 -0500,
all_stimuli/special515/special_30632.jpg,22,0,22,22,0,,,,1,0,1,7,1,"[9, 21, 31, 45, 56, 68, 69]",2,1,1.0253701659967192,0.5199959159945138,None,None,None,,,,,,,,,,,1,0,1,0,0,22,22,22,521.7202820829989,,,,,,,,,,,,,,,,,,,,,,521.6246017079975,521.6249049170001,521.7169572079874,521.7202820829989,521.7202820829989,521.7202820829989,521.7202820829989,524.7089509169891,524.7089509169891,525.6262560829928,2,1,1.0253701659967192,0.5199959159945138,None,525.6264223329927,525.6264660419984,None,525.6265156669979,525.6265512919927,None,,,,,,,,,,,4,7,0,1,2025-02-06_13h39.58.023,rtmindeye,2024.2.4,None,2025-02-06 13h40.14.696244 -0500,
all_stimuli/MST_pairs1/pair_20_nsd_41_2_cocoid_63715.png,23,0,23,23,0,,,,1,0,1,7,1,"[9, 21, 31, 45, 56, 68, 69]",2,1,1.0562568319874117,0.5869568750058534,None,None,None,,,,,,,,,,,1,0,1,0,0,23,23,23,525.7305623749999,,,,,,,,,,,,,,,,,,,,,,525.6269460829935,525.6271046249894,525.7286716249946,525.7305623749999,525.7305623749999,525.7305623749999,525.7305623749999,528.7264391249919,528.7264391249919,529.6401362499892,2,1,1.0562568319874117,0.5869568750058534,None,529.6405586249894,529.6406946249917,None,529.6408046249999,529.6408620829898,None,,,,,,,,,,,4,7,0,1,2025-02-06_13h39.58.023,rtmindeye,2024.2.4,None,2025-02-06 13h40.14.696244 -0500,
all_stimuli/MST_pairs1/pair_22_nsd_115_2_cocoid_65194.png,24,0,24,24,0,,,,0,0,1,7,1,"[9, 21, 31, 45, 56, 68, 69]",1,1,1.7207136240031105,0.5710055420058779,None,None,None,,,,,,,,,,,1,0,1,0,0,24,24,24,529.9520025829988,,,,,,,,,,,,,,,,,,,,,,529.6414220419974,529.6416713329963,529.9488634169975,529.9520025829988,529.9520025829988,529.9520025829988,529.9520025829988,532.9448598749877,532.9448598749877,533.643196332996,1,1,1.7207136240031105,0.5710055420058779,None,533.6434267919976,533.6434885829949,None,533.6435686249897,533.6436293329898,None,,,,,,,,,,,4,7,0,1,2025-02-06_13h39.58.023,rtmindeye,2024.2.4,None,2025-02-06 13h40.14.696244 -0500,
all_stimuli/shared1000_notspecial/notspecial_26292.png,25,0,25,25,0,,,,0,0,1,7,1,"[9, 21, 31, 45, 56, 68, 69]",1,1,1.1164777499943739,0.6960152079991531,None,None,None,,,,,,,,,,,1,0,1,0,0,25,25,25,533.8252573749924,,,,,,,,,,,,,,,,,,,,,,533.6441705420002,533.6443777919922,533.8218301669986,533.8252573749924,533.8252573749924,533.8252573749924,533.8252573749924,536.8227959999931,536.8227959999931,537.6567630419886,1,1,1.1164777499943739,0.6960152079991531,None,537.6572032499971,537.6573072079918,None,537.6574104579922,537.6575031669927,None,,,,,,,,,,,4,7,0,1,2025-02-06_13h39.58.023,rtmindeye,2024.2.4,None,2025-02-06 13h40.14.696244 -0500,
all_stimuli/special515/special_6489.jpg,26,0,26,26,0,,,,1,0,1,7,1,"[9, 21, 31, 45, 56, 68, 69]",2,1,0.8534934159979457,0.6040382920036791,None,None,None,,,,,,,,,,,1,0,1,0,0,26,26,26,537.757186332994,,,,,,,,,,,,,,,,,,,,,,537.6582644999871,537.6585573749908,537.7536796669883,537.757186332994,537.757186332994,537.757186332994,537.757186332994,540.7581918749929,540.7581918749929,541.6609862079931,2,1,0.8534934159979457,0.6040382920036791,None,541.6611116249987,541.6611487499904,None,541.6611888329935,541.6612192920002,None,,,,,,,,,,,4,7,0,1,2025-02-06_13h39.58.023,rtmindeye,2024.2.4,None,2025-02-06 13h40.14.696244 -0500,
all_stimuli/special515/special_55678.jpg,27,0,27,27,0,,,,0,0,1,7,1,"[9, 21, 31, 45, 56, 68, 69]",1,1,0.9708014579955488,0.26793816599820275,None,None,None,,,,,,,,,,,1,0,1,0,0,27,27,27,541.814008041998,,,,,,,,,,,,,,,,,,,,,,541.6616003329982,541.6617032499926,541.810343249992,541.814008041998,541.814008041998,541.814008041998,541.814008041998,544.8109044999874,544.8109044999874,545.6746637499891,1,1,0.9708014579955488,0.26793816599820275,None,545.674899916994,545.674956582996,None,545.6750220419926,545.675067166987,None,,,,,,,,,,,4,7,0,1,2025-02-06_13h39.58.023,rtmindeye,2024.2.4,None,2025-02-06 13h40.14.696244 -0500,
all_stimuli/special515/special_40909.jpg,28,0,28,28,0,,,,0,0,1,7,1,"[9, 21, 31, 45, 56, 68, 69]",1,1,0.9653079160052584,0.23706649999076035,None,None,None,,,,,,,,,,,1,0,1,0,0,28,28,28,545.8653776669962,,,,,,,,,,,,,,,,,,,,,,545.675585207995,545.6758990829985,545.8601908749988,545.8653776669962,545.8653776669962,545.8653776669962,545.8653776669962,548.8605016669899,548.8605016669899,549.6760202500009,1,1,0.9653079160052584,0.23706649999076035,None,549.6761629999964,549.6762065829971,None,549.6762554999877,549.6762891669932,None,,,,,,,,,,,4,7,0,1,2025-02-06_13h39.58.023,rtmindeye,2024.2.4,None,2025-02-06 13h40.14.696244 -0500,
all_stimuli/special515/special_70360.jpg,29,0,29,29,0,,,,0,0,1,7,1,"[9, 21, 31, 45, 56, 68, 69]",2,0,1.4008725000021514,0.6290056249999907,None,None,None,,,,,,,,,,,1,0,1,0,0,29,29,29,549.816880207989,,,,,,,,,,,,,,,,,,,,,,549.6766270829976,549.6767737919872,549.8136308329995,549.816880207989,549.816880207989,549.816880207989,549.816880207989,552.8110529999976,552.8110529999976,553.6771031249955,2,0,1.4008725000021514,0.6290056249999907,None,553.6772805419896,553.6773282079957,None,553.6773722919897,553.6774252079922,None,,,,,,,,,,,4,7,0,1,2025-02-06_13h39.58.023,rtmindeye,2024.2.4,None,2025-02-06 13h40.14.696244 -0500,
all_stimuli/MST_pairs1/pair_42_w_icerink1.jpg,30,0,30,30,0,,,,0,0,1,7,1,"[9, 21, 31, 45, 56, 68, 69]",2,0,1.0025673319905763,0.6199678749981103,None,None,None,,,,,,,,,,,1,0,1,0,0,30,30,30,553.7891914169886,,,,,,,,,,,,,,,,,,,,,,553.6778249579947,553.6779959999985,553.7840472079988,553.7891914169886,553.7891914169886,553.7891914169886,553.7891914169886,556.7785574169975,556.7785574169975,557.678269416996,2,0,1.0025673319905763,0.6199678749981103,None,557.6784593749908,557.6785095419909,None,557.6785590829968,557.6786009579955,None,,,,,,,,,,,4,7,0,1,2025-02-06_13h39.58.023,rtmindeye,2024.2.4,None,2025-02-06 13h40.14.696244 -0500,
blank.jpg,31,1,31,31,0,,,,0,0,1,7,1,"[9, 21, 31, 45, 56, 68, 69]",None,0,,,None,None,None,,,,,,,,,,,1,0,1,0,0,31,31,31,557.778311874994,,,,,,,,,,,,,,,,,,,,,,557.679035832989,557.6792238329945,557.7728004579985,557.778311874994,557.778311874994,557.778311874994,557.778311874994,560.7917928329989,560.7917928329989,561.6909885419882,None,0,,,None,561.6911922500003,561.6912442499888,None,561.6912970419944,561.691332041999,None,,,,,,,,,,,4,7,0,1,2025-02-06_13h39.58.023,rtmindeye,2024.2.4,None,2025-02-06 13h40.14.696244 -0500,
all_stimuli/special515/special_30430.jpg,32,0,32,32,0,,,,1,0,1,7,1,"[9, 21, 31, 45, 56, 68, 69]",None,0,,,['2'],None,None,[1.4792114160081837],[0.7030501669942169],,,,,,,,,1,0,1,0,0,32,32,32,561.860456874987,,,,,,,,,,,,,,,,,,,,,,561.691775291998,561.6920569579961,561.8546472499875,561.860456874987,561.860456874987,561.860456874987,561.860456874987,564.8567715419922,564.8567715419922,565.7085603749874,None,0,,,['2'],565.7088804169907,565.7089387079905,None,565.7090011669934,565.7090400829911,None,[1.4792114160081837],[0.7030501669942169],,,,,,,,,4,7,0,1,2025-02-06_13h39.58.023,rtmindeye,2024.2.4,None,2025-02-06 13h40.14.696244 -0500,
all_stimuli/shared1000_notspecial/notspecial_43746.png,33,0,33,33,0,,,,0,0,1,7,1,"[9, 21, 31, 45, 56, 68, 69]",1,1,1.4879854989994783,0.621983791992534,None,None,None,,,,,,,,,,,1,0,1,0,0,33,33,33,565.9118034999992,,,,,,,,,,,,,,,,,,,,,,565.7096465419891,565.7099226669961,565.9059525419871,565.9118034999992,565.9118034999992,565.9118034999992,565.9118034999992,568.9106251669873,568.9106251669873,569.7113374579931,1,1,1.4879854989994783,0.621983791992534,None,569.7114711670001,569.7115092919994,None,569.7115495420003,569.7115821669868,None,,,,,,,,,,,4,7,0,1,2025-02-06_13h39.58.023,rtmindeye,2024.2.4,None,2025-02-06 13h40.14.696244 -0500,
all_stimuli/MST_pairs1/pair_34_nsd_875_1_cocoid_67762.png,34,0,34,34,0,,,,0,0,1,7,1,"[9, 21, 31, 45, 56, 68, 69]",1,1,1.4964763329917332,0.5049658750067465,None,None,None,,,,,,,,,,,1,0,1,0,0,34,34,34,569.9033990829921,,,,,,,,,,,,,,,,,,,,,,569.7119954579975,569.7121597919904,569.8999134579935,569.9033990829921,569.9033990829921,569.9033990829921,569.9033990829921,572.8939842919935,572.8939842919935,573.7237863749906,1,1,1.4964763329917332,0.5049658750067465,None,573.7240042079939,573.7240688329912,None,573.7241312080005,573.7241709579976,None,,,,,,,,,,,4,7,0,1,2025-02-06_13h39.58.023,rtmindeye,2024.2.4,None,2025-02-06 13h40.14.696244 -0500,
all_stimuli/MST_pairs1/pair_12_16_78.png,35,0,35,35,0,,,,1,0,1,7,1,"[9, 21, 31, 45, 56, 68, 69]",2,1,1.2093828320066677,0.44711658399319276,None,None,None,,,,,,,,,,,1,0,1,0,0,35,35,35,573.8313272499945,,,,,,,,,,,,,,,,,,,,,,573.7246672499896,573.7248606249923,573.8259142499883,573.8313272499945,573.8313272499945,573.8313272499945,573.8313272499945,576.8275347499875,576.8275347499875,577.7274358750001,2,1,1.2093828320066677,0.44711658399319276,None,577.7276526249916,577.7277021249902,None,577.7277614579943,577.7278038329969,None,,,,,,,,,,,4,7,0,1,2025-02-06_13h39.58.023,rtmindeye,2024.2.4,None,2025-02-06 13h40.14.696244 -0500,
all_stimuli/special515/special_4249.jpg,36,0,36,36,0,,,,1,0,1,7,1,"[9, 21, 31, 45, 56, 68, 69]",2,1,1.1718469159968663,0.7369943329977104,None,None,None,,,,,,,,,,,1,0,1,0,0,36,36,36,577.8119472919934,,,,,,,,,,,,,,,,,,,,,,577.7282932919916,577.7285663749935,577.8077857919998,577.8119472919934,577.8119472919934,577.8119472919934,577.8119472919934,580.8251606249978,580.8251606249978,581.7406167079898,2,1,1.1718469159968663,0.7369943329977104,None,581.7409138749936,581.7409863749926,None,581.7411242079979,581.7412043329969,None,,,,,,,,,,,4,7,0,1,2025-02-06_13h39.58.023,rtmindeye,2024.2.4,None,2025-02-06 13h40.14.696244 -0500,
all_stimuli/MST_pairs1/pair_42_w_icerink2.jpg,37,0,37,37,0,,,,1,0,1,7,1,"[9, 21, 31, 45, 56, 68, 69]",2,1,2.124016374000348,0.22301920800236985,None,None,None,,,,,,,,,,,1,0,1,0,0,37,37,37,581.8207713749871,,,,,,,,,,,,,,,,,,,,,,581.7418486249953,581.7421515419992,581.816978332994,581.8207713749871,581.8207713749871,581.8207713749871,581.8207713749871,584.8106900419953,584.8106900419953,585.7585689579864,2,1,2.124016374000348,0.22301920800236985,None,585.7587966669962,585.7588499169942,None,585.7589076250006,585.7589519579924,None,,,,,,,,,,,4,7,0,1,2025-02-06_13h39.58.023,rtmindeye,2024.2.4,None,2025-02-06 13h40.14.696244 -0500,
all_stimuli/shared1000_notspecial/notspecial_70038.png,38,0,38,38,0,,,,0,0,1,7,1,"[9, 21, 31, 45, 56, 68, 69]",2,0,2.7207565830030944,None,None,None,None,,,,,,,,,,,1,0,1,0,0,38,38,38,586.088974541999,,,,,,,,,,,,,,,,,,,,,,585.7595018329885,585.7597767919942,586.0831280419952,586.088974541999,586.088974541999,586.088974541999,586.088974541999,589.0779672919889,589.0779672919889,589.7615020419908,2,0,2.7207565830030944,None,None,589.7616652079887,589.7617070829874,None,589.761752624996,589.7617844169872,None,,,,,,,,,,,4,7,0,1,2025-02-06_13h39.58.023,rtmindeye,2024.2.4,None,2025-02-06 13h40.14.696244 -0500,
all_stimuli/special515/special_53155.jpg,39,0,39,39,0,,,,0,0,1,7,1,"[9, 21, 31, 45, 56, 68, 69]",1,1,0.8465064999909373,0.5409912909963168,None,None,None,,,,,,,,,,,1,0,1,0,0,39,39,39,589.875306832997,,,,,,,,,,,,,,,,,,,,,,589.7621939999954,589.7623602499953,589.870397916995,589.875306832997,589.875306832997,589.875306832997,589.875306832997,592.8734416669904,592.8734416669904,593.774537624995,1,1,0.8465064999909373,0.5409912909963168,None,593.7747712919954,593.7748299999948,None,593.7749032499996,593.7749501249928,None,,,,,,,,,,,4,7,0,1,2025-02-06_13h39.58.023,rtmindeye,2024.2.4,None,2025-02-06 13h40.14.696244 -0500,
all_stimuli/special515/special_24530.jpg,40,0,40,40,0,,,,1,0,1,7,1,"[9, 21, 31, 45, 56, 68, 69]",2,1,1.5373869989998639,0.4999655830033589,None,None,None,,,,,,,,,,,1,0,1,0,0,40,40,40,593.945411875,,,,,,,,,,,,,,,,,,,,,,593.7755008749955,593.7758725829917,593.9409448749939,593.945411875,593.945411875,593.945411875,593.945411875,596.9434951669973,596.9434951669973,597.776337541989,2,1,1.5373869989998639,0.4999655830033589,None,597.7764949579869,597.776542416992,None,597.7765910419985,597.776627291998,None,,,,,,,,,,,4,7,0,1,2025-02-06_13h39.58.023,rtmindeye,2024.2.4,None,2025-02-06 13h40.14.696244 -0500,
all_stimuli/special515/special_32232.jpg,41,0,41,41,0,,,,0,0,1,7,1,"[9, 21, 31, 45, 56, 68, 69]",1,1,1.0318175409920514,0.6769852919969708,None,None,None,,,,,,,,,,,1,0,1,0,0,41,41,41,597.9178772919986,,,,,,,,,,,,,,,,,,,,,,597.7769877919927,597.7771468749997,597.9145236669865,597.9178772919986,597.9178772919986,597.9178772919986,597.9178772919986,600.9103822499892,600.9103822499892,601.7897231249954,1,1,1.0318175409920514,0.6769852919969708,None,601.7899397919973,601.7900097499951,None,601.7901141670009,601.7901719169895,None,,,,,,,,,,,4,7,0,1,2025-02-06_13h39.58.023,rtmindeye,2024.2.4,None,2025-02-06 13h40.14.696244 -0500,
all_stimuli/special515/special_41814.jpg,42,0,42,42,0,,,,0,0,1,7,1,"[9, 21, 31, 45, 56, 68, 69]",1,1,0.9113582489953842,0.41800345899537206,None,None,None,,,,,,,,,,,1,0,1,0,0,42,42,42,601.916400874994,,,,,,,,,,,,,,,,,,,,,,601.7907773749903,601.7909303329943,601.9130682919931,601.916400874994,601.916400874994,601.916400874994,601.916400874994,604.9097473750007,604.9097473750007,605.7940444169944,1,1,0.9113582489953842,0.41800345899537206,None,605.7942223329883,605.79427033299,None,605.794319624998,605.7943639579898,None,,,,,,,,,,,4,7,0,1,2025-02-06_13h39.58.023,rtmindeye,2024.2.4,None,2025-02-06 13h40.14.696244 -0500,
all_stimuli/shared1000_notspecial/notspecial_23883.png,43,0,43,43,0,,,,0,0,1,7,1,"[9, 21, 31, 45, 56, 68, 69]",1,1,0.7592543329956243,0.26700083300238475,None,None,None,,,,,,,,,,,1,0,1,0,0,43,43,43,605.9695937919896,,,,,,,,,,,,,,,,,,,,,,605.7947404169972,605.7949086669978,605.9675158329919,605.9695937919896,605.9695937919896,605.9695937919896,605.9695937919896,608.9604737079935,608.9604737079935,609.8064939999895,1,1,0.7592543329956243,0.26700083300238475,None,609.806768874987,609.8068563329871,None,609.8070138749899,609.8071959579975,None,,,,,,,,,,,4,7,0,1,2025-02-06_13h39.58.023,rtmindeye,2024.2.4,None,2025-02-06 13h40.14.696244 -0500,
all_stimuli/shared1000_notspecial/notspecial_4436.png,44,0,44,44,0,,,,0,0,1,7,1,"[9, 21, 31, 45, 56, 68, 69]",1,1,1.3046138740028255,0.34200795799552,None,None,None,,,,,,,,,,,1,0,1,0,0,44,44,44,609.9851510000008,,,,,,,,,,,,,,,,,,,,,,609.8078589579964,609.8080389169918,609.9814308749919,609.9851510000008,609.9851510000008,609.9851510000008,609.9851510000008,612.9775210419903,612.9775210419903,613.809648208,1,1,1.3046138740028255,0.34200795799552,None,613.8098027919914,613.8098548749986,None,613.8099017499917,613.8099373329896,None,,,,,,,,,,,4,7,0,1,2025-02-06_13h39.58.023,rtmindeye,2024.2.4,None,2025-02-06 13h40.14.696244 -0500,
blank.jpg,45,1,45,45,0,,,,0,0,1,7,1,"[9, 21, 31, 45, 56, 68, 69]",None,0,,,None,None,None,,,,,,,,,,,1,0,1,0,0,45,45,45,613.8853570419888,,,,,,,,,,,,,,,,,,,,,,613.8103207919921,613.8104650829919,613.881945791989,613.8853570419888,613.8853570419888,613.8853570419888,613.8853570419888,616.876115082996,616.876115082996,617.8233430830005,None,0,,,None,617.8236039999902,617.8237137499964,None,617.8237879579974,617.8238443329901,None,,,,,,,,,,,4,7,0,1,2025-02-06_13h39.58.023,rtmindeye,2024.2.4,None,2025-02-06 13h40.14.696244 -0500,
all_stimuli/special515/special_61133.jpg,46,0,46,46,0,,,,1,0,1,7,1,"[9, 21, 31, 45, 56, 68, 69]",2,1,1.2522698740067426,0.5150090419920161,None,None,None,,,,,,,,,,,1,0,1,0,0,46,46,46,617.9214499169902,,,,,,,,,,,,,,,,,,,,,,617.8243674169935,617.8246132499917,617.9177058329951,617.9214499169902,617.9214499169902,617.9214499169902,617.9214499169902,620.909900374987,620.909900374987,621.827516291989,2,1,1.2522698740067426,0.5150090419920161,None,621.8276894169976,621.8277372079901,None,621.8278009999922,621.827841374994,None,,,,,,,,,,,4,7,0,1,2025-02-06_13h39.58.023,rtmindeye,2024.2.4,None,2025-02-06 13h40.14.696244 -0500,
all_stimuli/MST_pairs1/pair_24_nsd_158_2_cocoid_3673.png,47,0,47,47,0,,,,0,0,1,7,1,"[9, 21, 31, 45, 56, 68, 69]",2,0,1.8837296659912681,0.49503466700844,None,None,None,,,,,,,,,,,1,0,1,0,0,47,47,47,622.0151282079896,,,,,,,,,,,,,,,,,,,,,,621.8282662499987,621.8284334579948,622.0129824999894,622.0151282079896,622.0151282079896,622.0151282079896,622.0151282079896,625.0107437919942,625.0107437919942,625.8401682080003,2,0,1.8837296659912681,0.49503466700844,None,625.8403582079918,625.8404089999967,None,625.840464791996,625.8405063329992,None,,,,,,,,,,,4,7,0,1,2025-02-06_13h39.58.023,rtmindeye,2024.2.4,None,2025-02-06 13h40.14.696244 -0500,
all_stimuli/MST_pairs1/pair_34_nsd_875_2_cocoid_72398.png,48,0,48,48,0,,,,0,0,1,7,1,"[9, 21, 31, 45, 56, 68, 69]",2,0,1.1999889989965595,0.26399829200818203,None,None,None,,,,,,,,,,,1,0,1,0,0,48,48,48,626.1527408330003,,,,,,,,,,,,,,,,,,,,,,625.8410066249926,625.8411979579978,626.1484955829947,626.1527408330003,626.1527408330003,626.1527408330003,626.1527408330003,629.1434757499956,629.1434757499956,629.8431903749879,2,0,1.1999889989965595,0.26399829200818203,None,629.843378791993,629.8434290000005,None,629.843478291994,629.8435173329926,None,,,,,,,,,,,4,7,0,1,2025-02-06_13h39.58.023,rtmindeye,2024.2.4,None,2025-02-06 13h40.14.696244 -0500,
all_stimuli/shared1000_notspecial/notspecial_51965.png,49,0,49,49,0,,,,0,0,1,7,1,"[9, 21, 31, 45, 56, 68, 69]",2,0,1.3576435830036644,0.24600666599872056,None,None,None,,,,,,,,,,,1,0,1,0,0,49,49,49,629.9981926670007,,,,,,,,,,,,,,,,,,,,,,629.8439273330005,629.8440724169923,629.9947319579951,629.9981926670007,629.9981926670007,629.9981926670007,629.9981926670007,632.9927494999865,632.9927494999865,633.8564944999962,2,0,1.3576435830036644,0.24600666599872056,None,633.8567191670008,633.8567884169897,None,633.8568647499924,633.8569203329971,None,,,,,,,,,,,4,7,0,1,2025-02-06_13h39.58.023,rtmindeye,2024.2.4,None,2025-02-06 13h40.14.696244 -0500,
all_stimuli/MST_pairs1/pair_30_nsd_676_1_cocoid_48729.png,50,0,50,50,0,,,,0,0,1,7,1,"[9, 21, 31, 45, 56, 68, 69]",1,1,1.6018437500024447,0.3830013330007205,None,None,None,,,,,,,,,,,1,0,1,0,0,50,50,50,634.0560260419879,,,,,,,,,,,,,,,,,,,,,,633.8575405419979,633.8577496669895,634.0535495419899,634.0560260419879,634.0560260419879,634.0560260419879,634.0560260419879,637.0425162499887,637.0425162499887,637.8613352919929,1,1,1.6018437500024447,0.3830013330007205,None,637.8614997080003,637.8615469579963,None,637.8616009169928,637.861648207996,None,,,,,,,,,,,4,7,0,1,2025-02-06_13h39.58.023,rtmindeye,2024.2.4,None,2025-02-06 13h40.14.696244 -0500,
all_stimuli/shared1000_notspecial/notspecial_52328.png,51,0,51,51,0,,,,0,0,1,7,1,"[9, 21, 31, 45, 56, 68, 69]",1,1,1.3876752910000505,0.34802054199099075,None,None,None,,,,,,,,,,,1,0,1,0,0,51,51,51,638.0521968749963,,,,,,,,,,,,,,,,,,,,,,637.862076541991,637.8622341249866,638.0487647919945,638.0521968749963,638.0521968749963,638.0521968749963,638.0521968749963,641.0438649169955,641.0438649169955,641.873512332997,1,1,1.3876752910000505,0.34802054199099075,None,641.8738212499884,641.8738891669927,None,641.873972166999,641.8740314999886,None,,,,,,,,,,,4,7,0,1,2025-02-06_13h39.58.023,rtmindeye,2024.2.4,None,2025-02-06 13h40.14.696244 -0500,
all_stimuli/MST_pairs1/pair_4_6_44.png,52,0,52,52,0,,,,0,0,1,7,1,"[9, 21, 31, 45, 56, 68, 69]",1,1,0.9313797909999266,0.3609937079891097,None,None,None,,,,,,,,,,,1,0,1,0,0,52,52,52,642.0844292919937,,,,,,,,,,,,,,,,,,,,,,641.8745923329989,641.8748258749984,642.0811016249936,642.0844292919937,642.0844292919937,642.0844292919937,642.0844292919937,645.0772011669906,645.0772011669906,645.877799666996,1,1,0.9313797909999266,0.3609937079891097,None,645.8779694580007,645.8780134169938,None,645.8780648329994,645.8781010419916,None,,,,,,,,,,,4,7,0,1,2025-02-06_13h39.58.023,rtmindeye,2024.2.4,None,2025-02-06 13h40.14.696244 -0500,
all_stimuli/MST_pairs1/pair_48_w_runway1.jpg,53,0,53,53,0,,,,0,0,1,7,1,"[9, 21, 31, 45, 56, 68, 69]",1,1,1.5317701659951126,0.5320017079939134,None,None,None,,,,,,,,,,,1,0,1,0,0,53,53,53,646.0140285829984,,,,,,,,,,,,,,,,,,,,,,645.8784783329902,645.8786378329969,646.0103282079945,646.0140285829984,646.0140285829984,646.0140285829984,646.0140285829984,649.0098104999925,649.0098104999925,649.8896000829991,1,1,1.5317701659951126,0.5320017079939134,None,649.8897446669871,649.8897840829886,None,649.8898258329864,649.8898562499962,None,,,,,,,,,,,4,7,0,1,2025-02-06_13h39.58.023,rtmindeye,2024.2.4,None,2025-02-06 13h40.14.696244 -0500,
all_stimuli/special515/special_40840.jpg,54,0,54,54,0,,,,1,0,1,7,1,"[9, 21, 31, 45, 56, 68, 69]",2,1,2.8692046250071144,None,None,None,None,,,,,,,,,,,1,0,1,0,0,54,54,54,650.0195787079865,,,,,,,,,,,,,,,,,,,,,,649.8902473329945,649.8903920829907,650.0162841669953,650.0195787079865,650.0195787079865,650.0195787079865,650.0195787079865,653.0096612079942,653.0096612079942,653.8942636669963,2,1,2.8692046250071144,None,None,653.8944357500004,653.8944843329955,None,653.8945467919984,653.8945908749884,None,,,,,,,,,,,4,7,0,1,2025-02-06_13h39.58.023,rtmindeye,2024.2.4,None,2025-02-06 13h40.14.696244 -0500,
all_stimuli/shared1000_notspecial/notspecial_12487.png,55,0,55,55,0,,,,0,0,1,7,1,"[9, 21, 31, 45, 56, 68, 69]",None,0,,,['2'],None,None,[0.9713970410084585],[0.2429989999945974],,,,,,,,,1,0,1,0,0,55,55,55,654.018547249987,,,,,,,,,,,,,,,,,,,,,,653.8950156669889,653.8951739170006,654.0161306669906,654.018547249987,654.018547249987,654.018547249987,654.018547249987,657.0101826249884,657.0101826249884,657.9065457499964,None,0,,,['2'],657.9069229999877,657.9070072079921,None,657.9071387500007,657.9072007499926,None,[0.9713970410084585],[0.2429989999945974],,,,,,,,,4,7,0,1,2025-02-06_13h39.58.023,rtmindeye,2024.2.4,None,2025-02-06 13h40.14.696244 -0500,
blank.jpg,56,1,56,56,0,,,,0,0,1,7,1,"[9, 21, 31, 45, 56, 68, 69]",None,0,,,None,None,None,,,,,,,,,,,1,0,1,0,0,56,56,56,658.039744291993,,,,,,,,,,,,,,,,,,,,,,657.9077387079888,657.9079390419938,658.0363253749965,658.039744291993,658.039744291993,658.039744291993,658.039744291993,661.0272362919932,661.0272362919932,661.90958016699,None,0,,,None,661.9097515829926,661.9098049999884,None,661.9098582499864,661.9098989999911,None,,,,,,,,,,,4,7,0,1,2025-02-06_13h39.58.023,rtmindeye,2024.2.4,None,2025-02-06 13h40.14.696244 -0500,
all_stimuli/MST_pairs1/pair_16_20_0.png,57,0,57,57,0,,,,1,0,1,7,1,"[9, 21, 31, 45, 56, 68, 69]",2,1,0.7571644580020802,0.2630245409964118,None,None,None,,,,,,,,,,,1,0,1,0,0,57,57,57,662.1026690829895,,,,,,,,,,,,,,,,,,,,,,661.9103037499881,661.9104613329982,662.0989430829941,662.1026690829895,662.1026690829895,662.1026690829895,662.1026690829895,665.0928131249966,665.0928131249966,665.9234178749903,2,1,0.7571644580020802,0.2630245409964118,None,665.923702,665.9237910829979,None,665.9238687920006,665.9239184999897,None,,,,,,,,,,,4,7,0,1,2025-02-06_13h39.58.023,rtmindeye,2024.2.4,None,2025-02-06 13h40.14.696244 -0500,
all_stimuli/shared1000_notspecial/notspecial_12685.png,58,0,58,58,0,,,,0,0,1,7,1,"[9, 21, 31, 45, 56, 68, 69]",1,1,1.2060510409937706,0.48000245800358243,None,None,None,,,,,,,,,,,1,0,1,0,0,58,58,58,666.2408570419939,,,,,,,,,,,,,,,,,,,,,,665.9244464169897,665.9246157499874,666.2371574999997,666.2408570419939,666.2408570419939,666.2408570419939,666.2408570419939,669.2401167919888,669.2401167919888,669.9270675419975,1,1,1.2060510409937706,0.48000245800358243,None,669.9272260829894,669.9272662500007,None,669.9273123749881,669.9273509579943,None,,,,,,,,,,,4,7,0,1,2025-02-06_13h39.58.023,rtmindeye,2024.2.4,None,2025-02-06 13h40.14.696244 -0500,
all_stimuli/MST_pairs1/pair_36_nsd_949_2_cocoid_60031.png,59,0,59,59,0,,,,0,0,1,7,1,"[9, 21, 31, 45, 56, 68, 69]",1,1,1.2361546659958549,0.4429990829958115,None,None,None,,,,,,,,,,,1,0,1,0,0,59,59,59,670.1738094169996,,,,,,,,,,,,,,,,,,,,,,669.9277034169936,669.9278305829939,670.1717222919979,670.1738094169996,670.1738094169996,670.1738094169996,670.1738094169996,673.1591029579868,673.1591029579868,673.9396806250006,1,1,1.2361546659958549,0.4429990829958115,None,673.9398272079998,673.9398655829864,None,673.9399084579927,673.9399497919949,None,,,,,,,,,,,4,7,0,1,2025-02-06_13h39.58.023,rtmindeye,2024.2.4,None,2025-02-06 13h40.14.696244 -0500,
all_stimuli/shared1000_notspecial/notspecial_34068.png,60,0,60,60,0,,,,0,0,1,7,1,"[9, 21, 31, 45, 56, 68, 69]",1,1,1.1092632910003886,0.3730121669941582,None,None,None,,,,,,,,,,,1,0,1,0,0,60,60,60,674.1225880419952,,,,,,,,,,,,,,,,,,,,,,673.9403433330008,673.9404947079893,674.1189412079984,674.1225880419952,674.1225880419952,674.1225880419952,674.1225880419952,677.1098197919928,677.1098197919928,677.9438722499908,1,1,1.1092632910003886,0.3730121669941582,None,677.9440374999976,677.9440839169984,None,677.9441458749934,677.9441965000005,None,,,,,,,,,,,4,7,0,1,2025-02-06_13h39.58.023,rtmindeye,2024.2.4,None,2025-02-06 13h40.14.696244 -0500,
all_stimuli/special515/special_11159.jpg,61,0,61,61,0,,,,0,0,1,7,1,"[9, 21, 31, 45, 56, 68, 69]",1,1,1.594974748993991,0.41200858300726395,None,None,None,,,,,,,,,,,1,0,1,0,0,61,61,61,678.1038779169903,,,,,,,,,,,,,,,,,,,,,,677.9446194579941,677.944783125,678.1004501669959,678.1038779169903,678.1038779169903,678.1038779169903,678.1038779169903,681.0940736249904,681.0940736249904,681.9564817079954,1,1,1.594974748993991,0.41200858300726395,None,681.9566914579918,681.9567590419902,None,681.9568399579875,681.9568982919882,None,,,,,,,,,,,4,7,0,1,2025-02-06_13h39.58.023,rtmindeye,2024.2.4,None,2025-02-06 13h40.14.696244 -0500,
all_stimuli/MST_pairs1/pair_34_nsd_875_2_cocoid_72398.png,62,0,62,62,0,,,,1,0,1,7,1,"[9, 21, 31, 45, 56, 68, 69]",1,0,1.2453296250023413,0.5170011659938609,None,None,None,,,,,,,,,,,1,0,1,0,0,62,62,62,682.1116258749971,,,,,,,,,,,,,,,,,,,,,,681.9573782499938,681.9575501249928,682.1095995829965,682.1116258749971,682.1116258749971,682.1116258749971,682.1116258749971,685.110103125,685.110103125,685.9607468749891,1,0,1.2453296250023413,0.5170011659938609,None,685.9609132919868,685.9609717499989,None,685.9610244999931,685.9610655419965,None,,,,,,,,,,,4,7,0,1,2025-02-06_13h39.58.023,rtmindeye,2024.2.4,None,2025-02-06 13h40.14.696244 -0500,
all_stimuli/special515/special_67742.jpg,63,0,63,63,0,,,,0,0,1,7,1,"[9, 21, 31, 45, 56, 68, 69]",1,1,1.1698471659910865,0.3779895839979872,None,None,None,,,,,,,,,,,1,0,1,0,0,63,63,63,686.1030532500008,,,,,,,,,,,,,,,,,,,,,,685.9615073749883,685.9616957499966,686.0997114999918,686.1030532500008,686.1030532500008,686.1030532500008,686.1030532500008,689.0929164169938,689.0929164169938,689.9736127079959,1,1,1.1698471659910865,0.3779895839979872,None,689.9739582079928,689.9741329999961,None,689.9742464169976,689.9743438329897,None,,,,,,,,,,,4,7,0,1,2025-02-06_13h39.58.023,rtmindeye,2024.2.4,None,2025-02-06 13h40.14.696244 -0500,
all_stimuli/MST_pairs1/pair_48_w_runway2.jpg,64,0,64,64,0,,,,0,0,1,7,1,"[9, 21, 31, 45, 56, 68, 69]",2,0,2.9005402910115663,None,None,None,None,,,,,,,,,,,1,0,1,0,0,64,64,64,690.1434127079992,,,,,,,,,,,,,,,,,,,,,,689.9751057079993,689.9754261669877,690.1404029580008,690.1434127079992,690.1434127079992,690.1434127079992,690.1434127079992,693.1397522079933,693.1397522079933,693.9775536669913,2,0,2.9005402910115663,None,None,693.9777108329872,693.9777551250008,None,693.9778024579864,693.977843124987,None,,,,,,,,,,,4,7,0,1,2025-02-06_13h39.58.023,rtmindeye,2024.2.4,None,2025-02-06 13h40.14.696244 -0500,
all_stimuli/MST_pairs1/pair_40_w_escalator1.jpg,65,0,65,65,0,,,,0,0,1,7,1,"[9, 21, 31, 45, 56, 68, 69]",1,1,1.1078342489927309,0.29602704200078733,None,None,None,,,,,,,,,,,1,0,1,0,0,65,65,65,694.1480159169878,,,,,,,,,,,,,,,,,,,,,,693.9782359169913,693.9783985419926,694.1443511669931,694.1480159169878,694.1480159169878,694.1480159169878,694.1480159169878,697.1424138750008,697.1424138750008,697.9901037919917,1,1,1.1078342489927309,0.29602704200078733,None,697.9903404579964,697.9904281669878,None,697.9905824999878,697.9906605419965,None,,,,,,,,,,,4,7,0,1,2025-02-06_13h39.58.023,rtmindeye,2024.2.4,None,2025-02-06 13h40.14.696244 -0500,
all_stimuli/special515/special_62228.jpg,66,0,66,66,0,,,,1,0,1,7,1,"[9, 21, 31, 45, 56, 68, 69]",2,1,1.1590844570018817,0.3290046250040177,None,None,None,,,,,,,,,,,1,0,1,0,0,66,66,66,698.0977931669913,,,,,,,,,,,,,,,,,,,,,,697.9912106669944,697.9914481669985,698.0943839579995,698.0977931669913,698.0977931669913,698.0977931669913,698.0977931669913,701.0927624579926,701.0927624579926,701.9942792919901,2,1,1.1590844570018817,0.3290046250040177,None,701.994457791996,701.9945077919983,None,701.9945654170006,701.9946114579943,None,,,,,,,,,,,4,7,0,1,2025-02-06_13h39.58.023,rtmindeye,2024.2.4,None,2025-02-06 13h40.14.696244 -0500,
all_stimuli/MST_pairs1/pair_26_nsd_483_2_cocoid_8054.png,67,0,67,67,0,,,,0,0,1,7,1,"[9, 21, 31, 45, 56, 68, 69]",1,1,1.0176164159929613,0.37002891600423027,None,None,None,,,,,,,,,,,1,0,1,0,0,67,67,67,702.36837916699,,,,,,,,,,,,,,,,,,,,,,701.9950317919865,701.9951968749956,702.3649839579884,702.36837916699,702.36837916699,702.36837916699,702.36837916699,705.3576186249993,705.3576186249993,706.0071083749935,1,1,1.0176164159929613,0.37002891600423027,None,706.0075589169865,706.0076604169881,None,706.0077712499915,706.0078502919932,None,,,,,,,,,,,4,7,0,1,2025-02-06_13h39.58.023,rtmindeye,2024.2.4,None,2025-02-06 13h40.14.696244 -0500,
blank.jpg,68,1,68,68,0,,,,0,0,1,7,1,"[9, 21, 31, 45, 56, 68, 69]",None,0,,,None,None,None,,,,,,,,,,,1,0,1,0,0,68,68,68,706.0816077919881,,,,,,,,,,,,,,,,,,,,,,706.0085959169955,706.0088914169901,706.0781251249864,706.0816077919881,706.0816077919881,706.0816077919881,706.0816077919881,709.0763553329889,709.0763553329889,710.0096574999916,None,0,,,None,710.0097841669922,710.0098283330008,None,710.009870791997,710.0099118329963,None,,,,,,,,,,,4,7,0,1,2025-02-06_13h39.58.023,rtmindeye,2024.2.4,None,2025-02-06 13h40.14.696244 -0500,
blank.jpg,69,1,69,69,0,,,,0,1,1,7,0,"[9, 21, 31, 45, 56, 68, 69]",None,0,,,None,1,equal,,,6.409322082996368,None,23.698779332000413,None,,,,,1,0,1,0,0,69,69,69,710.0684355419944,,,,,,,,,,,,,,,,,,,,,,710.0102481669892,710.0103786669933,710.0648736669973,710.0684355419944,710.0684355419944,710.0684355419944,710.0684355419944,713.0611786249938,713.0611786249938,714.0118479999946,None,0,,,None,714.0248818749969,720.443121416989,1,720.4433981249895,744.1606173749897,equal,,,714.0278439999965,714.0278439999965,6.409322082996368,None,720.4523789169907,720.4523789169907,23.698779332000413,None,4,7,0,1,2025-02-06_13h39.58.023,rtmindeye,2024.2.4,None,2025-02-06 13h40.14.696244 -0500,
,,,1,0,1,,,,,,,,,,,,,,,,,,,,,,,,,,,1,0,1,0,,,,,,,,,,,,,,,,,,,,,,,,,,,,,,,,,,,,,,,,,,,,,,,,,,,,,,,,,,4,7,0,1,2025-02-06_13h39.58.023,rtmindeye,2024.2.4,None,2025-02-06 13h40.14.696244 -0500,
all_stimuli/shared1000_notspecial/notspecial_19672.png,0,0,0,0,0,,,,0,0,2,7,1,"[9, 21, 31, 45, 56, 68, 69]",None,0,,,None,None,None,,,,,,,,,,,2,0,2,0,0,0,0,0,744.5678548750002,,,,,,,,,,,,,,,,,,,,,,744.3468007499905,744.3476047919976,744.5590588329942,744.5678548750002,744.5678548750002,744.5678548750002,744.5678548750002,747.5605833749869,747.5605833749869,748.3572125419887,None,0,,,None,748.357461874999,748.3575404999865,None,748.3576794580003,748.3577624999889,None,,,,,,,,,,,4,7,0,1,2025-02-06_13h39.58.023,rtmindeye,2024.2.4,None,2025-02-06 13h40.14.696244 -0500,
all_stimuli/special515/special_55526.jpg,1,0,1,1,0,,,,0,0,2,7,1,"[9, 21, 31, 45, 56, 68, 69]",None,0,,,['1'],None,None,[3.1699820409994572],[0.2730076660081977],,,,,,,,,2,0,2,0,0,1,1,1,748.5100594999967,,,,,,,,,,,,,,,,,,,,,,748.3584346249991,748.3586765829968,748.5051153329987,748.5100594999967,748.5100594999967,748.5100594999967,748.5100594999967,751.5069697500003,751.5069697500003,752.361288791988,None,0,,,['1'],752.3615006249893,752.3615412919899,None,752.3615868749912,752.3616195829964,None,[3.1699820409994572],[0.2730076660081977],,,,,,,,,4,7,0,1,2025-02-06_13h39.58.023,rtmindeye,2024.2.4,None,2025-02-06 13h40.14.696244 -0500,
all_stimuli/MST_pairs1/pair_22_nsd_115_1_cocoid_8171.png,2,0,2,2,0,,,,0,0,2,7,1,"[9, 21, 31, 45, 56, 68, 69]",2,0,1.6579280820005806,0.4159604589949595,None,None,None,,,,,,,,,,,2,0,2,0,0,2,2,2,752.6511000419996,,,,,,,,,,,,,,,,,,,,,,752.3619650829933,752.3621201249916,752.6456649169995,752.6511000419996,752.6511000419996,752.6511000419996,752.6511000419996,755.644541207992,755.644541207992,756.374004792,2,0,1.6579280820005806,0.4159604589949595,None,756.3742817499879,756.3743548329949,None,756.3745059999928,756.3746071249916,None,,,,,,,,,,,4,7,0,1,2025-02-06_13h39.58.023,rtmindeye,2024.2.4,None,2025-02-06 13h40.14.696244 -0500,
all_stimuli/special515/special_13613.jpg,3,0,3,3,0,,,,1,0,2,7,1,"[9, 21, 31, 45, 56, 68, 69]",2,1,0.849805207006284,0.48601816699374467,None,None,None,,,,,,,,,,,2,0,2,0,0,3,3,3,756.5012873329979,,,,,,,,,,,,,,,,,,,,,,756.3753075829882,756.3755799999926,756.4975629580003,756.5012873329979,756.5012873329979,756.5012873329979,756.5012873329979,759.5085930419882,759.5085930419882,760.3783141249878,2,1,0.849805207006284,0.48601816699374467,None,760.3784951249982,760.3785413329897,None,760.3785867919942,760.3786184579949,None,,,,,,,,,,,4,7,0,1,2025-02-06_13h39.58.023,rtmindeye,2024.2.4,None,2025-02-06 13h40.14.696244 -0500,
all_stimuli/shared1000_notspecial/notspecial_28487.png,4,0,4,4,0,,,,0,0,2,7,1,"[9, 21, 31, 45, 56, 68, 69]",1,1,1.5788784580072388,0.4229890830029035,None,None,None,,,,,,,,,,,2,0,2,0,0,4,4,4,760.5701342919929,,,,,,,,,,,,,,,,,,,,,,760.3789763329987,760.3791689999925,760.5637269169965,760.5701342919929,760.5701342919929,760.5701342919929,760.5701342919929,763.5608261249872,763.5608261249872,764.390753832995,1,1,1.5788784580072388,0.4229890830029035,None,764.3910154170007,764.3910678749962,None,764.3911428329884,764.3912377079978,None,,,,,,,,,,,4,7,0,1,2025-02-06_13h39.58.023,rtmindeye,2024.2.4,None,2025-02-06 13h40.14.696244 -0500,
all_stimuli/special515/special_28524.jpg,5,0,5,5,0,,,,1,0,2,7,1,"[9, 21, 31, 45, 56, 68, 69]",2,1,1.0677807070023846,0.6669140419980977,None,None,None,,,,,,,,,,,2,0,2,0,0,5,5,5,764.5053597499937,,,,,,,,,,,,,,,,,,,,,,764.3917748749955,764.3919766249892,764.5013484169904,764.5053597499937,764.5053597499937,764.5053597499937,764.5053597499937,767.4944451249903,767.4944451249903,768.394222124989,2,1,1.0677807070023846,0.6669140419980977,None,768.3943833749945,768.39442529199,None,768.3944846249942,768.3945171669911,None,,,,,,,,,,,4,7,0,1,2025-02-06_13h39.58.023,rtmindeye,2024.2.4,None,2025-02-06 13h40.14.696244 -0500,
all_stimuli/MST_pairs1/pair_44_w_log_cabin1.jpg,6,0,6,6,0,,,,0,0,2,7,1,"[9, 21, 31, 45, 56, 68, 69]",2,0,1.2236490819923347,0.6880002499965485,None,None,None,,,,,,,,,,,2,0,2,0,0,6,6,6,768.564356582996,,,,,,,,,,,,,,,,,,,,,,768.3949254579929,768.3951128749904,768.5587032919866,768.564356582996,768.564356582996,768.564356582996,768.564356582996,771.574552207996,771.574552207996,772.4071849169995,2,0,1.2236490819923347,0.6880002499965485,None,772.4074040829873,772.4075185830006,None,772.4075984169904,772.4076434169983,None,,,,,,,,,,,4,7,0,1,2025-02-06_13h39.58.023,rtmindeye,2024.2.4,None,2025-02-06 13h40.14.696244 -0500,
all_stimuli/special515/special_71241.jpg,7,0,7,7,0,,,,0,0,2,7,1,"[9, 21, 31, 45, 56, 68, 69]",1,1,1.2331089159997646,0.6690627920033876,None,None,None,,,,,,,,,,,2,0,2,0,0,7,7,7,772.5469172919984,,,,,,,,,,,,,,,,,,,,,,772.4081484169874,772.4083279579936,772.541842666993,772.5469172919984,772.5469172919984,772.5469172919984,772.5469172919984,775.5454111669969,775.5454111669969,776.4112317499967,1,1,1.2331089159997646,0.6690627920033876,None,776.4114292499871,776.4114777499926,None,776.4115300829872,776.4115707499877,None,,,,,,,,,,,4,7,0,1,2025-02-06_13h39.58.023,rtmindeye,2024.2.4,None,2025-02-06 13h40.14.696244 -0500,
