current_image,trial_index,is_blank_trial,thisN,thisTrialN,thisRepN,press_if_repeat_2.keys,press_if_repeat_2.corr,all_keys_pressed_2.keys,is_repeat,is_new_run,run_num,sess_num,is_not_last_trial,all_blanks_list,press_if_repeat.keys,press_if_repeat.corr,press_if_repeat.rt,press_if_repeat.duration,all_keys_pressed.keys,key_resp_5.keys,key_resp_4.keys,key_resp_5.rt,key_resp_5.duration,key_resp_4.rt,key_resp_4.duration,practice.thisRepN,practice.thisTrialN,practice.thisN,practice.thisIndex,loop_runs.thisRepN,loop_runs.thisTrialN,loop_runs.thisN,loop_runs.thisIndex,loop_all_images.thisRepN,loop_all_images.thisTrialN,loop_all_images.thisN,loop_all_images.thisIndex,thisRow.t,notes,set_up.started,set_up.stopped,practice_continue.started,practice_continue.stopped,key_resp_6.keys,practice_trial.started,practice_trial.stopped,practice.press_if_repeat_2.keys,practice.press_if_repeat_2.corr,practice.all_keys_pressed_2.keys,testing_continue.started,testing_continue.stopped,key_resp_7.keys,waiting_fmri.started,key_resp_2.started,text_3.started,waiting_fmri.stopped,key_resp_2.keys,key_resp_2.rt,key_resp_2.duration,set_skips_and_correct_key.started,set_skips_and_correct_key.stopped,trial.started,image.started,press_if_repeat.started,polygon.started,all_keys_pressed.started,image.stopped,press_if_repeat.stopped,trial.stopped,loop_all_images.press_if_repeat.keys,loop_all_images.press_if_repeat.corr,loop_all_images.press_if_repeat.rt,loop_all_images.press_if_repeat.duration,loop_all_images.all_keys_pressed.keys,run_wait2_2.started,run_wait2_2.stopped,loop_all_images.key_resp_5.keys,waiting_fmri_2.started,waiting_fmri_2.stopped,loop_all_images.key_resp_4.keys,polygon.stopped,all_keys_pressed.stopped,key_resp_5.started,text_5.started,loop_all_images.key_resp_5.rt,loop_all_images.key_resp_5.duration,key_resp_4.started,text_4.started,loop_all_images.key_resp_4.rt,loop_all_images.key_resp_4.duration,participant,session (1 2 or 3),starting_run,skip_practice,date,expName,psychopyVersion,frameRate,expStart,
,,,,,,,,,,,,,,,,,,,,,,,,,,,,,,,,,,,,,,,,0.0017777001485228539,0.0018498999997973442,,,,,,,,,,,,,,,,,,,,,,,,,,,,,,,,,,,,,,,,,,,,,,,,,,5,5,0,1,2025-04-17_10h35.57.601,rtmindeye,2024.2.4,60.03665839716323,2025-04-17 10h37.00.979589 -0400,
,,,,,,,,,,,,,,,,,,,,,,,,,,,,,,,,,,,,,,,,,,0.006140900077298284,0.006169100059196353,None,,,,,,,,,,,,,,,,,,,,,,,,,,,,,,,,,,,,,,,,,,,,,,,5,5,0,1,2025-04-17_10h35.57.601,rtmindeye,2024.2.4,60.03665839716323,2025-04-17 10h37.00.979589 -0400,
practice_images/w_kitchen2.jpg,0,0,0,0,0,None,0,None,,,,,,,,,,,,,,,,,,0,0,0,0,,,,,,,,,0.1920474001672119,,,,,,,0.03848009998910129,0.03851990005932748,None,0,None,,,,,,,,,,,,,,,,,,,,,,,,,,,,,,,,,,,,,,,,,,5,5,0,1,2025-04-17_10h35.57.601,rtmindeye,2024.2.4,60.03665839716323,2025-04-17 10h37.00.979589 -0400,
practice_images/w_boardwalk2.jpg,1,0,1,1,0,None,0,None,,,,,,,,,,,,,,,,,,0,1,1,1,,,,,,,,,0.1920474001672119,,,,,,,0.05323000019416213,0.05326319998130202,None,0,None,,,,,,,,,,,,,,,,,,,,,,,,,,,,,,,,,,,,,,,,,,5,5,0,1,2025-04-17_10h35.57.601,rtmindeye,2024.2.4,60.03665839716323,2025-04-17 10h37.00.979589 -0400,
practice_images/w_monument2.jpg,2,0,2,2,0,None,0,None,,,,,,,,,,,,,,,,,,0,2,2,2,,,,,,,,,0.1920474001672119,,,,,,,0.06551690003834665,0.06554950005374849,None,0,None,,,,,,,,,,,,,,,,,,,,,,,,,,,,,,,,,,,,,,,,,,5,5,0,1,2025-04-17_10h35.57.601,rtmindeye,2024.2.4,60.03665839716323,2025-04-17 10h37.00.979589 -0400,
practice_images/w_auditorium2.jpg,3,0,3,3,0,None,0,None,,,,,,,,,,,,,,,,,,0,3,3,3,,,,,,,,,0.1920474001672119,,,,,,,0.0851853999774903,0.08521790010854602,None,0,None,,,,,,,,,,,,,,,,,,,,,,,,,,,,,,,,,,,,,,,,,,5,5,0,1,2025-04-17_10h35.57.601,rtmindeye,2024.2.4,60.03665839716323,2025-04-17 10h37.00.979589 -0400,
practice_images/w_kitchen2.jpg,4,0,4,4,0,None,0,None,,,,,,,,,,,,,,,,,,0,4,4,4,,,,,,,,,0.1920474001672119,,,,,,,0.09006269997917116,0.09009520011022687,None,0,None,,,,,,,,,,,,,,,,,,,,,,,,,,,,,,,,,,,,,,,,,,5,5,0,1,2025-04-17_10h35.57.601,rtmindeye,2024.2.4,60.03665839716323,2025-04-17 10h37.00.979589 -0400,
practice_images/w_auditorium1.jpg,5,0,5,5,0,None,0,None,,,,,,,,,,,,,,,,,,0,5,5,5,,,,,,,,,0.1920474001672119,,,,,,,0.125518900109455,0.12555990018881857,None,0,None,,,,,,,,,,,,,,,,,,,,,,,,,,,,,,,,,,,,,,,,,,5,5,0,1,2025-04-17_10h35.57.601,rtmindeye,2024.2.4,60.03665839716323,2025-04-17 10h37.00.979589 -0400,
practice_images/w_bedroom2.jpg,6,0,6,6,0,None,0,None,,,,,,,,,,,,,,,,,,0,6,6,6,,,,,,,,,0.1920474001672119,,,,,,,0.13803560007363558,0.1380677002016455,None,0,None,,,,,,,,,,,,,,,,,,,,,,,,,,,,,,,,,,,,,,,,,,5,5,0,1,2025-04-17_10h35.57.601,rtmindeye,2024.2.4,60.03665839716323,2025-04-17 10h37.00.979589 -0400,
practice_images/w_kitchen1.jpg,7,0,7,7,0,None,0,None,,,,,,,,,,,,,,,,,,0,7,7,7,,,,,,,,,0.1920474001672119,,,,,,,0.15124340006150305,0.1512770000845194,None,0,None,,,,,,,,,,,,,,,,,,,,,,,,,,,,,,,,,,,,,,,,,,5,5,0,1,2025-04-17_10h35.57.601,rtmindeye,2024.2.4,60.03665839716323,2025-04-17 10h37.00.979589 -0400,
practice_images/w_bedroom1.jpg,8,0,8,8,0,None,0,None,,,,,,,,,,,,,,,,,,0,8,8,8,,,,,,,,,0.1920474001672119,,,,,,,0.17885580006986856,0.17890030005946755,None,0,None,,,,,,,,,,,,,,,,,,,,,,,,,,,,,,,,,,,,,,,,,,5,5,0,1,2025-04-17_10h35.57.601,rtmindeye,2024.2.4,60.03665839716323,2025-04-17 10h37.00.979589 -0400,
practice_images/w_monument2.jpg,9,0,9,9,0,None,0,None,,,,,,,,,,,,,,,,,,0,9,9,9,,,,,,,,,0.1920474001672119,,,,,,,0.18369910004548728,0.18374300003051758,None,0,None,,,,,,,,,,,,,,,,,,,,,,,,,,,,,,,,,,,,,,,,,,5,5,0,1,2025-04-17_10h35.57.601,rtmindeye,2024.2.4,60.03665839716323,2025-04-17 10h37.00.979589 -0400,
,,,,,,,,,,,,,,,,,,,,,,,,,,,,,,,,,,,,,,,,,,,,,,,,,,0.18969360017217696,0.18971880013123155,None,,,,,,,,,,,,,,,,,,,,,,,,,,,,,,,,,,,,,,,5,5,0,1,2025-04-17_10h35.57.601,rtmindeye,2024.2.4,60.03665839716323,2025-04-17 10h37.00.979589 -0400,
,,,,,,,,,,,,,,,,,,,,,,,,,,,,,,,,,,,,,,,,,,,,,,,,,,,,,0.18974200007505715,0.1920474001672119,0.1920474001672119,101.25926620000973,equal,101.05217409995385,None,,,,,,,,,,,,,,,,,,,,,,,,,,,,,,,,5,5,0,1,2025-04-17_10h35.57.601,rtmindeye,2024.2.4,60.03665839716323,2025-04-17 10h37.00.979589 -0400,
all_stimuli/special515/special_13613.jpg,0,0,0,0,0,,,,0,0,0,5,1,"[9, 21, 31, 45, 56, 68, 69]",1,1,1.1542465998791158,0.19303299998864532,None,None,None,,,,,,,,,0,0,0,0,0,0,0,0,101.30688780010678,,,,,,,,,,,,,,,,,,,,,,101.28479599999264,101.28489430015907,101.30318010016344,101.30688780010678,101.30688780010678,101.30688780010678,101.30688780010678,104.31455800007097,104.31455800007097,105.29802800016478,1,1,1.1542465998791158,0.19303299998864532,None,105.29809699999169,105.29812190006487,None,105.2981443000026,105.29816330014728,None,,,,,,,,,,,5,5,0,1,2025-04-17_10h35.57.601,rtmindeye,2024.2.4,60.03665839716323,2025-04-17 10h37.00.979589 -0400,
all_stimuli/shared1000_notspecial/notspecial_31049.png,1,0,1,1,0,,,,0,0,0,5,1,"[9, 21, 31, 45, 56, 68, 69]",1,1,0.6717381000053138,0.19163509993813932,None,None,None,,,,,,,,,0,0,0,0,0,1,1,1,105.31872970005497,,,,,,,,,,,,,,,,,,,,,,105.29831480002031,105.29835830000229,105.31705439998768,105.31872970005497,105.31872970005497,105.31872970005497,105.31872970005497,108.33124310011044,108.33124310011044,109.31457280018367,1,1,0.6717381000053138,0.19163509993813932,None,109.3146405001171,109.3146612001583,None,109.31468409998342,109.31470110011287,None,,,,,,,,,,,5,5,0,1,2025-04-17_10h35.57.601,rtmindeye,2024.2.4,60.03665839716323,2025-04-17 10h37.00.979589 -0400,
all_stimuli/special515/special_28096.jpg,2,0,2,2,0,,,,0,0,0,5,1,"[9, 21, 31, 45, 56, 68, 69]",1,1,0.6233085999265313,0.18391710007563233,None,None,None,,,,,,,,,0,0,0,0,0,2,2,2,109.33394550019875,,,,,,,,,,,,,,,,,,,,,,109.31485250010155,109.31489610020071,109.33128700009547,109.33394550019875,109.33394550019875,109.33394550019875,109.33394550019875,112.34809090010822,112.34809090010822,113.33127079997212,1,1,0.6233085999265313,0.18391710007563233,None,113.3313379001338,113.3313594001811,None,113.33138310001232,113.33140080003068,None,,,,,,,,,,,5,5,0,1,2025-04-17_10h35.57.601,rtmindeye,2024.2.4,60.03665839716323,2025-04-17 10h37.00.979589 -0400,
all_stimuli/shared1000_notspecial/notspecial_68471.png,3,0,3,3,0,,,,0,0,0,5,1,"[9, 21, 31, 45, 56, 68, 69]",1,1,0.46360479993745685,0.2070899000391364,None,None,None,,,,,,,,,0,0,0,0,0,3,3,3,113.35449280007742,,,,,,,,,,,,,,,,,,,,,,113.33154830010608,113.33159200008959,113.3529263001401,113.35449280007742,113.35449280007742,113.35449280007742,113.35449280007742,116.36449070018716,116.36449070018716,117.34794370015152,1,1,0.46360479993745685,0.2070899000391364,None,117.34801220009103,117.34803340001963,None,117.34805759997107,117.34807509998791,None,,,,,,,,,,,5,5,0,1,2025-04-17_10h35.57.601,rtmindeye,2024.2.4,60.03665839716323,2025-04-17 10h37.00.979589 -0400,
all_stimuli/special515/special_15506.jpg,4,0,4,4,0,,,,0,0,0,5,1,"[9, 21, 31, 45, 56, 68, 69]",1,1,0.9007196000311524,0.19196039997041225,None,None,None,,,,,,,,,0,0,0,0,0,4,4,4,117.3653965999838,,,,,,,,,,,,,,,,,,,,,,117.3482237001881,117.34826700016856,117.3636593001429,117.3653965999838,117.3653965999838,117.3653965999838,117.3653965999838,120.36407060013153,120.36407060013153,121.36447470006533,1,1,0.9007196000311524,0.19196039997041225,None,121.36454350012355,121.36456510005519,None,121.36458820011467,121.36460530012846,None,,,,,,,,,,,5,5,0,1,2025-04-17_10h35.57.601,rtmindeye,2024.2.4,60.03665839716323,2025-04-17 10h37.00.979589 -0400,
all_stimuli/MST_pairs1/pair_24_nsd_158_1_cocoid_2285.png,5,0,5,5,0,,,,0,0,0,5,1,"[9, 21, 31, 45, 56, 68, 69]",1,1,0.840099300025031,0.1950549001339823,None,None,None,,,,,,,,,0,0,0,0,0,5,5,5,121.68808800005354,,,,,,,,,,,,,,,,,,,,,,121.36475790012628,121.36480160010979,121.68385320017114,121.68808800005354,121.68808800005354,121.68808800005354,121.68808800005354,124.69792510010302,124.69792510010302,125.38135670009069,1,1,0.840099300025031,0.1950549001339823,None,125.38142610015348,125.3814478002023,None,125.38147280015983,125.38149060006253,None,,,,,,,,,,,5,5,0,1,2025-04-17_10h35.57.601,rtmindeye,2024.2.4,60.03665839716323,2025-04-17 10h37.00.979589 -0400,
all_stimuli/MST_pairs1/pair_10_14_89.png,6,0,6,6,0,,,,0,0,0,5,1,"[9, 21, 31, 45, 56, 68, 69]",1,1,0.9160392000339925,0.19690349977463484,None,None,None,,,,,,,,,0,0,0,0,0,6,6,6,125.40115950000472,,,,,,,,,,,,,,,,,,,,,,125.38164410018362,125.38168860017322,125.3995503000915,125.40115950000472,125.40115950000472,125.40115950000472,125.40115950000472,128.41459920001216,128.41459920001216,129.39786000014283,1,1,0.9160392000339925,0.19690349977463484,None,129.39792820019647,129.39794970001094,None,129.3979737001937,129.39799110009335,None,,,,,,,,,,,5,5,0,1,2025-04-17_10h35.57.601,rtmindeye,2024.2.4,60.03665839716323,2025-04-17 10h37.00.979589 -0400,
all_stimuli/special515/special_62015.jpg,7,0,7,7,0,,,,0,0,0,5,1,"[9, 21, 31, 45, 56, 68, 69]",1,1,0.8063275997992605,0.19785020011477172,None,None,None,,,,,,,,,0,0,0,0,0,7,7,7,129.41492960019968,,,,,,,,,,,,,,,,,,,,,,129.3981416001916,129.3981853001751,129.41323210019618,129.41492960019968,129.41492960019968,129.41492960019968,129.41492960019968,132.4145414000377,132.4145414000377,133.3980626000557,1,1,0.8063275997992605,0.19785020011477172,None,133.39812400005758,133.3981445999816,None,133.39816730003804,133.39818440005183,None,133.42913489998318,133.42913489998318,,,,,,,,,5,5,0,1,2025-04-17_10h35.57.601,rtmindeye,2024.2.4,60.03665839716323,2025-04-17 10h37.00.979589 -0400,
all_stimuli/special515/special_47687.jpg,8,0,8,8,0,,,,0,0,0,5,1,"[9, 21, 31, 45, 56, 68, 69]",1,1,0.7858976998832077,0.2261230000294745,None,None,None,,,,,,,,,0,0,0,0,0,8,8,8,133.42913489998318,,,,,,,,,,,,,,,,,,,,,,133.39832930010743,133.39836730016395,133.42747520003468,133.42913489998318,133.42913489998318,133.42913489998318,133.42913489998318,136.4311354001984,136.4311354001984,137.41457710019313,1,1,0.7858976998832077,0.2261230000294745,None,137.41464400012046,137.41466470016167,None,137.4146879001055,137.41470580012538,None,,,,,,,,,,,5,5,0,1,2025-04-17_10h35.57.601,rtmindeye,2024.2.4,60.03665839716323,2025-04-17 10h37.00.979589 -0400,
blank.jpg,9,1,9,9,0,,,,0,0,0,5,1,"[9, 21, 31, 45, 56, 68, 69]",None,0,,,None,None,None,,,,,,,,,0,0,0,0,0,9,9,9,137.43240869999863,,,,,,,,,,,,,,,,,,,,,,137.41485669999383,137.41490090009756,137.4306046999991,137.43240869999863,137.43240869999863,137.43240869999863,137.43240869999863,140.44771620002575,140.44771620002575,141.43127780011855,None,0,,,None,141.43134100013413,141.43136250018142,None,141.4313871001359,141.43140440015122,None,,,,,,,,,,,5,5,0,1,2025-04-17_10h35.57.601,rtmindeye,2024.2.4,60.03665839716323,2025-04-17 10h37.00.979589 -0400,
all_stimuli/special515/special_4249.jpg,10,0,10,10,0,,,,0,0,0,5,1,"[9, 21, 31, 45, 56, 68, 69]",1,1,0.7926350999623537,0.251957600004971,None,None,None,,,,,,,,,0,0,0,0,0,10,10,10,141.448546100175,,,,,,,,,,,,,,,,,,,,,,141.43155340012163,141.4315963999834,141.44672210002318,141.448546100175,141.448546100175,141.448546100175,141.448546100175,144.44791860016994,144.44791860016994,145.431102800183,1,1,0.7926350999623537,0.251957600004971,None,145.43116530007683,145.4311858001165,None,145.431210400071,145.4312275000848,None,145.4474949000869,145.4474949000869,,,,,,,,,5,5,0,1,2025-04-17_10h35.57.601,rtmindeye,2024.2.4,60.03665839716323,2025-04-17 10h37.00.979589 -0400,
all_stimuli/special515/special_54361.jpg,11,0,11,11,0,,,,0,0,0,5,1,"[9, 21, 31, 45, 56, 68, 69]",1,1,0.6958140998613089,0.3938629999756813,None,None,None,,,,,,,,,0,0,0,0,0,11,11,11,145.4474949000869,,,,,,,,,,,,,,,,,,,,,,145.43137760017999,145.43141600000672,145.4454481001012,145.4474949000869,145.4474949000869,145.4474949000869,145.4474949000869,148.44785350002348,148.44785350002348,149.43142630020157,1,1,0.6958140998613089,0.3938629999756813,None,149.43148900009692,149.43150910013355,None,149.43153220019303,149.431549299974,None,149.45076220016927,149.45076220016927,,,,,,,,,5,5,0,1,2025-04-17_10h35.57.601,rtmindeye,2024.2.4,60.03665839716323,2025-04-17 10h37.00.979589 -0400,
all_stimuli/special515/special_6489.jpg,12,0,12,12,0,,,,0,0,0,5,1,"[9, 21, 31, 45, 56, 68, 69]",1,1,0.9055502000264823,0.25285449996590614,None,None,None,,,,,,,,,0,0,0,0,0,12,12,12,149.45076220016927,,,,,,,,,,,,,,,,,,,,,,149.4317048001103,149.43174360017292,149.44888200005516,149.45076220016927,149.45076220016927,149.45076220016927,149.45076220016927,152.46453920006752,152.46453920006752,153.4477989000734,1,1,0.9055502000264823,0.25285449996590614,None,153.44786790013313,153.4478897000663,None,153.44791280012578,153.44793040002696,None,,,,,,,,,,,5,5,0,1,2025-04-17_10h35.57.601,rtmindeye,2024.2.4,60.03665839716323,2025-04-17 10h37.00.979589 -0400,
all_stimuli/special515/special_38641.jpg,13,0,13,13,0,,,,0,0,0,5,1,"[9, 21, 31, 45, 56, 68, 69]",1,1,0.9068987001664937,0.26480220002122223,None,None,None,,,,,,,,,0,0,0,0,0,13,13,13,153.4854474000167,,,,,,,,,,,,,,,,,,,,,,153.44808440003544,153.44812820013613,153.48357600020245,153.4854474000167,153.4854474000167,153.4854474000167,153.4854474000167,156.49781049997546,156.49781049997546,157.46462420001626,1,1,0.9068987001664937,0.26480220002122223,None,157.464691700181,157.46471270010807,None,157.46473560016602,157.4647525001783,None,,,,,,,,,,,5,5,0,1,2025-04-17_10h35.57.601,rtmindeye,2024.2.4,60.03665839716323,2025-04-17 10h37.00.979589 -0400,
all_stimuli/shared1000_notspecial/notspecial_67168.png,14,0,14,14,0,,,,0,0,0,5,1,"[9, 21, 31, 45, 56, 68, 69]",1,1,0.7216664999723434,0.2189457998611033,None,None,None,,,,,,,,,0,0,0,0,0,14,14,14,157.48452439997345,,,,,,,,,,,,,,,,,,,,,,157.46490450017154,157.46494840015657,157.48291040002368,157.48452439997345,157.48452439997345,157.48452439997345,157.48452439997345,160.49793549999595,160.49793549999595,161.4810848000925,1,1,0.7216664999723434,0.2189457998611033,None,161.48115350003354,161.48117500008084,None,161.48119830014184,161.4812157000415,None,,,,,,,,,,,5,5,0,1,2025-04-17_10h35.57.601,rtmindeye,2024.2.4,60.03665839716323,2025-04-17 10h37.00.979589 -0400,
all_stimuli/shared1000_notspecial/notspecial_59079.png,15,0,15,15,0,,,,0,0,0,5,1,"[9, 21, 31, 45, 56, 68, 69]",1,1,0.9515269000548869,0.22206160007044673,None,None,None,,,,,,,,,0,0,0,0,0,15,15,15,161.50459150015377,,,,,,,,,,,,,,,,,,,,,,161.48136460012756,161.4814085001126,161.50303940009326,161.50459150015377,161.50459150015377,161.50459150015377,161.50459150015377,164.51460990007035,164.51460990007035,165.4977597000543,1,1,0.9515269000548869,0.22206160007044673,None,165.49782759998925,165.49784930003807,None,165.49787300010212,165.49789030011743,None,,,,,,,,,,,5,5,0,1,2025-04-17_10h35.57.601,rtmindeye,2024.2.4,60.03665839716323,2025-04-17 10h37.00.979589 -0400,
all_stimuli/MST_pairs1/pair_2_4_89.png,16,0,16,16,0,,,,0,0,0,5,1,"[9, 21, 31, 45, 56, 68, 69]",1,1,0.9410607998725027,0.27185100014321506,None,None,None,,,,,,,,,0,0,0,0,0,16,16,16,165.5162343000993,,,,,,,,,,,,,,,,,,,,,,165.4980403999798,165.4980837001931,165.51456960011274,165.5162343000993,165.5162343000993,165.5162343000993,165.5162343000993,168.53123900014907,168.53123900014907,169.5146043000277,1,1,0.9410607998725027,0.27185100014321506,None,169.51467510010116,169.51469720015302,None,169.51472069998272,169.51473830011673,None,,,,,,,,,,,5,5,0,1,2025-04-17_10h35.57.601,rtmindeye,2024.2.4,60.03665839716323,2025-04-17 10h37.00.979589 -0400,
all_stimuli/shared1000_notspecial/notspecial_26127.png,17,0,17,17,0,,,,0,0,0,5,1,"[9, 21, 31, 45, 56, 68, 69]",1,1,1.0175849001388997,0.19506999989971519,None,None,None,,,,,,,,,0,0,0,0,0,17,17,17,169.54056560015306,,,,,,,,,,,,,,,,,,,,,,169.5148962000385,169.51494010002352,169.53894030000083,169.54056560015306,169.54056560015306,169.54056560015306,169.54056560015306,172.54780240007676,172.54780240007676,173.53117530001327,1,1,1.0175849001388997,0.19506999989971519,None,173.53124560019933,173.53126690001227,None,173.53129060007632,173.5313081999775,None,,,,,,,,,,,5,5,0,1,2025-04-17_10h35.57.601,rtmindeye,2024.2.4,60.03665839716323,2025-04-17 10h37.00.979589 -0400,
all_stimuli/shared1000_notspecial/notspecial_20223.png,18,0,18,18,0,,,,0,0,0,5,1,"[9, 21, 31, 45, 56, 68, 69]",1,1,0.969795900164172,0.21617609984241426,None,None,None,,,,,,,,,0,0,0,0,0,18,18,18,173.57137320004404,,,,,,,,,,,,,,,,,,,,,,173.53145640017465,173.5315002000425,173.56972820009105,173.57137320004404,173.57137320004404,173.57137320004404,173.57137320004404,176.58109720004722,176.58109720004722,177.5478621001821,1,1,0.969795900164172,0.21617609984241426,None,177.54793080012314,177.5479519001674,None,177.54797550011426,177.5479927000124,None,,,,,,,,,,,5,5,0,1,2025-04-17_10h35.57.601,rtmindeye,2024.2.4,60.03665839716323,2025-04-17 10h37.00.979589 -0400,
all_stimuli/special515/special_62015.jpg,19,0,19,19,0,,,,1,0,0,5,1,"[9, 21, 31, 45, 56, 68, 69]",2,1,0.8587029001209885,0.3169992999173701,None,None,None,,,,,,,,,0,0,0,0,0,19,19,19,177.56442720000632,,,,,,,,,,,,,,,,,,,,,,177.548143299995,177.54818690009415,177.55976420012303,177.56442720000632,177.56442720000632,177.56442720000632,177.56442720000632,180.56459140009247,180.56459140009247,181.54783330019563,2,1,0.8587029001209885,0.3169992999173701,None,181.547896000091,181.54791650013067,None,181.54794020019472,181.54795709997416,None,181.56647439999506,181.56647439999506,,,,,,,,,5,5,0,1,2025-04-17_10h35.57.601,rtmindeye,2024.2.4,60.03665839716323,2025-04-17 10h37.00.979589 -0400,
all_stimuli/special515/special_10244.jpg,20,0,20,20,0,,,,0,0,0,5,1,"[9, 21, 31, 45, 56, 68, 69]",1,1,0.8696545001585037,0.2420010999776423,None,None,None,,,,,,,,,0,0,0,0,0,20,20,20,181.56647439999506,,,,,,,,,,,,,,,,,,,,,,181.54810510016978,181.54814320011064,181.56473670015112,181.56647439999506,181.56647439999506,181.56647439999506,181.56647439999506,184.58103500003926,184.58103500003926,185.56470059999265,1,1,0.8696545001585037,0.2420010999776423,None,185.56477120006457,185.5647925999947,None,185.56481670006178,185.56483390019275,None,,,,,,,,,,,5,5,0,1,2025-04-17_10h35.57.601,rtmindeye,2024.2.4,60.03665839716323,2025-04-17 10h37.00.979589 -0400,
blank.jpg,21,1,21,21,0,,,,0,0,0,5,1,"[9, 21, 31, 45, 56, 68, 69]",None,0,,,None,None,None,,,,,,,,,0,0,0,0,0,21,21,21,185.58120030001737,,,,,,,,,,,,,,,,,,,,,,185.56498700007796,185.56503160018474,185.57336390018463,185.58120030001737,185.58120030001737,185.58120030001737,185.58120030001737,188.58110880013555,188.58110880013555,189.56443160003982,None,0,,,None,189.56448950013146,189.56451040017419,None,189.5645330999978,189.56455010012724,None,189.6025604000315,189.6025604000315,,,,,,,,,5,5,0,1,2025-04-17_10h35.57.601,rtmindeye,2024.2.4,60.03665839716323,2025-04-17 10h37.00.979589 -0400,
all_stimuli/special515/special_28524.jpg,22,0,22,22,0,,,,0,0,0,5,1,"[9, 21, 31, 45, 56, 68, 69]",1,1,0.8795055998489261,0.2860262000467628,None,None,None,,,,,,,,,0,0,0,0,0,22,22,22,189.6025604000315,,,,,,,,,,,,,,,,,,,,,,189.56469810009003,189.56473600002937,189.60065370006487,189.6025604000315,189.6025604000315,189.6025604000315,189.6025604000315,192.61415370018221,192.61415370018221,193.58086170000024,1,1,0.8795055998489261,0.2860262000467628,None,193.58093340019695,193.58095530001447,None,193.58097860007547,193.5809957999736,None,,,,,,,,,,,5,5,0,1,2025-04-17_10h35.57.601,rtmindeye,2024.2.4,60.03665839716323,2025-04-17 10h37.00.979589 -0400,
all_stimuli/special515/special_30430.jpg,23,0,23,23,0,,,,0,0,0,5,1,"[9, 21, 31, 45, 56, 68, 69]",1,1,0.9157563999760896,0.22611119993962348,None,None,None,,,,,,,,,0,0,0,0,0,23,23,23,193.59830510010943,,,,,,,,,,,,,,,,,,,,,,193.58114890009165,193.5811925001908,193.59662130009383,193.59830510010943,193.59830510010943,193.59830510010943,193.59830510010943,196.59726459998637,196.59726459998637,197.58126150001772,1,1,0.9157563999760896,0.22611119993962348,None,197.58132930006832,197.58135069999844,None,197.58137400005944,197.58139130007476,None,,,,,,,,,,,5,5,0,1,2025-04-17_10h35.57.601,rtmindeye,2024.2.4,60.03665839716323,2025-04-17 10h37.00.979589 -0400,
all_stimuli/MST_pairs1/pair_10_14_33.png,24,0,24,24,0,,,,0,0,0,5,1,"[9, 21, 31, 45, 56, 68, 69]",1,1,1.0447813998907804,0.25709110009483993,None,None,None,,,,,,,,,0,0,0,0,0,24,24,24,197.60225950018503,,,,,,,,,,,,,,,,,,,,,,197.58154030004516,197.58158410014585,197.60061930003576,197.60225950018503,197.60225950018503,197.60225950018503,197.60225950018503,200.61451550014317,200.61451550014317,201.5979805001989,1,1,1.0447813998907804,0.25709110009483993,None,201.59804990002885,201.59807120007463,None,201.59809450013563,201.59811200015247,None,,,,,,,,,,,5,5,0,1,2025-04-17_10h35.57.601,rtmindeye,2024.2.4,60.03665839716323,2025-04-17 10h37.00.979589 -0400,
all_stimuli/shared1000_notspecial/notspecial_10907.png,25,0,25,25,0,,,,0,0,0,5,1,"[9, 21, 31, 45, 56, 68, 69]",1,1,1.656949499854818,0.2991832001134753,None,None,None,,,,,,,,,0,0,0,0,0,25,25,25,201.61805900000036,,,,,,,,,,,,,,,,,,,,,,201.59827660000883,201.59832109999843,201.6164582001511,201.61805900000036,201.61805900000036,201.61805900000036,201.61805900000036,204.63095450005494,204.63095450005494,205.61460810014978,1,1,1.656949499854818,0.2991832001134753,None,205.61467680009082,205.61469790013507,None,205.61472090007737,205.6147382000927,None,,,,,,,,,,,5,5,0,1,2025-04-17_10h35.57.601,rtmindeye,2024.2.4,60.03665839716323,2025-04-17 10h37.00.979589 -0400,
all_stimuli/special515/special_22587.jpg,26,0,26,26,0,,,,0,0,0,5,1,"[9, 21, 31, 45, 56, 68, 69]",1,1,0.8832349998410791,0.2480292001273483,None,None,None,,,,,,,,,0,0,0,0,0,26,26,26,205.63089290005155,,,,,,,,,,,,,,,,,,,,,,205.61489120009355,205.614940200001,205.62854780000634,205.63089290005155,205.63089290005155,205.63089290005155,205.63089290005155,208.63121290015988,208.63121290015988,209.61474250000902,1,1,0.8832349998410791,0.2480292001273483,None,209.61480510002002,209.6148251001723,None,209.6148479001131,209.61486460012384,None,209.63293910003267,209.63293910003267,,,,,,,,,5,5,0,1,2025-04-17_10h35.57.601,rtmindeye,2024.2.4,60.03665839716323,2025-04-17 10h37.00.979589 -0400,
all_stimuli/special515/special_3687.jpg,27,0,27,27,0,,,,0,0,0,5,1,"[9, 21, 31, 45, 56, 68, 69]",1,1,0.7772065999452025,0.27808730001561344,None,None,None,,,,,,,,,0,0,0,0,0,27,27,27,209.63293910003267,,,,,,,,,,,,,,,,,,,,,,209.61501160007901,209.61505959997885,209.63107110001147,209.63293910003267,209.63293910003267,209.63293910003267,209.63293910003267,212.64769100002013,212.64769100002013,213.63119720015675,1,1,0.7772065999452025,0.27808730001561344,None,213.63126570009626,213.63128790003248,None,213.6313118999824,213.63132970011793,None,,,,,,,,,,,5,5,0,1,2025-04-17_10h35.57.601,rtmindeye,2024.2.4,60.03665839716323,2025-04-17 10h37.00.979589 -0400,
all_stimuli/shared1000_notspecial/notspecial_58164.png,28,0,28,28,0,,,,0,0,0,5,1,"[9, 21, 31, 45, 56, 68, 69]",1,1,0.781327199889347,0.28409940004348755,None,None,None,,,,,,,,,0,0,0,0,0,28,28,28,213.65170480008237,,,,,,,,,,,,,,,,,,,,,,213.63148490013555,213.63152840011753,213.65007800003514,213.65170480008237,213.65170480008237,213.65170480008237,213.65170480008237,216.66393510019407,216.66393510019407,217.64752720016986,1,1,0.781327199889347,0.28409940004348755,None,217.64759659999982,217.6476182001643,None,217.64764149999246,217.64765910012648,None,,,,,,,,,,,5,5,0,1,2025-04-17_10h35.57.601,rtmindeye,2024.2.4,60.03665839716323,2025-04-17 10h37.00.979589 -0400,
all_stimuli/special515/special_38494.jpg,29,0,29,29,0,,,,0,0,0,5,1,"[9, 21, 31, 45, 56, 68, 69]",1,1,0.7597369998693466,0.23300980008207262,None,None,None,,,,,,,,,0,0,0,0,0,29,29,29,217.6644721000921,,,,,,,,,,,,,,,,,,,,,,217.6478109001182,217.64785500010476,217.6626983000897,217.6644721000921,217.6644721000921,217.6644721000921,217.6644721000921,220.66432730015367,220.66432730015367,221.64757050015032,1,1,0.7597369998693466,0.23300980008207262,None,221.6476326000411,221.6476531000808,None,221.64767680014484,221.64769380004145,None,221.66878639999777,221.66878639999777,,,,,,,,,5,5,0,1,2025-04-17_10h35.57.601,rtmindeye,2024.2.4,60.03665839716323,2025-04-17 10h37.00.979589 -0400,
all_stimuli/MST_pairs1/pair_12_16_22.png,30,0,30,30,0,,,,0,0,0,5,1,"[9, 21, 31, 45, 56, 68, 69]",1,1,0.9822968000080436,0.266018999973312,None,None,None,,,,,,,,,0,0,0,0,0,30,30,30,221.66878639999777,,,,,,,,,,,,,,,,,,,,,,221.64798540016636,221.64802540000528,221.66713250009343,221.66878639999777,221.66878639999777,221.66878639999777,221.66878639999777,224.68097250000574,224.68097250000574,225.66411200002767,1,1,0.9822968000080436,0.266018999973312,None,225.66418089997023,225.66420230013318,None,225.6642258001957,225.66424360009842,None,,,,,,,,,,,5,5,0,1,2025-04-17_10h35.57.601,rtmindeye,2024.2.4,60.03665839716323,2025-04-17 10h37.00.979589 -0400,
blank.jpg,31,1,31,31,0,,,,0,0,0,5,1,"[9, 21, 31, 45, 56, 68, 69]",None,0,,,None,None,None,,,,,,,,,0,0,0,0,0,31,31,31,225.68119200016372,,,,,,,,,,,,,,,,,,,,,,225.6643954999745,225.66443910007365,225.6723705001641,225.68119200016372,225.68119200016372,225.68119200016372,225.68119200016372,228.68104010005482,228.68104010005482,229.664462500019,None,0,,,None,229.66451949998736,229.66454060003161,None,229.66456579999067,229.66458320012316,None,229.6823547000531,229.6823547000531,,,,,,,,,5,5,0,1,2025-04-17_10h35.57.601,rtmindeye,2024.2.4,60.03665839716323,2025-04-17 10h37.00.979589 -0400,
all_stimuli/special515/special_66489.jpg,32,0,32,32,0,,,,0,0,0,5,1,"[9, 21, 31, 45, 56, 68, 69]",1,1,0.8346689001191407,0.19905089982785285,None,None,None,,,,,,,,,0,0,0,0,0,32,32,32,229.6823547000531,,,,,,,,,,,,,,,,,,,,,,229.664730100194,229.66476870002225,229.6804430000484,229.6823547000531,229.6823547000531,229.6823547000531,229.6823547000531,232.69760590000078,232.69760590000078,233.68057180009782,1,1,0.8346689001191407,0.19905089982785285,None,233.68064000015147,233.6806616000831,None,233.68068480002694,233.68070190004073,None,,,,,,,,,,,5,5,0,1,2025-04-17_10h35.57.601,rtmindeye,2024.2.4,60.03665839716323,2025-04-17 10h37.00.979589 -0400,
all_stimuli/MST_pairs1/pair_28_nsd_547_1_cocoid_60932.png,33,0,33,33,0,,,,0,0,0,5,1,"[9, 21, 31, 45, 56, 68, 69]",1,1,0.9390321001410484,0.2700314000248909,None,None,None,,,,,,,,,0,0,0,0,0,33,33,33,233.7351119001396,,,,,,,,,,,,,,,,,,,,,,233.6808549000416,233.68089920002967,233.73314460017718,233.7351119001396,233.7351119001396,233.7351119001396,233.7351119001396,236.74739550007507,236.74739550007507,237.6810942001175,1,1,0.9390321001410484,0.2700314000248909,None,237.68116260017268,237.68118420010433,None,237.68120820005424,237.68122550006956,None,,,,,,,,,,,5,5,0,1,2025-04-17_10h35.57.601,rtmindeye,2024.2.4,60.03665839716323,2025-04-17 10h37.00.979589 -0400,
all_stimuli/shared1000_notspecial/notspecial_46002.png,34,0,34,34,0,,,,0,0,0,5,1,"[9, 21, 31, 45, 56, 68, 69]",1,1,0.8530335000250489,0.277886199997738,None,None,None,,,,,,,,,0,0,0,0,0,34,34,34,237.69907900015824,,,,,,,,,,,,,,,,,,,,,,237.68137870007195,237.68142330017872,237.6974418000318,237.69907900015824,237.69907900015824,237.69907900015824,237.69907900015824,240.71433530002832,240.71433530002832,241.69774019997567,1,1,0.8530335000250489,0.277886199997738,None,241.6978085001465,241.69783010007814,None,241.69785390002653,241.69787120004185,None,,,,,,,,,,,5,5,0,1,2025-04-17_10h35.57.601,rtmindeye,2024.2.4,60.03665839716323,2025-04-17 10h37.00.979589 -0400,
all_stimuli/special515/special_30632.jpg,35,0,35,35,0,,,,0,0,0,5,1,"[9, 21, 31, 45, 56, 68, 69]",1,1,0.7815232998691499,0.26222870009951293,None,None,None,,,,,,,,,0,0,0,0,0,35,35,35,241.71650020009838,,,,,,,,,,,,,,,,,,,,,,241.698022400029,241.69806630001403,241.71472020004876,241.71650020009838,241.71650020009838,241.71650020009838,241.71650020009838,244.73099529999308,244.73099529999308,245.7143910001032,1,1,0.7815232998691499,0.26222870009951293,None,245.71445910003968,245.71448089997284,None,245.7145056000445,245.71452280017547,None,,,,,,,,,,,5,5,0,1,2025-04-17_10h35.57.601,rtmindeye,2024.2.4,60.03665839716323,2025-04-17 10h37.00.979589 -0400,
all_stimuli/special515/special_31936.jpg,36,0,36,36,0,,,,0,0,0,5,1,"[9, 21, 31, 45, 56, 68, 69]",1,1,0.7147353000473231,0.17085380014032125,None,None,None,,,,,,,,,0,0,0,0,0,36,36,36,245.7313973000273,,,,,,,,,,,,,,,,,,,,,,245.71467590006068,245.71471970016137,245.72971740015782,245.7313973000273,245.7313973000273,245.7313973000273,245.7313973000273,248.73113359999843,248.73113359999843,249.71431150007993,1,1,0.7147353000473231,0.17085380014032125,None,249.71437410009094,249.71439430001192,None,249.71441720006987,249.71443410008214,None,249.74554030015133,249.74554030015133,,,,,,,,,5,5,0,1,2025-04-17_10h35.57.601,rtmindeye,2024.2.4,60.03665839716323,2025-04-17 10h37.00.979589 -0400,
all_stimuli/MST_pairs1/pair_8_12_56.png,37,0,37,37,0,,,,0,0,0,5,1,"[9, 21, 31, 45, 56, 68, 69]",1,1,0.9757171000819653,0.26497289980761707,None,None,None,,,,,,,,,0,0,0,0,0,37,37,37,249.74554030015133,,,,,,,,,,,,,,,,,,,,,,249.71458070003428,249.71461899997666,249.74363910011016,249.74554030015133,249.74554030015133,249.74554030015133,249.74554030015133,252.74768809997477,252.74768809997477,253.7311544001568,1,1,0.9757171000819653,0.26497289980761707,None,253.731224300107,253.73124530003406,None,253.7312688000966,253.73128700000234,None,,,,,,,,,,,5,5,0,1,2025-04-17_10h35.57.601,rtmindeye,2024.2.4,60.03665839716323,2025-04-17 10h37.00.979589 -0400,
all_stimuli/special515/special_19074.jpg,38,0,38,38,0,,,,0,0,0,5,1,"[9, 21, 31, 45, 56, 68, 69]",1,1,0.7990375000517815,0.25702939997427166,None,None,None,,,,,,,,,0,0,0,0,0,38,38,38,253.7500541000627,,,,,,,,,,,,,,,,,,,,,,253.73144100001082,253.73148810002021,253.7481597000733,253.7500541000627,253.7500541000627,253.7500541000627,253.7500541000627,256.764398700092,256.764398700092,257.7471515000798,1,1,0.7990375000517815,0.25702939997427166,None,257.7472223001532,257.7472438002005,None,257.7472682001535,257.7472853001673,None,,,,,,,,,,,5,5,0,1,2025-04-17_10h35.57.601,rtmindeye,2024.2.4,60.03665839716323,2025-04-17 10h37.00.979589 -0400,
all_stimuli/shared1000_notspecial/notspecial_42648.png,39,0,39,39,0,,,,0,0,0,5,1,"[9, 21, 31, 45, 56, 68, 69]",1,1,1.160613500047475,0.2159974998794496,None,None,None,,,,,,,,,0,0,0,0,0,39,39,39,257.7734699000139,,,,,,,,,,,,,,,,,,,,,,257.74743830016814,257.747482100036,257.77182140015066,257.7734699000139,257.7734699000139,257.7734699000139,257.7734699000139,260.780915700132,260.780915700132,261.74769830005243,1,1,1.160613500047475,0.2159974998794496,None,261.7477665999904,261.7477877000347,None,261.747810699977,261.7478281001095,None,,,,,,,,,,,5,5,0,1,2025-04-17_10h35.57.601,rtmindeye,2024.2.4,60.03665839716323,2025-04-17 10h37.00.979589 -0400,
all_stimuli/MST_pairs1/pair_12_16_22.png,40,0,40,40,0,,,,1,0,0,5,1,"[9, 21, 31, 45, 56, 68, 69]",2,1,1.1939431000500917,0.24898430006578565,None,None,None,,,,,,,,,0,0,0,0,0,40,40,40,261.76417830004357,,,,,,,,,,,,,,,,,,,,,,261.7479791000951,261.74807780003175,261.7622438000981,261.76417830004357,261.76417830004357,261.76417830004357,261.76417830004357,264.76422160002403,264.76422160002403,265.74770519998856,2,1,1.1939431000500917,0.24898430006578565,None,265.7477692000102,265.747790500056,None,265.7478148001246,265.7478319001384,None,265.7652509000618,265.7652509000618,,,,,,,,,5,5,0,1,2025-04-17_10h35.57.601,rtmindeye,2024.2.4,60.03665839716323,2025-04-17 10h37.00.979589 -0400,
all_stimuli/shared1000_notspecial/notspecial_3951.png,41,0,41,41,0,,,,0,0,0,5,1,"[9, 21, 31, 45, 56, 68, 69]",2,0,1.902865899959579,0.29109310009516776,None,None,None,,,,,,,,,0,0,0,0,0,41,41,41,265.7652509000618,,,,,,,,,,,,,,,,,,,,,,265.74798019998707,265.74802170018665,265.763611700153,265.7652509000618,265.7652509000618,265.7652509000618,265.7652509000618,268.76414660015143,268.76414660015143,269.7641941001639,2,0,1.902865899959579,0.29109310009516776,None,269.76426320010796,269.76428440003656,None,269.76430739997886,269.76432460010983,None,,,,,,,,,,,5,5,0,1,2025-04-17_10h35.57.601,rtmindeye,2024.2.4,60.03665839716323,2025-04-17 10h37.00.979589 -0400,
all_stimuli/MST_pairs1/pair_12_16_78.png,42,0,42,42,0,,,,0,0,0,5,1,"[9, 21, 31, 45, 56, 68, 69]",1,1,1.5006713999900967,0.2610135998111218,None,None,None,,,,,,,,,0,0,0,0,0,42,42,42,269.7844303001184,,,,,,,,,,,,,,,,,,,,,,269.76449430012144,269.7645380999893,269.78276970004663,269.7844303001184,269.7844303001184,269.7844303001184,269.7844303001184,272.79754699999467,272.79754699999467,273.7645974000916,1,1,1.5006713999900967,0.2610135998111218,None,273.76466630003415,273.7646882000845,None,273.76471180003136,273.76472900016233,None,,,,,,,,,,,5,5,0,1,2025-04-17_10h35.57.601,rtmindeye,2024.2.4,60.03665839716323,2025-04-17 10h37.00.979589 -0400,
all_stimuli/special515/special_11952.jpg,43,0,43,43,0,,,,0,0,0,5,1,"[9, 21, 31, 45, 56, 68, 69]",1,1,0.8195361997932196,0.21013110014609993,None,None,None,,,,,,,,,0,0,0,0,0,43,43,43,273.781495800009,,,,,,,,,,,,,,,,,,,,,,273.7648770001251,273.7649684001226,273.7797098001465,273.781495800009,273.781495800009,273.781495800009,273.781495800009,276.7804715000093,276.7804715000093,277.76439050002955,1,1,0.8195361997932196,0.21013110014609993,None,277.7644537000451,277.76447380008176,None,277.764496400021,277.76451310003176,None,277.7839934001677,277.7839934001677,,,,,,,,,5,5,0,1,2025-04-17_10h35.57.601,rtmindeye,2024.2.4,60.03665839716323,2025-04-17 10h37.00.979589 -0400,
all_stimuli/MST_pairs1/pair_14_18_22.png,44,0,44,44,0,,,,0,0,0,5,1,"[9, 21, 31, 45, 56, 68, 69]",1,1,1.0372411999851465,0.2308640000410378,None,None,None,,,,,,,,,0,0,0,0,0,44,44,44,277.7839934001677,,,,,,,,,,,,,,,,,,,,,,277.76466660015285,277.7647053000983,277.78231970011257,277.7839934001677,277.7839934001677,277.7839934001677,277.7839934001677,280.79763610009104,280.79763610009104,281.78097230009735,1,1,1.0372411999851465,0.2308640000410378,None,281.7810410000384,281.78106230008416,None,281.7810858001467,281.78110320004635,None,,,,,,,,,,,5,5,0,1,2025-04-17_10h35.57.601,rtmindeye,2024.2.4,60.03665839716323,2025-04-17 10h37.00.979589 -0400,
blank.jpg,45,1,45,45,0,,,,0,0,0,5,1,"[9, 21, 31, 45, 56, 68, 69]",None,0,,,None,None,None,,,,,,,,,0,0,0,0,0,45,45,45,281.79755980009213,,,,,,,,,,,,,,,,,,,,,,281.78125310014,281.78129700012505,281.7904715000186,281.79755980009213,281.79755980009213,281.79755980009213,281.79755980009213,284.7976387999952,284.7976387999952,285.78119250014424,None,0,,,None,285.78124799998477,285.78126850002445,None,285.781292000087,285.7813089999836,None,285.8128693001345,285.8128693001345,,,,,,,,,5,5,0,1,2025-04-17_10h35.57.601,rtmindeye,2024.2.4,60.03665839716323,2025-04-17 10h37.00.979589 -0400,
all_stimuli/MST_pairs1/pair_16_20_56.png,46,0,46,46,0,,,,0,0,0,5,1,"[9, 21, 31, 45, 56, 68, 69]",1,1,0.9604090999346226,0.24786020000465214,None,None,None,,,,,,,,,0,0,0,0,0,46,46,46,285.8128693001345,,,,,,,,,,,,,,,,,,,,,,285.7814540001564,285.78150250017643,285.8110752000939,285.8128693001345,285.8128693001345,285.8128693001345,285.8128693001345,288.81414830009453,288.81414830009453,289.79762289999053,1,1,0.9604090999346226,0.24786020000465214,None,289.7976973000914,289.7977187000215,None,289.79774309997447,289.79776079999283,None,,,,,,,,,,,5,5,0,1,2025-04-17_10h35.57.601,rtmindeye,2024.2.4,60.03665839716323,2025-04-17 10h37.00.979589 -0400,
all_stimuli/special515/special_8933.jpg,47,0,47,47,0,,,,0,0,0,5,1,"[9, 21, 31, 45, 56, 68, 69]",1,1,0.9685609000734985,0.2741757999174297,None,None,None,,,,,,,,,0,0,0,0,0,47,47,47,289.8185915001668,,,,,,,,,,,,,,,,,,,,,,289.7979123000987,289.7979557001963,289.8166925001424,289.8185915001668,289.8185915001668,289.8185915001668,289.8185915001668,292.8308618001174,292.8308618001174,293.81434380006976,1,1,0.9685609000734985,0.2741757999174297,None,293.814413000131,293.8144343001768,None,293.8144581001252,293.81447550002486,None,,,,,,,,,,,5,5,0,1,2025-04-17_10h35.57.601,rtmindeye,2024.2.4,60.03665839716323,2025-04-17 10h37.00.979589 -0400,
all_stimuli/MST_pairs1/pair_16_20_56.png,48,0,48,48,0,,,,1,0,0,5,1,"[9, 21, 31, 45, 56, 68, 69]",2,1,0.91402000002563,0.26501529989764094,None,None,None,,,,,,,,,0,0,0,0,0,48,48,48,293.83105859998614,,,,,,,,,,,,,,,,,,,,,,293.81462900014594,293.8146741001401,293.822862500092,293.83105859998614,293.83105859998614,293.83105859998614,293.83105859998614,296.83089200011455,296.83089200011455,297.81444550002925,2,1,0.91402000002563,0.26501529989764094,None,297.8145080001559,297.81452830019407,None,297.8145514000207,297.8145686001517,None,297.8410989001859,297.8410989001859,,,,,,,,,5,5,0,1,2025-04-17_10h35.57.601,rtmindeye,2024.2.4,60.03665839716323,2025-04-17 10h37.00.979589 -0400,
all_stimuli/special515/special_5034.jpg,49,0,49,49,0,,,,0,0,0,5,1,"[9, 21, 31, 45, 56, 68, 69]",1,1,0.9110214000102133,0.2719934999477118,None,None,None,,,,,,,,,0,0,0,0,0,49,49,49,297.8410989001859,,,,,,,,,,,,,,,,,,,,,,297.8147125001997,297.81475130002946,297.83934740000404,297.8410989001859,297.8410989001859,297.8410989001859,297.8410989001859,300.84728870005347,300.84728870005347,301.8308269002009,1,1,0.9110214000102133,0.2719934999477118,None,301.8308952001389,301.8309167001862,None,301.8309403001331,301.83095770003274,None,,,,,,,,,,,5,5,0,1,2025-04-17_10h35.57.601,rtmindeye,2024.2.4,60.03665839716323,2025-04-17 10h37.00.979589 -0400,
all_stimuli/MST_pairs1/pair_16_20_0.png,50,0,50,50,0,,,,0,0,0,5,1,"[9, 21, 31, 45, 56, 68, 69]",2,0,0.9399175001308322,0.25198469986207783,None,None,None,,,,,,,,,0,0,0,0,0,50,50,50,301.8492415000219,,,,,,,,,,,,,,,,,,,,,,301.831112800166,301.8311565001495,301.84758060006425,301.8492415000219,301.8492415000219,301.8492415000219,301.8492415000219,304.86433960008435,304.86433960008435,305.84757550014183,2,0,0.9399175001308322,0.25198469986207783,None,305.8476437001955,305.84766550012864,None,305.8476891000755,305.84771200013347,None,,,,,,,,,,,5,5,0,1,2025-04-17_10h35.57.601,rtmindeye,2024.2.4,60.03665839716323,2025-04-17 10h37.00.979589 -0400,
all_stimuli/MST_pairs1/pair_46_w_pool2.jpg,51,0,51,51,0,,,,0,0,0,5,1,"[9, 21, 31, 45, 56, 68, 69]",1,1,0.9247246999293566,0.2950778000522405,None,None,None,,,,,,,,,0,0,0,0,0,51,51,51,305.8732591001317,,,,,,,,,,,,,,,,,,,,,,305.84786260011606,305.84790599998087,305.8715523001738,305.8732591001317,305.8732591001317,305.8732591001317,305.8732591001317,308.8808812000789,308.8808812000789,309.86420350009575,1,1,0.9247246999293566,0.2950778000522405,None,309.86427260003984,309.8642941999715,None,309.86431890004314,309.8643366000615,None,,,,,,,,,,,5,5,0,1,2025-04-17_10h35.57.601,rtmindeye,2024.2.4,60.03665839716323,2025-04-17 10h37.00.979589 -0400,
all_stimuli/special515/special_62228.jpg,52,0,52,52,0,,,,0,0,0,5,1,"[9, 21, 31, 45, 56, 68, 69]",1,1,0.7992661998141557,0.2670221000444144,None,None,None,,,,,,,,,0,0,0,0,0,52,52,52,309.88076790003106,,,,,,,,,,,,,,,,,,,,,,309.86449040006846,309.8645348001737,309.8790645999834,309.88076790003106,309.88076790003106,309.88076790003106,309.88076790003106,312.88081140001304,312.88081140001304,313.864542900119,1,1,0.7992661998141557,0.2670221000444144,None,313.86460480000824,313.8646254001651,None,313.8646482999902,313.86466510011815,None,313.89420880004764,313.89420880004764,,,,,,,,,5,5,0,1,2025-04-17_10h35.57.601,rtmindeye,2024.2.4,60.03665839716323,2025-04-17 10h37.00.979589 -0400,
all_stimuli/MST_pairs1/pair_40_w_escalator2.jpg,53,0,53,53,0,,,,0,0,0,5,1,"[9, 21, 31, 45, 56, 68, 69]",1,1,0.8378481001127511,0.21408779988996685,None,None,None,,,,,,,,,0,0,0,0,0,53,53,53,313.89420880004764,,,,,,,,,,,,,,,,,,,,,,313.8648184000049,313.86485700006597,313.89252810017206,313.89420880004764,313.89420880004764,313.89420880004764,313.89420880004764,316.8976500001736,316.8976500001736,317.8809089001734,1,1,0.8378481001127511,0.21408779988996685,None,317.8809768999927,317.880998800043,None,317.8810229001101,317.8810403000098,None,,,,,,,,,,,5,5,0,1,2025-04-17_10h35.57.601,rtmindeye,2024.2.4,60.03665839716323,2025-04-17 10h37.00.979589 -0400,
all_stimuli/MST_pairs1/pair_20_nsd_41_2_cocoid_63715.png,54,0,54,54,0,,,,0,0,0,5,1,"[9, 21, 31, 45, 56, 68, 69]",1,1,0.8045604999642819,0.24693610006943345,None,None,None,,,,,,,,,0,0,0,0,0,54,54,54,317.91773040010594,,,,,,,,,,,,,,,,,,,,,,317.88119270000607,317.88123630010523,317.9158009001985,317.91773040010594,317.91773040010594,317.91773040010594,317.91773040010594,320.93077480001375,320.93077480001375,321.89754330017604,1,1,0.8045604999642819,0.24693610006943345,None,321.89761149999686,321.89763310016133,None,321.8976577001158,321.89767500013113,None,,,,,,,,,,,5,5,0,1,2025-04-17_10h35.57.601,rtmindeye,2024.2.4,60.03665839716323,2025-04-17 10h37.00.979589 -0400,
all_stimuli/shared1000_notspecial/notspecial_22155.png,55,0,55,55,0,,,,0,0,0,5,1,"[9, 21, 31, 45, 56, 68, 69]",1,1,0.8306340998969972,0.20401889993809164,None,None,None,,,,,,,,,0,0,0,0,0,55,55,55,321.91746830008924,,,,,,,,,,,,,,,,,,,,,,321.8978226000909,321.89786640019156,321.915704900166,321.91746830008924,321.91746830008924,321.91746830008924,321.91746830008924,324.9309648000635,324.9309648000635,325.91426190012135,1,1,0.8306340998969972,0.20401889993809164,None,325.91432970017195,325.91435139998794,None,325.91437410004437,325.91439100005664,None,,,,,,,,,,,5,5,0,1,2025-04-17_10h35.57.601,rtmindeye,2024.2.4,60.03665839716323,2025-04-17 10h37.00.979589 -0400,
blank.jpg,56,1,56,56,0,,,,0,0,0,5,1,"[9, 21, 31, 45, 56, 68, 69]",None,0,,,None,None,None,,,,,,,,,0,0,0,0,0,56,56,56,325.93111140001565,,,,,,,,,,,,,,,,,,,,,,325.91454390017316,325.91458730003797,325.9225161001086,325.93111140001565,325.93111140001565,325.93111140001565,325.93111140001565,328.93075310019776,328.93075310019776,329.91435010009445,None,0,,,None,329.91440680017695,329.9144276001025,None,329.9144525001757,329.9144695000723,None,329.9423419001978,329.9423419001978,,,,,,,,,5,5,0,1,2025-04-17_10h35.57.601,rtmindeye,2024.2.4,60.03665839716323,2025-04-17 10h37.00.979589 -0400,
all_stimuli/special515/special_11617.jpg,57,0,57,57,0,,,,0,0,0,5,1,"[9, 21, 31, 45, 56, 68, 69]",1,1,0.7838119000662118,0.2418809998780489,None,None,None,,,,,,,,,0,0,0,0,0,57,57,57,329.9423419001978,,,,,,,,,,,,,,,,,,,,,,329.91461810003966,329.9146563000977,329.940436600009,329.9423419001978,329.9423419001978,329.9423419001978,329.9423419001978,332.94760650000535,332.94760650000535,333.93093090015464,1,1,0.7838119000662118,0.2418809998780489,None,333.9309977001976,333.9310194000136,None,333.9310428001918,333.93105989997275,None,,,,,,,,,,,5,5,0,1,2025-04-17_10h35.57.601,rtmindeye,2024.2.4,60.03665839716323,2025-04-17 10h37.00.979589 -0400,
all_stimuli/MST_pairs1/pair_14_18_22.png,58,0,58,58,0,,,,1,0,0,5,1,"[9, 21, 31, 45, 56, 68, 69]",2,1,0.950946900062263,0.2430227999575436,None,None,None,,,,,,,,,0,0,0,0,0,58,58,58,333.94704230013303,,,,,,,,,,,,,,,,,,,,,,333.93120640004054,333.9312534001656,333.9452812001109,333.94704230013303,333.94704230013303,333.94704230013303,333.94704230013303,336.9472166001797,336.9472166001797,337.93069720012136,2,1,0.950946900062263,0.2430227999575436,None,337.93075960013084,337.9307801001705,None,337.93080380000174,337.93083640001714,None,337.9489090000279,337.9489090000279,,,,,,,,,5,5,0,1,2025-04-17_10h35.57.601,rtmindeye,2024.2.4,60.03665839716323,2025-04-17 10h37.00.979589 -0400,
all_stimuli/shared1000_notspecial/notspecial_63081.png,59,0,59,59,0,,,,0,0,0,5,1,"[9, 21, 31, 45, 56, 68, 69]",1,1,1.051204799907282,0.21898630005307496,None,None,None,,,,,,,,,0,0,0,0,0,59,59,59,337.9489090000279,,,,,,,,,,,,,,,,,,,,,,337.9309871001169,337.93102500005625,337.94728060020134,337.9489090000279,337.9489090000279,337.9489090000279,337.9489090000279,340.9640097999945,340.9640097999945,341.9475097001996,1,1,1.051204799907282,0.21898630005307496,None,341.9475810001604,341.94760320009664,None,341.9476263001561,341.94764380017295,None,,,,,,,,,,,5,5,0,1,2025-04-17_10h35.57.601,rtmindeye,2024.2.4,60.03665839716323,2025-04-17 10h37.00.979589 -0400,
all_stimuli/MST_pairs1/pair_42_w_icerink2.jpg,60,0,60,60,0,,,,0,0,0,5,1,"[9, 21, 31, 45, 56, 68, 69]",1,1,0.7963733000215143,0.28199589997529984,None,None,None,,,,,,,,,0,0,0,0,0,60,60,60,341.9637463002,,,,,,,,,,,,,,,,,,,,,,341.9477973000612,341.94784150016494,341.9619928000029,341.9637463002,341.9637463002,341.9637463002,341.9637463002,344.9639506000094,344.9639506000094,345.9472752001602,1,1,0.7963733000215143,0.28199589997529984,None,345.94734130008146,345.9473619000055,None,345.947385400068,345.94740270008333,None,345.9744454000611,345.9744454000611,,,,,,,,,5,5,0,1,2025-04-17_10h35.57.601,rtmindeye,2024.2.4,60.03665839716323,2025-04-17 10h37.00.979589 -0400,
all_stimuli/MST_pairs1/pair_46_w_pool1.jpg,61,0,61,61,0,,,,0,0,0,5,1,"[9, 21, 31, 45, 56, 68, 69]",2,0,0.8776986000593752,0.20805520005524158,None,None,None,,,,,,,,,0,0,0,0,0,61,61,61,345.9744454000611,,,,,,,,,,,,,,,,,,,,,,345.94755380018614,345.9475927001331,345.9724822000135,345.9744454000611,345.9744454000611,345.9744454000611,345.9744454000611,348.9807190001011,348.9807190001011,349.9639884000644,2,0,0.8776986000593752,0.20805520005524158,None,349.9640565000009,349.96407790016383,None,349.96410179999657,349.96411890001036,None,,,,,,,,,,,5,5,0,1,2025-04-17_10h35.57.601,rtmindeye,2024.2.4,60.03665839716323,2025-04-17 10h37.00.979589 -0400,
all_stimuli/special515/special_40840.jpg,62,0,62,62,0,,,,0,0,0,5,1,"[9, 21, 31, 45, 56, 68, 69]",1,1,1.5435376998502761,0.26985540008172393,None,None,None,,,,,,,,,0,0,0,0,0,62,62,62,349.99368590000086,,,,,,,,,,,,,,,,,,,,,,349.96427340013906,349.9643163001165,349.9919263999909,349.99368590000086,349.99368590000086,349.99368590000086,349.99368590000086,352.99754800018854,352.99754800018854,353.9808465000242,1,1,1.5435376998502761,0.26985540008172393,None,353.9809183999896,353.98094050004147,None,353.980964000104,353.98098120000213,None,,,,,,,,,,,5,5,0,1,2025-04-17_10h35.57.601,rtmindeye,2024.2.4,60.03665839716323,2025-04-17 10h37.00.979589 -0400,
all_stimuli/special515/special_29837.jpg,63,0,63,63,0,,,,0,0,0,5,1,"[9, 21, 31, 45, 56, 68, 69]",1,1,1.272315800189972,0.32310989988036454,None,None,None,,,,,,,,,0,0,0,0,0,63,63,63,354.008693800075,,,,,,,,,,,,,,,,,,,,,,353.9811358000152,353.98118010000326,354.00680080009624,354.008693800075,354.008693800075,354.008693800075,354.008693800075,357.01424950012006,357.01424950012006,357.9974850001745,1,1,1.272315800189972,0.32310989988036454,None,357.99755210010335,357.997573700035,None,357.9975974999834,357.9976150000002,None,,,,,,,,,,,5,5,0,1,2025-04-17_10h35.57.601,rtmindeye,2024.2.4,60.03665839716323,2025-04-17 10h37.00.979589 -0400,
all_stimuli/shared1000_notspecial/notspecial_4768.png,64,0,64,64,0,,,,0,0,0,5,1,"[9, 21, 31, 45, 56, 68, 69]",1,1,0.7237285000737756,0.19083449989557266,None,None,None,,,,,,,,,0,0,0,0,0,64,64,64,358.0164189999923,,,,,,,,,,,,,,,,,,,,,,357.9977737001609,357.9978179000318,358.0148070000578,358.0164189999923,358.0164189999923,358.0164189999923,358.0164189999923,361.0306288001593,361.0306288001593,362.0139791001566,1,1,0.7237285000737756,0.19083449989557266,None,362.01404800009914,362.0140699001495,None,362.0140933000948,362.01411080011167,None,,,,,,,,,,,5,5,0,1,2025-04-17_10h35.57.601,rtmindeye,2024.2.4,60.03665839716323,2025-04-17 10h37.00.979589 -0400,
all_stimuli/MST_pairs1/pair_20_nsd_41_1_cocoid_15472.png,65,0,65,65,0,,,,0,0,0,5,1,"[9, 21, 31, 45, 56, 68, 69]",2,0,0.9118002001196146,0.23014350002631545,None,None,None,,,,,,,,,0,0,0,0,0,65,65,65,362.05219870014116,,,,,,,,,,,,,,,,,,,,,,362.0142616999801,362.01430510007776,362.0502820000984,362.05219870014116,362.05219870014116,362.05219870014116,362.05219870014116,365.0639759001788,365.0639759001788,366.0305259001907,2,0,0.9118002001196146,0.23014350002631545,None,366.0305994001683,366.030621800106,None,366.03064530016854,366.03066310007125,None,,,,,,,,,,,5,5,0,1,2025-04-17_10h35.57.601,rtmindeye,2024.2.4,60.03665839716323,2025-04-17 10h37.00.979589 -0400,
all_stimuli/shared1000_notspecial/notspecial_53157.png,66,0,66,66,0,,,,0,0,0,5,1,"[9, 21, 31, 45, 56, 68, 69]",1,1,0.8471775001380593,0.301907500019297,None,None,None,,,,,,,,,0,0,0,0,0,66,66,66,366.04989320016466,,,,,,,,,,,,,,,,,,,,,,366.0308275001589,366.0308767000679,366.0479927000124,366.04989320016466,366.04989320016466,366.04989320016466,366.04989320016466,369.0639426000416,369.0639426000416,370.047467000084,1,1,0.8471775001380593,0.301907500019297,None,370.04753650003113,370.04755840008147,None,370.047581900144,370.0475995000452,None,,,,,,,,,,,5,5,0,1,2025-04-17_10h35.57.601,rtmindeye,2024.2.4,60.03665839716323,2025-04-17 10h37.00.979589 -0400,
all_stimuli/special515/special_38641.jpg,67,0,67,67,0,,,,1,0,0,5,1,"[9, 21, 31, 45, 56, 68, 69]",1,0,1.042044600006193,0.26005579996854067,None,None,None,,,,,,,,,0,0,0,0,0,67,67,67,370.06398400012404,,,,,,,,,,,,,,,,,,,,,,370.04776210011914,370.0478064001072,370.0605166000314,370.06398400012404,370.06398400012404,370.06398400012404,370.06398400012404,373.063922500005,373.063922500005,374.04749760008417,1,0,1.042044600006193,0.26005579996854067,None,374.04755980009213,374.04758040001616,None,374.04760380019434,374.04762080009095,None,374.0641394001432,374.0641394001432,,,,,,,,,5,5,0,1,2025-04-17_10h35.57.601,rtmindeye,2024.2.4,60.03665839716323,2025-04-17 10h37.00.979589 -0400,
blank.jpg,68,1,68,68,0,,,,0,0,0,5,1,"[9, 21, 31, 45, 56, 68, 69]",None,0,,,None,None,None,,,,,,,,,0,0,0,0,0,68,68,68,374.0641394001432,,,,,,,,,,,,,,,,,,,,,,374.0477687001694,374.04780709999613,374.0554991001263,374.0641394001432,374.0641394001432,374.0641394001432,374.0641394001432,377.0641085000243,377.0641085000243,378.04760890011676,None,0,,,None,378.04766510007903,378.04768550000153,None,378.0477089001797,378.04772540018894,None,378.064270199975,378.064270199975,,,,,,,,,5,5,0,1,2025-04-17_10h35.57.601,rtmindeye,2024.2.4,60.03665839716323,2025-04-17 10h37.00.979589 -0400,
blank.jpg,69,1,69,69,0,,,,0,1,0,5,0,"[9, 21, 31, 45, 56, 68, 69]",None,0,,,None,1,equal,5.847202299861237,None,21.453546300064772,None,,,,,0,0,0,0,0,69,69,69,378.064270199975,,,,,,,,,,,,,,,,,,,,,,378.0478704001289,378.04790830006823,378.05424810014665,378.064270199975,378.064270199975,378.064270199975,378.064270199975,381.06403800006956,381.06403800006956,382.04742370010354,None,0,,,None,382.05403650016524,387.91421369998716,1,387.91426990018226,409.3975618002005,equal,382.0641694001388,382.0641694001388,382.0641694001388,382.0641694001388,5.847202299861237,None,387.93059340002947,387.93059340002947,21.453546300064772,None,5,5,0,1,2025-04-17_10h35.57.601,rtmindeye,2024.2.4,60.03665839716323,2025-04-17 10h37.00.979589 -0400,
,,,0,0,0,,,,,,,,,,,,,,,,,,,,,,,,,0,0,0,0,,,,,,,,,,,,,,,,,,,,,,,,,,,,,,,,,,,,,,,,,,,,,,,,,,,,,,,,,,5,5,0,1,2025-04-17_10h35.57.601,rtmindeye,2024.2.4,60.03665839716323,2025-04-17 10h37.00.979589 -0400,
all_stimuli/special515/special_71450.jpg,0,0,0,0,0,,,,0,0,1,5,1,"[9, 21, 31, 45, 56, 68, 69]",1,1,1.446083900053054,0.2639740000013262,None,None,None,,,,,,,,,1,0,1,0,0,0,0,0,409.4539692001417,,,,,,,,,,,,,,,,,,,,,,409.4357511000708,409.4358499001246,409.45177719998173,409.4539692001417,409.4539692001417,409.4539692001417,409.4539692001417,412.46391950012185,412.46391950012185,413.44719570013694,1,1,1.446083900053054,0.2639740000013262,None,413.44726760010235,413.44729040004313,None,413.4473153001163,413.4473329000175,None,,,,,,,,,,,5,5,0,1,2025-04-17_10h35.57.601,rtmindeye,2024.2.4,60.03665839716323,2025-04-17 10h37.00.979589 -0400,
all_stimuli/special515/special_38246.jpg,1,0,1,1,0,,,,0,0,1,5,1,"[9, 21, 31, 45, 56, 68, 69]",1,1,1.0074571000877768,0.2450077999383211,None,None,None,,,,,,,,,1,0,1,0,0,1,1,1,413.46458799997345,,,,,,,,,,,,,,,,,,,,,,413.44749400019646,413.4475373001769,413.462904300075,413.46458799997345,413.46458799997345,413.46458799997345,413.46458799997345,416.46370810014196,416.46370810014196,417.4474779001903,1,1,1.0074571000877768,0.2450077999383211,None,417.44754129997455,417.4475618000142,None,417.44758480018936,417.44760140008293,None,417.46698640007526,417.46698640007526,,,,,,,,,5,5,0,1,2025-04-17_10h35.57.601,rtmindeye,2024.2.4,60.03665839716323,2025-04-17 10h37.00.979589 -0400,
all_stimuli/special515/special_10046.jpg,2,0,2,2,0,,,,0,0,1,5,1,"[9, 21, 31, 45, 56, 68, 69]",1,1,0.876262899953872,0.21483519999310374,None,None,None,,,,,,,,,1,0,1,0,0,2,2,2,417.46698640007526,,,,,,,,,,,,,,,,,,,,,,417.4477629000321,417.44780210009776,417.46524360007606,417.46698640007526,417.46698640007526,417.46698640007526,417.46698640007526,420.480705199996,420.480705199996,421.4641907000914,1,1,0.876262899953872,0.21483519999310374,None,421.4642625001725,421.46428399998695,None,421.4643072001636,421.4643242000602,None,,,,,,,,,,,5,5,0,1,2025-04-17_10h35.57.601,rtmindeye,2024.2.4,60.03665839716323,2025-04-17 10h37.00.979589 -0400,
all_stimuli/MST_pairs1/pair_38_w_arch2.jpg,3,0,3,3,0,,,,0,0,1,5,1,"[9, 21, 31, 45, 56, 68, 69]",1,1,0.7959740001242608,0.2421954998280853,None,None,None,,,,,,,,,1,0,1,0,0,3,3,3,421.5010658001993,,,,,,,,,,,,,,,,,,,,,,421.46448040008545,421.46452440018766,421.49924100004137,421.5010658001993,421.5010658001993,421.5010658001993,421.5010658001993,424.51393410004675,424.51393410004675,425.4807055001147,1,1,0.7959740001242608,0.2421954998280853,None,425.48077440005727,425.48079650010914,None,425.4808196001686,425.4808367001824,None,,,,,,,,,,,5,5,0,1,2025-04-17_10h35.57.601,rtmindeye,2024.2.4,60.03665839716323,2025-04-17 10h37.00.979589 -0400,
all_stimuli/special515/special_30395.jpg,4,0,4,4,0,,,,0,0,1,5,1,"[9, 21, 31, 45, 56, 68, 69]",1,1,0.8410988999530673,0.23904100013896823,None,None,None,,,,,,,,,1,0,1,0,0,4,4,4,425.49801440001465,,,,,,,,,,,,,,,,,,,,,,425.48099460010417,425.481038399972,425.49630450014956,425.49801440001465,425.49801440001465,425.49801440001465,425.49801440001465,428.4972837001551,428.4972837001551,429.48076000018045,1,1,0.8410988999530673,0.23904100013896823,None,429.4808245000895,429.48084450000897,None,429.48086790018715,429.4808846001979,None,429.4972006001044,429.4972006001044,,,,,,,,,5,5,0,1,2025-04-17_10h35.57.601,rtmindeye,2024.2.4,60.03665839716323,2025-04-17 10h37.00.979589 -0400,
all_stimuli/special515/special_38494.jpg,5,0,5,5,0,,,,1,0,1,5,1,"[9, 21, 31, 45, 56, 68, 69]",2,1,0.8238981000613421,0.24584450013935566,None,None,None,,,,,,,,,1,0,1,0,0,5,5,5,429.4972006001044,,,,,,,,,,,,,,,,,,,,,,429.4810364001896,429.4810744000133,429.4924569001887,429.4972006001044,429.4972006001044,429.4972006001044,429.4972006001044,432.4974060000386,432.4974060000386,433.48029480013065,2,1,0.8238981000613421,0.24584450013935566,None,433.48035870003514,433.4803791001905,None,433.4804031001404,433.4804199000355,None,433.5018025999889,433.5018025999889,,,,,,,,,5,5,0,1,2025-04-17_10h35.57.601,rtmindeye,2024.2.4,60.03665839716323,2025-04-17 10h37.00.979589 -0400,
all_stimuli/MST_pairs1/pair_28_nsd_547_1_cocoid_60932.png,6,0,6,6,0,,,,1,0,1,5,1,"[9, 21, 31, 45, 56, 68, 69]",2,1,1.1492881998419762,0.24599600001238286,None,None,None,,,,,,,,,1,0,1,0,0,6,6,6,433.5018025999889,,,,,,,,,,,,,,,,,,,,,,433.4805672999937,433.4806054001674,433.4999381999951,433.5018025999889,433.5018025999889,433.5018025999889,433.5018025999889,436.5139974001795,436.5139974001795,437.49735180009156,2,1,1.1492881998419762,0.24599600001238286,None,437.49742170004174,437.49744320008904,None,437.497466100147,437.49748300015926,None,,,,,,,,,,,5,5,0,1,2025-04-17_10h35.57.601,rtmindeye,2024.2.4,60.03665839716323,2025-04-17 10h37.00.979589 -0400,
all_stimuli/special515/special_61133.jpg,7,0,7,7,0,,,,0,0,1,5,1,"[9, 21, 31, 45, 56, 68, 69]",1,1,0.9756582998670638,0.2789533000905067,None,None,None,,,,,,,,,1,0,1,0,0,7,7,7,437.5206466000527,,,,,,,,,,,,,,,,,,,,,,437.4976400001906,437.4976890999824,437.51867610006593,437.5206466000527,437.5206466000527,437.5206466000527,437.5206466000527,440.5305582000874,440.5305582000874,441.51385450013913,1,1,0.9756582998670638,0.2789533000905067,None,441.5139239002019,441.51394520001486,None,441.5139679000713,441.51398529997095,None,,,,,,,,,,,5,5,0,1,2025-04-17_10h35.57.601,rtmindeye,2024.2.4,60.03665839716323,2025-04-17 10h37.00.979589 -0400,
all_stimuli/shared1000_notspecial/notspecial_16635.png,8,0,8,8,0,,,,0,0,1,5,1,"[9, 21, 31, 45, 56, 68, 69]",1,1,1.246509299846366,0.24311290006153286,None,None,None,,,,,,,,,1,0,1,0,0,8,8,8,441.5325732000638,,,,,,,,,,,,,,,,,,,,,,441.51413980009966,441.51418350008316,441.53093380015343,441.5325732000638,441.5325732000638,441.5325732000638,441.5325732000638,444.54750049998984,444.54750049998984,445.53047470003366,1,1,1.246509299846366,0.24311290006153286,None,445.53054279997014,445.5305639000144,None,445.5305875001941,445.53060459997505,None,,,,,,,,,,,5,5,0,1,2025-04-17_10h35.57.601,rtmindeye,2024.2.4,60.03665839716323,2025-04-17 10h37.00.979589 -0400,
blank.jpg,9,1,9,9,0,,,,0,0,1,5,1,"[9, 21, 31, 45, 56, 68, 69]",None,0,,,None,None,None,,,,,,,,,1,0,1,0,0,9,9,9,445.54739030008204,,,,,,,,,,,,,,,,,,,,,,445.53075520019047,445.5307991001755,445.54013740015216,445.54739030008204,445.54739030008204,445.54739030008204,445.54739030008204,448.54693080019206,448.54693080019206,449.5307370000519,None,0,,,None,449.53079500002787,449.5308159000706,None,449.5308394001331,449.53085610014386,None,449.59788949997164,449.59788949997164,,,,,,,,,5,5,0,1,2025-04-17_10h35.57.601,rtmindeye,2024.2.4,60.03665839716323,2025-04-17 10h37.00.979589 -0400,
all_stimuli/MST_pairs1/pair_18_nsd_6_1_cocoid_13417.png,10,0,10,10,0,,,,0,0,1,5,1,"[9, 21, 31, 45, 56, 68, 69]",1,1,0.7212055001873523,0.23788979998789728,None,None,None,,,,,,,,,1,0,1,0,0,10,10,10,449.59788949997164,,,,,,,,,,,,,,,,,,,,,,449.5310049999971,449.5310428000521,449.59394729998894,449.59788949997164,449.59788949997164,449.59788949997164,449.59788949997164,452.59737340011634,452.59737340011634,453.5472062001936,1,1,0.7212055001873523,0.23788979998789728,None,453.5472734000068,453.5472942001652,None,453.5473172001075,453.54733470012434,None,,,,,,,,,,,5,5,0,1,2025-04-17_10h35.57.601,rtmindeye,2024.2.4,60.03665839716323,2025-04-17 10h37.00.979589 -0400,
all_stimuli/shared1000_notspecial/notspecial_21703.png,11,0,11,11,0,,,,0,0,1,5,1,"[9, 21, 31, 45, 56, 68, 69]",1,1,0.8243294998537749,0.2588581000454724,None,None,None,,,,,,,,,1,0,1,0,0,11,11,11,453.61784479999915,,,,,,,,,,,,,,,,,,,,,,453.547486100113,453.5475298000965,453.6145291000139,453.61784479999915,453.61784479999915,453.61784479999915,453.61784479999915,456.6306406999938,456.6306406999938,457.5641515001189,1,1,0.8243294998537749,0.2588581000454724,None,457.5642203001771,457.564241199987,None,457.56426500016823,457.5642826000694,None,,,,,,,,,,,5,5,0,1,2025-04-17_10h35.57.601,rtmindeye,2024.2.4,60.03665839716323,2025-04-17 10h37.00.979589 -0400,
all_stimuli/special515/special_24530.jpg,12,0,12,12,0,,,,0,0,1,5,1,"[9, 21, 31, 45, 56, 68, 69]",1,1,0.757709699915722,0.250836200080812,None,None,None,,,,,,,,,1,0,1,0,0,12,12,12,457.5835182000883,,,,,,,,,,,,,,,,,,,,,,457.56443980010226,457.56448690011166,457.58161050011404,457.5835182000883,457.5835182000883,457.5835182000883,457.5835182000883,460.5970312000718,460.5970312000718,461.5803349001799,1,1,0.757709699915722,0.250836200080812,None,461.5804050001316,461.5804261001758,None,461.58044900000095,461.5804662001319,None,,,,,,,,,,,5,5,0,1,2025-04-17_10h35.57.601,rtmindeye,2024.2.4,60.03665839716323,2025-04-17 10h37.00.979589 -0400,
all_stimuli/shared1000_notspecial/notspecial_6222.png,13,0,13,13,0,,,,0,0,1,5,1,"[9, 21, 31, 45, 56, 68, 69]",1,1,0.8103509000502527,0.21187759982421994,None,None,None,,,,,,,,,1,0,1,0,0,13,13,13,461.60978840012103,,,,,,,,,,,,,,,,,,,,,,461.58062450005673,461.58067030017264,461.608135699993,461.60978840012103,461.60978840012103,461.60978840012103,461.60978840012103,464.61390130012296,464.61390130012296,465.597395400051,1,1,0.8103509000502527,0.21187759982421994,None,465.5974642999936,465.5974858000409,None,465.5975089999847,465.5975272001233,None,,,,,,,,,,,5,5,0,1,2025-04-17_10h35.57.601,rtmindeye,2024.2.4,60.03665839716323,2025-04-17 10h37.00.979589 -0400,
all_stimuli/MST_pairs1/pair_44_w_log_cabin2.jpg,14,0,14,14,0,,,,0,0,1,5,1,"[9, 21, 31, 45, 56, 68, 69]",1,1,0.9902156998869032,0.19587980001233518,None,None,None,,,,,,,,,1,0,1,0,0,14,14,14,465.6159834000282,,,,,,,,,,,,,,,,,,,,,,465.59769910015166,465.59774410002865,465.61430440004915,465.6159834000282,465.6159834000282,465.6159834000282,465.6159834000282,468.6305552001577,468.6305552001577,469.61386200017296,1,1,0.9902156998869032,0.19587980001233518,None,469.6139327001292,469.613954000175,None,469.61397760012187,469.61399520002306,None,,,,,,,,,,,5,5,0,1,2025-04-17_10h35.57.601,rtmindeye,2024.2.4,60.03665839716323,2025-04-17 10h37.00.979589 -0400,
all_stimuli/special515/special_28068.jpg,15,0,15,15,0,,,,0,0,1,5,1,"[9, 21, 31, 45, 56, 68, 69]",1,1,0.8355060999747366,0.1798846998717636,None,None,None,,,,,,,,,1,0,1,0,0,15,15,15,469.6346627001185,,,,,,,,,,,,,,,,,,,,,,469.6141550000757,469.61419860017486,469.6327500999905,469.6346627001185,469.6346627001185,469.6346627001185,469.6346627001185,472.6468326000031,472.6468326000031,473.630685799988,1,1,0.8355060999747366,0.1798846998717636,None,473.630755700171,473.6307767999824,None,473.6307999000419,473.63081690017134,None,,,,,,,,,,,5,5,0,1,2025-04-17_10h35.57.601,rtmindeye,2024.2.4,60.03665839716323,2025-04-17 10h37.00.979589 -0400,
all_stimuli/shared1000_notspecial/notspecial_60978.png,16,0,16,16,0,,,,0,0,1,5,1,"[9, 21, 31, 45, 56, 68, 69]",1,1,1.0148034999147058,0.21902720001526177,None,None,None,,,,,,,,,1,0,1,0,0,16,16,16,473.65227770013735,,,,,,,,,,,,,,,,,,,,,,473.6309702000581,473.63101370004006,473.6507312001195,473.65227770013735,473.65227770013735,473.65227770013735,473.65227770013735,476.66335480008274,476.66335480008274,477.6473964001052,1,1,1.0148034999147058,0.21902720001526177,None,477.6474640001543,477.64748500008136,None,477.64750930015,477.6475265000481,None,,,,,,,,,,,5,5,0,1,2025-04-17_10h35.57.601,rtmindeye,2024.2.4,60.03665839716323,2025-04-17 10h37.00.979589 -0400,
all_stimuli/MST_pairs1/pair_2_4_22.png,17,0,17,17,0,,,,0,0,1,5,1,"[9, 21, 31, 45, 56, 68, 69]",2,0,1.169909599935636,0.25291140004992485,None,None,None,,,,,,,,,1,0,1,0,0,17,17,17,477.7001732001081,,,,,,,,,,,,,,,,,,,,,,477.6476906000171,477.6477346001193,477.6984380001668,477.7001732001081,477.7001732001081,477.7001732001081,477.7001732001081,480.7138298000209,480.7138298000209,481.6638276001904,2,0,1.169909599935636,0.25291140004992485,None,481.6638959001284,481.6639166001696,None,481.6639400999993,481.6639577001333,None,,,,,,,,,,,5,5,0,1,2025-04-17_10h35.57.601,rtmindeye,2024.2.4,60.03665839716323,2025-04-17 10h37.00.979589 -0400,
all_stimuli/shared1000_notspecial/notspecial_46160.png,18,0,18,18,0,,,,0,0,1,5,1,"[9, 21, 31, 45, 56, 68, 69]",1,1,0.8144731998909265,0.25001489999704063,None,None,None,,,,,,,,,1,0,1,0,0,18,18,18,481.68461070000194,,,,,,,,,,,,,,,,,,,,,,481.66411340003833,481.664157200139,481.6829819001723,481.68461070000194,481.68461070000194,481.68461070000194,481.68461070000194,484.6971859000623,484.6971859000623,485.68036840017885,1,1,0.8144731998909265,0.25001489999704063,None,485.68043750012293,485.68045850005,None,485.68048200011253,485.6804995001294,None,,,,,,,,,,,5,5,0,1,2025-04-17_10h35.57.601,rtmindeye,2024.2.4,60.03665839716323,2025-04-17 10h37.00.979589 -0400,
all_stimuli/special515/special_64880.jpg,19,0,19,19,0,,,,0,0,1,5,1,"[9, 21, 31, 45, 56, 68, 69]",1,1,1.0094538000412285,0.22902179998345673,None,None,None,,,,,,,,,1,0,1,0,0,19,19,19,485.697654500138,,,,,,,,,,,,,,,,,,,,,,485.68065320001915,485.68069640011527,485.69594630016945,485.697654500138,485.697654500138,485.697654500138,485.697654500138,488.6972116001416,488.6972116001416,489.680603899993,1,1,1.0094538000412285,0.22902179998345673,None,489.68066720012575,489.6806881001685,None,489.68071119999513,489.6807310001459,None,489.757608700078,489.757608700078,,,,,,,,,5,5,0,1,2025-04-17_10h35.57.601,rtmindeye,2024.2.4,60.03665839716323,2025-04-17 10h37.00.979589 -0400,
all_stimuli/MST_pairs1/pair_36_nsd_949_1_cocoid_43196.png,20,0,20,20,0,,,,0,0,1,5,1,"[9, 21, 31, 45, 56, 68, 69]",1,1,0.843441299861297,0.27705730008892715,None,None,None,,,,,,,,,1,0,1,0,0,20,20,20,489.757608700078,,,,,,,,,,,,,,,,,,,,,,489.68087749998085,489.6809157000389,489.7541437000036,489.757608700078,489.757608700078,489.757608700078,489.757608700078,492.7637736001052,492.7637736001052,493.69710380001925,1,1,0.843441299861297,0.27705730008892715,None,493.6971722000744,493.6971935001202,None,493.6972176001873,493.6972347002011,None,,,,,,,,,,,5,5,0,1,2025-04-17_10h35.57.601,rtmindeye,2024.2.4,60.03665839716323,2025-04-17 10h37.00.979589 -0400,
blank.jpg,21,1,21,21,0,,,,0,0,1,5,1,"[9, 21, 31, 45, 56, 68, 69]",None,0,,,None,None,None,,,,,,,,,1,0,1,0,0,21,21,21,493.71373370010406,,,,,,,,,,,,,,,,,,,,,,493.6973871001974,493.6974308001809,493.70661690016277,493.71373370010406,493.71373370010406,493.71373370010406,493.71373370010406,496.7139698001556,496.7139698001556,497.6971024000086,None,0,,,None,497.69716019998305,497.6971805000212,None,497.69720370019786,497.6972203999758,None,497.7135216000024,497.7135216000024,,,,,,,,,5,5,0,1,2025-04-17_10h35.57.601,rtmindeye,2024.2.4,60.03665839716323,2025-04-17 10h37.00.979589 -0400,
all_stimuli/special515/special_30632.jpg,22,0,22,22,0,,,,1,0,1,5,1,"[9, 21, 31, 45, 56, 68, 69]",2,1,0.9756118999794126,0.2258473001420498,None,None,None,,,,,,,,,1,0,1,0,0,22,22,22,497.7135216000024,,,,,,,,,,,,,,,,,,,,,,497.69736880017444,497.6974063999951,497.71169780008495,497.7135216000024,497.7135216000024,497.7135216000024,497.7135216000024,500.7137859000359,500.7137859000359,501.69715170003474,2,1,0.9756118999794126,0.2258473001420498,None,501.6972166001797,501.6972370001022,None,501.69725980004296,501.6972765000537,None,501.72021430009045,501.72021430009045,,,,,,,,,5,5,0,1,2025-04-17_10h35.57.601,rtmindeye,2024.2.4,60.03665839716323,2025-04-17 10h37.00.979589 -0400,
all_stimuli/MST_pairs1/pair_20_nsd_41_2_cocoid_63715.png,23,0,23,23,0,,,,1,0,1,5,1,"[9, 21, 31, 45, 56, 68, 69]",2,1,0.8298076000064611,0.2290530998725444,None,None,None,,,,,,,,,1,0,1,0,0,23,23,23,501.72021430009045,,,,,,,,,,,,,,,,,,,,,,501.6974299000576,501.69746860000305,501.71825050003827,501.72021430009045,501.72021430009045,501.72021430009045,501.72021430009045,504.73059849999845,504.73059849999845,505.71389640006237,2,1,0.8298076000064611,0.2290530998725444,None,505.71396449999884,505.7139858000446,None,505.7140087999869,505.71402580011636,None,,,,,,,,,,,5,5,0,1,2025-04-17_10h35.57.601,rtmindeye,2024.2.4,60.03665839716323,2025-04-17 10h37.00.979589 -0400,
all_stimuli/MST_pairs1/pair_22_nsd_115_2_cocoid_65194.png,24,0,24,24,0,,,,0,0,1,5,1,"[9, 21, 31, 45, 56, 68, 69]",1,1,0.9835751000791788,0.2651385997887701,None,None,None,,,,,,,,,1,0,1,0,0,24,24,24,505.7575290000532,,,,,,,,,,,,,,,,,,,,,,505.714176800102,505.7142209999729,505.7558338001836,505.7575290000532,505.7575290000532,505.7575290000532,505.7575290000532,508.7637769000139,508.7637769000139,509.7306820000522,1,1,0.9835751000791788,0.2651385997887701,None,509.73075530002825,509.73077730019577,None,509.73080110014416,509.73081890004687,None,,,,,,,,,,,5,5,0,1,2025-04-17_10h35.57.601,rtmindeye,2024.2.4,60.03665839716323,2025-04-17 10h37.00.979589 -0400,
all_stimuli/shared1000_notspecial/notspecial_26292.png,25,0,25,25,0,,,,0,0,1,5,1,"[9, 21, 31, 45, 56, 68, 69]",1,1,0.7776271000038832,0.22898090002126992,None,None,None,,,,,,,,,1,0,1,0,0,25,25,25,509.74749910016544,,,,,,,,,,,,,,,,,,,,,,509.73099020007066,509.73103530006483,509.7459254001733,509.74749910016544,509.74749910016544,509.74749910016544,509.74749910016544,512.7470794001129,512.7470794001129,513.7307391001377,1,1,0.7776271000038832,0.22898090002126992,None,513.7308030000422,513.7308239000849,None,513.730848000152,513.7308647001628,None,513.7470635001082,513.7470635001082,,,,,,,,,5,5,0,1,2025-04-17_10h35.57.601,rtmindeye,2024.2.4,60.03665839716323,2025-04-17 10h37.00.979589 -0400,
all_stimuli/special515/special_6489.jpg,26,0,26,26,0,,,,1,0,1,5,1,"[9, 21, 31, 45, 56, 68, 69]",2,1,1.5140259000472724,0.3209321000613272,None,None,None,,,,,,,,,1,0,1,0,0,26,26,26,513.7470635001082,,,,,,,,,,,,,,,,,,,,,,513.7310279000085,513.7310675000772,513.7437029001303,513.7470635001082,513.7470635001082,513.7470635001082,513.7470635001082,516.7471714999992,516.7471714999992,517.7307435001712,2,1,1.5140259000472724,0.3209321000613272,None,517.730805600062,517.730825799983,None,517.730849100044,517.7308660000563,None,517.7520427000709,517.7520427000709,,,,,,,,,5,5,0,1,2025-04-17_10h35.57.601,rtmindeye,2024.2.4,60.03665839716323,2025-04-17 10h37.00.979589 -0400,
all_stimuli/special515/special_55678.jpg,27,0,27,27,0,,,,0,0,1,5,1,"[9, 21, 31, 45, 56, 68, 69]",1,1,0.8300004999618977,0.28500660019926727,None,None,None,,,,,,,,,1,0,1,0,0,27,27,27,517.7520427000709,,,,,,,,,,,,,,,,,,,,,,517.7310213001911,517.7310603000224,517.7503166000824,517.7520427000709,517.7520427000709,517.7520427000709,517.7520427000709,520.7637283999939,520.7637283999939,521.7469872999936,1,1,0.8300004999618977,0.28500660019926727,None,521.7470563000534,521.7470811000094,None,521.747104300186,521.7471216002014,None,,,,,,,,,,,5,5,0,1,2025-04-17_10h35.57.601,rtmindeye,2024.2.4,60.03665839716323,2025-04-17 10h37.00.979589 -0400,
all_stimuli/special515/special_40909.jpg,28,0,28,28,0,,,,0,0,1,5,1,"[9, 21, 31, 45, 56, 68, 69]",1,1,1.7034164001233876,0.3329509999603033,None,None,None,,,,,,,,,1,0,1,0,0,28,28,28,521.7977008000016,,,,,,,,,,,,,,,,,,,,,,521.7472761999816,521.7473193001933,521.7959830001928,521.7977008000016,521.7977008000016,521.7977008000016,521.7977008000016,524.7968804000411,524.7968804000411,525.7639322001487,1,1,1.7034164001233876,0.3329509999603033,None,525.7640168999787,525.7640403001569,None,525.7640647001099,525.7640825000126,None,,,,,,,,,,,5,5,0,1,2025-04-17_10h35.57.601,rtmindeye,2024.2.4,60.03665839716323,2025-04-17 10h37.00.979589 -0400,
all_stimuli/special515/special_70360.jpg,29,0,29,29,0,,,,0,0,1,5,1,"[9, 21, 31, 45, 56, 68, 69]",1,1,1.080682500032708,0.2902388998772949,None,None,None,,,,,,,,,1,0,1,0,0,29,29,29,525.7842898000963,,,,,,,,,,,,,,,,,,,,,,525.7642557001673,525.7643206000794,525.7821704000235,525.7842898000963,525.7842898000963,525.7842898000963,525.7842898000963,528.7969645000994,528.7969645000994,529.7803423001897,1,1,1.080682500032708,0.2902388998772949,None,529.7804188001901,529.7804414001293,None,529.7804650000762,529.7804823999759,None,,,,,,,,,,,5,5,0,1,2025-04-17_10h35.57.601,rtmindeye,2024.2.4,60.03665839716323,2025-04-17 10h37.00.979589 -0400,
all_stimuli/MST_pairs1/pair_42_w_icerink1.jpg,30,0,30,30,0,,,,0,0,1,5,1,"[9, 21, 31, 45, 56, 68, 69]",2,0,1.1733058001846075,0.43501189979724586,None,None,None,,,,,,,,,1,0,1,0,0,30,30,30,529.7999089001678,,,,,,,,,,,,,,,,,,,,,,529.7806477001868,529.7807078000624,529.798121200176,529.7999089001678,529.7999089001678,529.7999089001678,529.7999089001678,532.8135326001793,532.8135326001793,533.7971226000227,2,0,1.1733058001846075,0.43501189979724586,None,533.7971928000916,533.7972134000156,None,533.7972362001892,533.7972532000858,None,,,,,,,,,,,5,5,0,1,2025-04-17_10h35.57.601,rtmindeye,2024.2.4,60.03665839716323,2025-04-17 10h37.00.979589 -0400,
blank.jpg,31,1,31,31,0,,,,0,0,1,5,1,"[9, 21, 31, 45, 56, 68, 69]",None,0,,,None,None,None,,,,,,,,,1,0,1,0,0,31,31,31,533.8140920000151,,,,,,,,,,,,,,,,,,,,,,533.7974109000061,533.797454399988,533.8053928001318,533.8140920000151,533.8140920000151,533.8140920000151,533.8140920000151,536.813611100195,536.813611100195,537.7972638001665,None,0,,,None,537.7973228001501,537.7973439001944,None,537.7973676000256,537.7973845000379,None,537.8136511000339,537.8136511000339,,,,,,,,,5,5,0,1,2025-04-17_10h35.57.601,rtmindeye,2024.2.4,60.03665839716323,2025-04-17 10h37.00.979589 -0400,
all_stimuli/special515/special_30430.jpg,32,0,32,32,0,,,,1,0,1,5,1,"[9, 21, 31, 45, 56, 68, 69]",2,1,0.9654691000469029,0.30298419995233417,None,None,None,,,,,,,,,1,0,1,0,0,32,32,32,537.8136511000339,,,,,,,,,,,,,,,,,,,,,,537.7975423000753,537.7975843001623,537.8098873000126,537.8136511000339,537.8136511000339,537.8136511000339,537.8136511000339,540.8135336001869,540.8135336001869,541.7971884000581,2,1,0.9654691000469029,0.30298419995233417,None,541.7972532999702,541.7972742000129,None,541.7972974001896,541.7973144000862,None,541.8176613000687,541.8176613000687,,,,,,,,,5,5,0,1,2025-04-17_10h35.57.601,rtmindeye,2024.2.4,60.03665839716323,2025-04-17 10h37.00.979589 -0400,
all_stimuli/shared1000_notspecial/notspecial_43746.png,33,0,33,33,0,,,,0,0,1,5,1,"[9, 21, 31, 45, 56, 68, 69]",1,1,0.9615599999669939,0.23681299993768334,None,None,None,,,,,,,,,1,0,1,0,0,33,33,33,541.8176613000687,,,,,,,,,,,,,,,,,,,,,,541.797466600081,541.7975045000203,541.8158732000738,541.8176613000687,541.8176613000687,541.8176613000687,541.8176613000687,544.8304355000146,544.8304355000146,545.8139178000856,1,1,0.9615599999669939,0.23681299993768334,None,545.8139874001499,545.81400880008,None,545.8140339001548,545.8140517000575,None,,,,,,,,,,,5,5,0,1,2025-04-17_10h35.57.601,rtmindeye,2024.2.4,60.03665839716323,2025-04-17 10h37.00.979589 -0400,
all_stimuli/MST_pairs1/pair_34_nsd_875_1_cocoid_67762.png,34,0,34,34,0,,,,0,0,1,5,1,"[9, 21, 31, 45, 56, 68, 69]",1,1,1.1638076000381261,0.31995749985799193,None,None,None,,,,,,,,,1,0,1,0,0,34,34,34,545.8393274000846,,,,,,,,,,,,,,,,,,,,,,545.8142142000142,545.8142612001393,545.8375383000821,545.8393274000846,545.8393274000846,545.8393274000846,545.8393274000846,548.847072500037,548.847072500037,549.8304145000875,1,1,1.1638076000381261,0.31995749985799193,None,549.8304847001564,549.8305069999769,None,549.8305304001551,549.8305476000533,None,,,,,,,,,,,5,5,0,1,2025-04-17_10h35.57.601,rtmindeye,2024.2.4,60.03665839716323,2025-04-17 10h37.00.979589 -0400,
all_stimuli/MST_pairs1/pair_12_16_78.png,35,0,35,35,0,,,,1,0,1,5,1,"[9, 21, 31, 45, 56, 68, 69]",2,1,1.0930799001362175,0.2970441000070423,None,None,None,,,,,,,,,1,0,1,0,0,35,35,35,549.8469911001157,,,,,,,,,,,,,,,,,,,,,,549.830708200112,549.8307521999814,549.8453505001962,549.8469911001157,549.8469911001157,549.8469911001157,549.8469911001157,552.8468906001654,552.8468906001654,553.8307332000695,2,1,1.0930799001362175,0.2970441000070423,None,553.8307968000881,553.8308191001415,None,553.8308421000838,553.830859299982,None,553.846715599997,553.846715599997,,,,,,,,,5,5,0,1,2025-04-17_10h35.57.601,rtmindeye,2024.2.4,60.03665839716323,2025-04-17 10h37.00.979589 -0400,
all_stimuli/special515/special_4249.jpg,36,0,36,36,0,,,,1,0,1,5,1,"[9, 21, 31, 45, 56, 68, 69]",2,1,0.7452563000842929,0.268112099962309,None,None,None,,,,,,,,,1,0,1,0,0,36,36,36,553.846715599997,,,,,,,,,,,,,,,,,,,,,,553.8310246001929,553.8310630000196,553.8446200001054,553.846715599997,553.846715599997,553.846715599997,553.846715599997,556.8468959999736,556.8468959999736,557.8306324000005,2,1,0.7452563000842929,0.268112099962309,None,557.8306971001439,557.8307172001805,None,557.8307399000041,557.8307572000194,None,557.8469647001475,557.8469647001475,,,,,,,,,5,5,0,1,2025-04-17_10h35.57.601,rtmindeye,2024.2.4,60.03665839716323,2025-04-17 10h37.00.979589 -0400,
all_stimuli/MST_pairs1/pair_42_w_icerink2.jpg,37,0,37,37,0,,,,1,0,1,5,1,"[9, 21, 31, 45, 56, 68, 69]",2,1,0.7891321000643075,0.25303929997608066,None,None,None,,,,,,,,,1,0,1,0,0,37,37,37,557.8469647001475,,,,,,,,,,,,,,,,,,,,,,557.8309114000294,557.830949800089,557.8426735000685,557.8469647001475,557.8469647001475,557.8469647001475,557.8469647001475,560.8467706001829,560.8467706001829,561.8305271000136,2,1,0.7891321000643075,0.25303929997608066,None,561.8305926001631,561.8306136999745,None,561.830637200037,561.830654400168,None,561.848258699989,561.848258699989,,,,,,,,,5,5,0,1,2025-04-17_10h35.57.601,rtmindeye,2024.2.4,60.03665839716323,2025-04-17 10h37.00.979589 -0400,
all_stimuli/shared1000_notspecial/notspecial_70038.png,38,0,38,38,0,,,,0,0,1,5,1,"[9, 21, 31, 45, 56, 68, 69]",1,1,0.9970050998963416,0.22492410009726882,None,None,None,,,,,,,,,1,0,1,0,0,38,38,38,561.848258699989,,,,,,,,,,,,,,,,,,,,,,561.8308165001217,561.8308560000733,561.8464826000854,561.848258699989,561.848258699989,561.848258699989,561.848258699989,564.8635860001668,564.8635860001668,565.8470213001128,1,1,0.9970050998963416,0.22492410009726882,None,565.8470952999778,565.8471163001377,None,565.8471392001957,565.8471566999797,None,,,,,,,,,,,5,5,0,1,2025-04-17_10h35.57.601,rtmindeye,2024.2.4,60.03665839716323,2025-04-17 10h37.00.979589 -0400,
all_stimuli/special515/special_53155.jpg,39,0,39,39,0,,,,0,0,1,5,1,"[9, 21, 31, 45, 56, 68, 69]",1,1,0.9777830000966787,0.3489329000003636,None,None,None,,,,,,,,,1,0,1,0,0,39,39,39,565.8665130999871,,,,,,,,,,,,,,,,,,,,,,565.8473166001495,565.8473602000158,565.8647376999725,565.8665130999871,565.8665130999871,565.8665130999871,565.8665130999871,568.880312600173,568.880312600173,569.8636271001305,1,1,0.9777830000966787,0.3489329000003636,None,569.8636973001994,569.8637193001341,None,569.8637431000825,569.8637602999806,None,,,,,,,,,,,5,5,0,1,2025-04-17_10h35.57.601,rtmindeye,2024.2.4,60.03665839716323,2025-04-17 10h37.00.979589 -0400,
all_stimuli/special515/special_24530.jpg,40,0,40,40,0,,,,1,0,1,5,1,"[9, 21, 31, 45, 56, 68, 69]",2,1,0.787714600097388,0.30515989987179637,None,None,None,,,,,,,,,1,0,1,0,0,40,40,40,569.8802518001758,,,,,,,,,,,,,,,,,,,,,,569.8639171000104,569.863961199997,569.8762600000482,569.8802518001758,569.8802518001758,569.8802518001758,569.8802518001758,572.8803121000528,572.8803121000528,573.8636376000941,2,1,0.787714600097388,0.30515989987179637,None,573.8637030001264,573.8637232000474,None,573.8637461001053,573.863763500005,None,573.8944417000748,573.8944417000748,,,,,,,,,5,5,0,1,2025-04-17_10h35.57.601,rtmindeye,2024.2.4,60.03665839716323,2025-04-17 10h37.00.979589 -0400,
all_stimuli/special515/special_32232.jpg,41,0,41,41,0,,,,0,0,1,5,1,"[9, 21, 31, 45, 56, 68, 69]",1,1,0.8705767998471856,0.3080842001363635,None,None,None,,,,,,,,,1,0,1,0,0,41,41,41,573.8944417000748,,,,,,,,,,,,,,,,,,,,,,573.863916600123,573.8639554001857,573.8927138000727,573.8944417000748,573.8944417000748,573.8944417000748,573.8944417000748,576.8969446001574,576.8969446001574,577.8806539000943,1,1,0.8705767998471856,0.3080842001363635,None,577.8807247001678,577.8807461999822,None,577.8807704001665,577.8807876000647,None,,,,,,,,,,,5,5,0,1,2025-04-17_10h35.57.601,rtmindeye,2024.2.4,60.03665839716323,2025-04-17 10h37.00.979589 -0400,
all_stimuli/special515/special_41814.jpg,42,0,42,42,0,,,,0,0,1,5,1,"[9, 21, 31, 45, 56, 68, 69]",1,1,1.0358914998359978,0.3520969001110643,None,None,None,,,,,,,,,1,0,1,0,0,42,42,42,577.8991541999858,,,,,,,,,,,,,,,,,,,,,,577.8809440999757,577.8809882001951,577.8974082001951,577.8991541999858,577.8991541999858,577.8991541999858,577.8991541999858,580.9133934001438,580.9133934001438,581.896961200051,1,1,1.0358914998359978,0.3520969001110643,None,581.8970315000042,581.89705280005,None,581.8970759001095,581.8970939000137,None,,,,,,,,,,,5,5,0,1,2025-04-17_10h35.57.601,rtmindeye,2024.2.4,60.03665839716323,2025-04-17 10h37.00.979589 -0400,
all_stimuli/shared1000_notspecial/notspecial_23883.png,43,0,43,43,0,,,,0,0,1,5,1,"[9, 21, 31, 45, 56, 68, 69]",1,1,0.8722907998599112,0.2349718001205474,None,None,None,,,,,,,,,1,0,1,0,0,43,43,43,581.9148529001977,,,,,,,,,,,,,,,,,,,,,,581.8972513000481,581.897356600035,581.9127936000004,581.9148529001977,581.9148529001977,581.9148529001977,581.9148529001977,584.9303950001486,584.9303950001486,585.9138136000838,1,1,0.8722907998599112,0.2349718001205474,None,585.9138827000279,585.9139044000767,None,585.9139281001408,585.9139452001546,None,,,,,,,,,,,5,5,0,1,2025-04-17_10h35.57.601,rtmindeye,2024.2.4,60.03665839716323,2025-04-17 10h37.00.979589 -0400,
all_stimuli/shared1000_notspecial/notspecial_4436.png,44,0,44,44,0,,,,0,0,1,5,1,"[9, 21, 31, 45, 56, 68, 69]",1,1,0.7889793999493122,0.26486849994398654,None,None,None,,,,,,,,,1,0,1,0,0,44,44,44,585.9312790001277,,,,,,,,,,,,,,,,,,,,,,585.9141023000702,585.9141496000811,585.9296552001033,585.9312790001277,585.9312790001277,585.9312790001277,585.9312790001277,588.9304270001594,588.9304270001594,589.9305025001522,1,1,0.7889793999493122,0.26486849994398654,None,589.9305716999806,589.9305937001482,None,589.9306183001027,589.9306359000038,None,,,,,,,,,,,5,5,0,1,2025-04-17_10h35.57.601,rtmindeye,2024.2.4,60.03665839716323,2025-04-17 10h37.00.979589 -0400,
blank.jpg,45,1,45,45,0,,,,0,0,1,5,1,"[9, 21, 31, 45, 56, 68, 69]",None,0,,,None,None,None,,,,,,,,,1,0,1,0,0,45,45,45,589.9470179001801,,,,,,,,,,,,,,,,,,,,,,589.9307972001843,589.9308415001724,589.9408913000952,589.9470179001801,589.9470179001801,589.9470179001801,589.9470179001801,592.9470407001209,592.9470407001209,593.9304635000881,None,0,,,None,593.9305208001751,593.930541299982,None,593.9305647001602,593.930581800174,None,593.9466147001367,593.9466147001367,,,,,,,,,5,5,0,1,2025-04-17_10h35.57.601,rtmindeye,2024.2.4,60.03665839716323,2025-04-17 10h37.00.979589 -0400,
all_stimuli/special515/special_61133.jpg,46,0,46,46,0,,,,1,0,1,5,1,"[9, 21, 31, 45, 56, 68, 69]",2,1,0.9454972997773439,0.2630218002013862,None,None,None,,,,,,,,,1,0,1,0,0,46,46,46,593.9466147001367,,,,,,,,,,,,,,,,,,,,,,593.9307252999861,593.9307635000441,593.94449610007,593.9466147001367,593.9466147001367,593.9466147001367,593.9466147001367,596.9470401001163,596.9470401001163,597.9304844001308,2,1,0.9454972997773439,0.2630218002013862,None,597.9305608000141,597.9305819000583,None,597.9306068001315,597.9306239001453,None,597.9871055001859,597.9871055001859,,,,,,,,,5,5,0,1,2025-04-17_10h35.57.601,rtmindeye,2024.2.4,60.03665839716323,2025-04-17 10h37.00.979589 -0400,
all_stimuli/MST_pairs1/pair_24_nsd_158_2_cocoid_3673.png,47,0,47,47,0,,,,0,0,1,5,1,"[9, 21, 31, 45, 56, 68, 69]",1,1,0.8878945999313146,0.27204800001345575,None,None,None,,,,,,,,,1,0,1,0,0,47,47,47,597.9871055001859,,,,,,,,,,,,,,,,,,,,,,597.9307876999956,597.9308269000612,597.9850920999888,597.9871055001859,597.9871055001859,597.9871055001859,597.9871055001859,600.9969059000723,600.9969059000723,601.9471171000041,1,1,0.8878945999313146,0.27204800001345575,None,601.9471863000654,601.947207899997,None,601.9472311001737,601.9472481000703,None,,,,,,,,,,,5,5,0,1,2025-04-17_10h35.57.601,rtmindeye,2024.2.4,60.03665839716323,2025-04-17 10h37.00.979589 -0400,
all_stimuli/MST_pairs1/pair_34_nsd_875_2_cocoid_72398.png,48,0,48,48,0,,,,0,0,1,5,1,"[9, 21, 31, 45, 56, 68, 69]",1,1,0.9865657999180257,0.25371559988707304,None,None,None,,,,,,,,,1,0,1,0,0,48,48,48,601.9736536999699,,,,,,,,,,,,,,,,,,,,,,601.9474069999997,601.9474510001019,601.9719031001441,601.9736536999699,601.9736536999699,601.9736536999699,601.9736536999699,604.9800001999829,604.9800001999829,605.9636992001906,1,1,0.9865657999180257,0.25371559988707304,None,605.9637668000069,605.9637877000496,None,605.9638120001182,605.9638294000179,None,,,,,,,,,,,5,5,0,1,2025-04-17_10h35.57.601,rtmindeye,2024.2.4,60.03665839716323,2025-04-17 10h37.00.979589 -0400,
all_stimuli/shared1000_notspecial/notspecial_51965.png,49,0,49,49,0,,,,0,0,1,5,1,"[9, 21, 31, 45, 56, 68, 69]",1,1,0.8979908998589963,0.30714619997888803,None,None,None,,,,,,,,,1,0,1,0,0,49,49,49,606.0060919001698,,,,,,,,,,,,,,,,,,,,,,605.9639821001329,605.9640254999977,606.0044756000862,606.0060919001698,606.0060919001698,606.0060919001698,606.0060919001698,609.0134674999863,609.0134674999863,609.980327400146,1,1,0.8979908998589963,0.30714619997888803,None,609.9804000000004,609.9804217000492,None,609.980444899993,609.980462500127,None,,,,,,,,,,,5,5,0,1,2025-04-17_10h35.57.601,rtmindeye,2024.2.4,60.03665839716323,2025-04-17 10h37.00.979589 -0400,
all_stimuli/MST_pairs1/pair_30_nsd_676_1_cocoid_48729.png,50,0,50,50,0,,,,0,0,1,5,1,"[9, 21, 31, 45, 56, 68, 69]",1,1,1.0672351999673992,0.3950513999443501,None,None,None,,,,,,,,,1,0,1,0,0,50,50,50,610.006867500022,,,,,,,,,,,,,,,,,,,,,,609.9806202000473,609.9806634001434,610.0049293001648,610.006867500022,610.006867500022,610.006867500022,610.006867500022,613.0135951000266,613.0135951000266,613.9971335001756,1,1,1.0672351999673992,0.3950513999443501,None,613.9972025000025,613.9972236000467,None,613.9972469001077,613.997264200123,None,,,,,,,,,,,5,5,0,1,2025-04-17_10h35.57.601,rtmindeye,2024.2.4,60.03665839716323,2025-04-17 10h37.00.979589 -0400,
all_stimuli/shared1000_notspecial/notspecial_52328.png,51,0,51,51,0,,,,0,0,1,5,1,"[9, 21, 31, 45, 56, 68, 69]",1,1,0.7487799001391977,0.2911505000665784,None,None,None,,,,,,,,,1,0,1,0,0,51,51,51,614.0151955001056,,,,,,,,,,,,,,,,,,,,,,613.9974214001559,613.9974655001424,614.0135668001603,614.0151955001056,614.0151955001056,614.0151955001056,614.0151955001056,617.0302407001145,617.0302407001145,618.0134845001157,1,1,0.7487799001391977,0.2911505000665784,None,618.0135525001679,618.0135733000934,None,618.0135973000433,618.0136143001728,None,,,,,,,,,,,5,5,0,1,2025-04-17_10h35.57.601,rtmindeye,2024.2.4,60.03665839716323,2025-04-17 10h37.00.979589 -0400,
all_stimuli/MST_pairs1/pair_4_6_44.png,52,0,52,52,0,,,,0,0,1,5,1,"[9, 21, 31, 45, 56, 68, 69]",1,1,0.8214292998891324,0.29397580004297197,None,None,None,,,,,,,,,1,0,1,0,0,52,52,52,618.0566885001026,,,,,,,,,,,,,,,,,,,,,,618.0137681001797,618.0138117000461,618.055013500154,618.0566885001026,618.0566885001026,618.0566885001026,618.0566885001026,621.0633499000687,621.0633499000687,622.0305989000481,1,1,0.8214292998891324,0.29397580004297197,None,622.0306679999921,622.0306889000349,None,622.0307128999848,622.0307304000016,None,,,,,,,,,,,5,5,0,1,2025-04-17_10h35.57.601,rtmindeye,2024.2.4,60.03665839716323,2025-04-17 10h37.00.979589 -0400,
all_stimuli/MST_pairs1/pair_48_w_runway1.jpg,53,0,53,53,0,,,,0,0,1,5,1,"[9, 21, 31, 45, 56, 68, 69]",1,1,0.9166103999596089,0.4221469000913203,None,None,None,,,,,,,,,1,0,1,0,0,53,53,53,622.0474599001464,,,,,,,,,,,,,,,,,,,,,,622.0308888000436,622.0309325000271,622.0457830000669,622.0474599001464,622.0474599001464,622.0474599001464,622.0474599001464,625.0470598000102,625.0470598000102,626.0300888000056,1,1,0.9166103999596089,0.4221469000913203,None,626.0301561001688,626.0301767000929,None,626.0302002001554,626.0302173001692,None,626.0476560001262,626.0476560001262,,,,,,,,,5,5,0,1,2025-04-17_10h35.57.601,rtmindeye,2024.2.4,60.03665839716323,2025-04-17 10h37.00.979589 -0400,
all_stimuli/special515/special_40840.jpg,54,0,54,54,0,,,,1,0,1,5,1,"[9, 21, 31, 45, 56, 68, 69]",1,0,1.19453480001539,0.45292409998364747,None,None,None,,,,,,,,,1,0,1,0,0,54,54,54,626.0476560001262,,,,,,,,,,,,,,,,,,,,,,626.0303728000727,626.0304109000135,626.045917800162,626.0476560001262,626.0476560001262,626.0476560001262,626.0476560001262,629.0469426000491,629.0469426000491,630.046713200165,1,0,1.19453480001539,0.45292409998364747,None,630.046783800004,630.0468045000453,None,630.0468278999906,630.0468451001216,None,,,,,,,,,,,5,5,0,1,2025-04-17_10h35.57.601,rtmindeye,2024.2.4,60.03665839716323,2025-04-17 10h37.00.979589 -0400,
all_stimuli/shared1000_notspecial/notspecial_12487.png,55,0,55,55,0,,,,0,0,1,5,1,"[9, 21, 31, 45, 56, 68, 69]",1,1,0.8474626999814063,0.2840198001358658,None,None,None,,,,,,,,,1,0,1,0,0,55,55,55,630.0716640001629,,,,,,,,,,,,,,,,,,,,,,630.0469986000098,630.0470422999933,630.0698903000448,630.0716640001629,630.0716640001629,630.0716640001629,630.0716640001629,633.0802072000224,633.0802072000224,634.0636680000462,1,1,0.8474626999814063,0.2840198001358658,None,634.0637376999948,634.0637591001578,None,634.0637829999905,634.0638006001245,None,,,,,,,,,,,5,5,0,1,2025-04-17_10h35.57.601,rtmindeye,2024.2.4,60.03665839716323,2025-04-17 10h37.00.979589 -0400,
blank.jpg,56,1,56,56,0,,,,0,0,1,5,1,"[9, 21, 31, 45, 56, 68, 69]",None,0,,,None,None,None,,,,,,,,,1,0,1,0,0,56,56,56,634.0804926001001,,,,,,,,,,,,,,,,,,,,,,634.063958800165,634.0640021001454,634.0726946999785,634.0804926001001,634.0804926001001,634.0804926001001,634.0804926001001,637.079946000129,637.079946000129,638.0637285001576,None,0,,,None,638.0637881001458,638.0638086001854,None,638.0638325000182,638.0638494000304,None,638.0802065001335,638.0802065001335,,,,,,,,,5,5,0,1,2025-04-17_10h35.57.601,rtmindeye,2024.2.4,60.03665839716323,2025-04-17 10h37.00.979589 -0400,
all_stimuli/MST_pairs1/pair_16_20_0.png,57,0,57,57,0,,,,1,0,1,5,1,"[9, 21, 31, 45, 56, 68, 69]",1,0,1.072023200104013,0.41282959980890155,None,None,None,,,,,,,,,1,0,1,0,0,57,57,57,638.0802065001335,,,,,,,,,,,,,,,,,,,,,,638.0640021001454,638.0640400000848,638.0786022001412,638.0802065001335,638.0802065001335,638.0802065001335,638.0802065001335,641.0803477000445,641.0803477000445,642.0637219001073,1,0,1.072023200104013,0.41282959980890155,None,642.0637853001244,642.0638058001641,None,642.0638296001125,642.0638468000107,None,642.0821187000256,642.0821187000256,,,,,,,,,5,5,0,1,2025-04-17_10h35.57.601,rtmindeye,2024.2.4,60.03665839716323,2025-04-17 10h37.00.979589 -0400,
all_stimuli/shared1000_notspecial/notspecial_12685.png,58,0,58,58,0,,,,0,0,1,5,1,"[9, 21, 31, 45, 56, 68, 69]",1,1,0.9648787002079189,0.3071241998113692,None,None,None,,,,,,,,,1,0,1,0,0,58,58,58,642.0821187000256,,,,,,,,,,,,,,,,,,,,,,642.0640045001637,642.0640442001168,642.0805655000731,642.0821187000256,642.0821187000256,642.0821187000256,642.0821187000256,645.0967608001083,645.0967608001083,646.0800865001511,1,1,0.9648787002079189,0.3071241998113692,None,646.0801570999902,646.0801785001531,None,646.0802027999889,646.0802199000027,None,,,,,,,,,,,5,5,0,1,2025-04-17_10h35.57.601,rtmindeye,2024.2.4,60.03665839716323,2025-04-17 10h37.00.979589 -0400,
all_stimuli/MST_pairs1/pair_36_nsd_949_2_cocoid_60031.png,59,0,59,59,0,,,,0,0,1,5,1,"[9, 21, 31, 45, 56, 68, 69]",1,1,1.049084800062701,0.435948200058192,None,None,None,,,,,,,,,1,0,1,0,0,59,59,59,646.1129709000234,,,,,,,,,,,,,,,,,,,,,,646.0803764001466,646.080420400016,646.1111769999843,646.1129709000234,646.1129709000234,646.1129709000234,646.1129709000234,649.1134961000644,649.1134961000644,650.0969152001198,1,1,1.049084800062701,0.435948200058192,None,650.0969854001887,650.0970067000017,None,650.0970301001798,650.0970480001997,None,,,,,,,,,,,5,5,0,1,2025-04-17_10h35.57.601,rtmindeye,2024.2.4,60.03665839716323,2025-04-17 10h37.00.979589 -0400,
all_stimuli/shared1000_notspecial/notspecial_34068.png,60,0,60,60,0,,,,0,0,1,5,1,"[9, 21, 31, 45, 56, 68, 69]",1,1,0.7044456000439823,0.3690456999465823,None,None,None,,,,,,,,,1,0,1,0,0,60,60,60,650.1156817001756,,,,,,,,,,,,,,,,,,,,,,650.0972045999952,650.0972482999787,650.1140323001891,650.1156817001756,650.1156817001756,650.1156817001756,650.1156817001756,653.129897700157,653.129897700157,654.1137157001067,1,1,0.7044456000439823,0.3690456999465823,None,654.1137908000965,654.1138121001422,None,654.1138355000876,654.1138526001014,None,,,,,,,,,,,5,5,0,1,2025-04-17_10h35.57.601,rtmindeye,2024.2.4,60.03665839716323,2025-04-17 10h37.00.979589 -0400,
all_stimuli/special515/special_11159.jpg,61,0,61,61,0,,,,0,0,1,5,1,"[9, 21, 31, 45, 56, 68, 69]",1,1,1.0352656000759453,0.2838457999750972,None,None,None,,,,,,,,,1,0,1,0,0,61,61,61,654.1340225001331,,,,,,,,,,,,,,,,,,,,,,654.1140072999988,654.1140517999884,654.1320925001055,654.1340225001331,654.1340225001331,654.1340225001331,654.1340225001331,657.1468436999712,657.1468436999712,658.1304173001554,1,1,1.0352656000759453,0.2838457999750972,None,658.130488099996,658.1305097001605,None,658.1305335999932,658.1305510001257,None,,,,,,,,,,,5,5,0,1,2025-04-17_10h35.57.601,rtmindeye,2024.2.4,60.03665839716323,2025-04-17 10h37.00.979589 -0400,
all_stimuli/MST_pairs1/pair_34_nsd_875_2_cocoid_72398.png,62,0,62,62,0,,,,1,0,1,5,1,"[9, 21, 31, 45, 56, 68, 69]",2,1,0.8405792999546975,0.3499582000076771,None,None,None,,,,,,,,,1,0,1,0,0,62,62,62,658.1535762001295,,,,,,,,,,,,,,,,,,,,,,658.1307182000019,658.130761800101,658.1516805000138,658.1535762001295,658.1535762001295,658.1535762001295,658.1535762001295,661.1635288000107,661.1635288000107,662.1468593999743,2,1,0.8405792999546975,0.3499582000076771,None,662.1469300000463,662.1469511999749,None,662.146975700045,662.1469930000603,None,,,,,,,,,,,5,5,0,1,2025-04-17_10h35.57.601,rtmindeye,2024.2.4,60.03665839716323,2025-04-17 10h37.00.979589 -0400,
all_stimuli/special515/special_67742.jpg,63,0,63,63,0,,,,0,0,1,5,1,"[9, 21, 31, 45, 56, 68, 69]",1,1,0.980599399888888,0.3430204999167472,None,None,None,,,,,,,,,1,0,1,0,0,63,63,63,662.1785210000817,,,,,,,,,,,,,,,,,,,,,,662.1471494999714,662.1471934001893,662.1765817000996,662.1785210000817,662.1785210000817,662.1785210000817,662.1785210000817,665.1800494000781,665.1800494000781,666.1636732001789,1,1,0.980599399888888,0.3430204999167472,None,666.1637432000134,666.1637639000546,None,666.163786600111,666.1638035001233,None,,,,,,,,,,,5,5,0,1,2025-04-17_10h35.57.601,rtmindeye,2024.2.4,60.03665839716323,2025-04-17 10h37.00.979589 -0400,
all_stimuli/MST_pairs1/pair_48_w_runway2.jpg,64,0,64,64,0,,,,0,0,1,5,1,"[9, 21, 31, 45, 56, 68, 69]",1,1,1.2372874000575393,0.3561519000213593,None,None,None,,,,,,,,,1,0,1,0,0,64,64,64,666.1797593000811,,,,,,,,,,,,,,,,,,,,,,666.1639582000207,666.1640020001214,666.177611600142,666.1797593000811,666.1797593000811,666.1797593000811,666.1797593000811,669.179932900006,669.179932900006,670.1635396000929,1,1,1.2372874000575393,0.3561519000213593,None,670.1636050001252,670.1636253001634,None,670.1636487001088,670.1636653000023,None,670.180770700099,670.180770700099,,,,,,,,,5,5,0,1,2025-04-17_10h35.57.601,rtmindeye,2024.2.4,60.03665839716323,2025-04-17 10h37.00.979589 -0400,
all_stimuli/MST_pairs1/pair_40_w_escalator1.jpg,65,0,65,65,0,,,,0,0,1,5,1,"[9, 21, 31, 45, 56, 68, 69]",1,1,0.9152549998834729,0.5399947999976575,None,None,None,,,,,,,,,1,0,1,0,0,65,65,65,670.180770700099,,,,,,,,,,,,,,,,,,,,,,670.1638176001143,670.1638593000825,670.1791660999879,670.180770700099,670.180770700099,670.180770700099,670.180770700099,673.1801654000301,673.1801654000301,674.1636684001423,1,1,0.9152549998834729,0.5399947999976575,None,674.1637321000453,674.1637527002022,None,674.1637754000258,674.1637922001537,None,674.1800671000965,674.1800671000965,,,,,,,,,5,5,0,1,2025-04-17_10h35.57.601,rtmindeye,2024.2.4,60.03665839716323,2025-04-17 10h37.00.979589 -0400,
all_stimuli/special515/special_62228.jpg,66,0,66,66,0,,,,1,0,1,5,1,"[9, 21, 31, 45, 56, 68, 69]",1,0,1.1641202999744564,0.6357827999163419,None,None,None,,,,,,,,,1,0,1,0,0,66,66,66,674.1800671000965,,,,,,,,,,,,,,,,,,,,,,674.1639426001348,674.1639811000787,674.1754950999748,674.1800671000965,674.1800671000965,674.1800671000965,674.1800671000965,677.1800306001678,677.1800306001678,678.1635094999801,1,0,1.1641202999744564,0.6357827999163419,None,678.1635730001144,678.1635930000339,None,678.1636163999792,678.1636334001087,None,678.2209078001324,678.2209078001324,,,,,,,,,5,5,0,1,2025-04-17_10h35.57.601,rtmindeye,2024.2.4,60.03665839716323,2025-04-17 10h37.00.979589 -0400,
all_stimuli/MST_pairs1/pair_26_nsd_483_2_cocoid_8054.png,67,0,67,67,0,,,,0,0,1,5,1,"[9, 21, 31, 45, 56, 68, 69]",1,1,0.9441100999247283,0.3270390999969095,None,None,None,,,,,,,,,1,0,1,0,0,67,67,67,678.2209078001324,,,,,,,,,,,,,,,,,,,,,,678.1637881000061,678.1638265000656,678.2189433001913,678.2209078001324,678.2209078001324,678.2209078001324,678.2209078001324,681.2299511001911,681.2299511001911,682.1801736000925,1,1,0.9441100999247283,0.3270390999969095,None,682.1802419000305,682.180263900198,None,682.1802872000262,682.180304700043,None,,,,,,,,,,,5,5,0,1,2025-04-17_10h35.57.601,rtmindeye,2024.2.4,60.03665839716323,2025-04-17 10h37.00.979589 -0400,
blank.jpg,68,1,68,68,0,,,,0,0,1,5,1,"[9, 21, 31, 45, 56, 68, 69]",None,0,,,None,None,None,,,,,,,,,1,0,1,0,0,68,68,68,682.1970838000998,,,,,,,,,,,,,,,,,,,,,,682.1804621000774,682.1805055001751,682.188655400183,682.1970838000998,682.1970838000998,682.1970838000998,682.1970838000998,685.1967288001906,685.1967288001906,686.1803249001969,None,0,,,None,686.1803833001759,686.1804035000969,None,686.1804263000377,686.1804432000499,None,686.1966657000594,686.1966657000594,,,,,,,,,5,5,0,1,2025-04-17_10h35.57.601,rtmindeye,2024.2.4,60.03665839716323,2025-04-17 10h37.00.979589 -0400,
blank.jpg,69,1,69,69,0,,,,0,1,1,5,0,"[9, 21, 31, 45, 56, 68, 69]",None,0,,,None,1,equal,15.58434440009296,None,21.087676100200042,None,,,,,1,0,1,0,0,69,69,69,686.1966657000594,,,,,,,,,,,,,,,,,,,,,,686.1805941001512,686.1806326999795,686.1867129001766,686.1966657000594,686.1966657000594,686.1966657000594,686.1966657000594,689.1966528000776,689.1966528000776,690.180131400004,None,0,,,None,690.1851294001099,705.7967448001727,1,705.7967994001228,726.9134719001595,equal,690.1967158000916,690.1967158000916,690.1967158000916,690.1967158000916,15.58434440009296,None,705.8133977001999,705.8133977001999,21.087676100200042,None,5,5,0,1,2025-04-17_10h35.57.601,rtmindeye,2024.2.4,60.03665839716323,2025-04-17 10h37.00.979589 -0400,
,,,1,0,1,,,,,,,,,,,,,,,,,,,,,,,,,1,0,1,0,,,,,,,,,,,,,,,,,,,,,,,,,,,,,,,,,,,,,,,,,,,,,,,,,,,,,,,,,,5,5,0,1,2025-04-17_10h35.57.601,rtmindeye,2024.2.4,60.03665839716323,2025-04-17 10h37.00.979589 -0400,
all_stimuli/shared1000_notspecial/notspecial_19672.png,0,0,0,0,0,,,,0,0,2,5,1,"[9, 21, 31, 45, 56, 68, 69]",2,0,1.3718107999302447,0.5292374000418931,None,None,None,,,,,,,,,2,0,2,0,0,0,0,0,726.9591833001468,,,,,,,,,,,,,,,,,,,,,,726.9415339000989,726.9416336000431,726.9572511999868,726.9591833001468,726.9591833001468,726.9591833001468,726.9591833001468,729.9633496999741,729.9633496999741,730.9469048001338,2,0,1.3718107999302447,0.5292374000418931,None,730.9469775999896,730.9469997000415,None,730.947024299996,730.9470428000204,None,,,,,,,,,,,5,5,0,1,2025-04-17_10h35.57.601,rtmindeye,2024.2.4,60.03665839716323,2025-04-17 10h37.00.979589 -0400,
all_stimuli/special515/special_55526.jpg,1,0,1,1,0,,,,0,0,2,5,1,"[9, 21, 31, 45, 56, 68, 69]",2,0,1.254779800074175,0.30808390001766384,None,None,None,,,,,,,,,2,0,2,0,0,1,1,1,730.9643236000556,,,,,,,,,,,,,,,,,,,,,,730.9472084001172,730.9472523001023,730.9625082002021,730.9643236000556,730.9643236000556,730.9643236000556,730.9643236000556,733.963437500177,733.963437500177,734.9468769000378,2,0,1.254779800074175,0.30808390001766384,None,734.9469398001675,734.9469600999728,None,734.9469827001449,734.9469997000415,None,734.9724026999902,734.9724026999902,,,,,,,,,5,5,0,1,2025-04-17_10h35.57.601,rtmindeye,2024.2.4,60.03665839716323,2025-04-17 10h37.00.979589 -0400,
