current_image,trial_index,is_blank_trial,is_repeat,is_new_run,run_num,sess_num,is_not_last_trial,all_blanks_list,practice.thisRepN,practice.thisTrialN,practice.thisN,practice.thisIndex,loop_runs.thisRepN,loop_runs.thisTrialN,loop_runs.thisN,loop_runs.thisIndex,loop_all_images.thisRepN,loop_all_images.thisTrialN,loop_all_images.thisN,loop_all_images.thisIndex,thisRow.t,notes,set_up.started,set_up.stopped,practice_continue.started,key_resp_6.started,text_6.started,practice_continue.stopped,key_resp_6.keys,key_resp_6.rt,key_resp_6.duration,practice_trial.started,image_2.started,press_if_repeat_2.started,polygon_3.started,all_keys_pressed_2.started,image_2.stopped,press_if_repeat_2.stopped,practice_trial.stopped,press_if_repeat_2.keys,press_if_repeat_2.corr,press_if_repeat_2.rt,press_if_repeat_2.duration,all_keys_pressed_2.keys,testing_continue.started,key_resp_7.started,text_7.started,testing_continue.stopped,key_resp_7.keys,key_resp_7.rt,key_resp_7.duration,waiting_fmri.started,key_resp_2.started,text_3.started,waiting_fmri.stopped,key_resp_2.keys,key_resp_2.rt,key_resp_2.duration,set_skips_and_correct_key.started,set_skips_and_correct_key.stopped,trial.started,image.started,press_if_repeat.started,polygon.started,all_keys_pressed.started,image.stopped,press_if_repeat.stopped,trial.stopped,press_if_repeat.keys,press_if_repeat.corr,press_if_repeat.rt,press_if_repeat.duration,all_keys_pressed.keys,run_wait2_2.started,run_wait2_2.stopped,key_resp_5.keys,waiting_fmri_2.started,waiting_fmri_2.stopped,key_resp_4.keys,polygon.stopped,all_keys_pressed.stopped,key_resp_5.started,text_5.started,key_resp_5.rt,key_resp_5.duration,key_resp_4.started,text_4.started,key_resp_4.rt,key_resp_4.duration,all_keys_pressed.rt,all_keys_pressed.duration,participant,session (1 2 or 3),starting_run,skip_practice,date,expName,psychopyVersion,frameRate,expStart
,,,,,,,,,,,,,,,,,,,,,,,0.004540667,0.004726417,,,,,,,,,,,,,,,,,,,,,,,,,,,,,,,,,,,,,,,,,,,,,,,,,,,,,,,,,,,,,,,,,,,,1,5,0,0,2025-01-13_10h50.18.339,rtmindeye,2024.1.5,None,2025-01-13 10h50.36.639128 -0500
,,,,,,,,,,,,,,,,,,,,,,,,,0.004740667,0.016752459,0.016752459,8.885112,1,8.685458666,None,,,,,,,,,,,,,,,,,,,,,,,,,,,,,,,,,,,,,,,,,,,,,,,,,,,,,,,,,,,,,1,5,0,0,2025-01-13_10h50.18.339,rtmindeye,2024.1.5,None,2025-01-13 10h50.36.639128 -0500
practice_images/w_kitchen2.jpg,0,0,,,,,,,0,0,0,0,,,,,,,,,8.905467334,,,,,,,,,,,8.890203125,8.905467334,8.905467334,8.905467334,8.905467334,11.89444904,11.89444904,12.89238104,1,0,0.951645083,0.183970875,None,,,,,,,,,,,,,,,,,,,,,,,,,,,,,,,,,,,,,,,,,,,,,,,,1,5,0,0,2025-01-13_10h50.18.339,rtmindeye,2024.1.5,None,2025-01-13 10h50.36.639128 -0500
practice_images/w_boardwalk2.jpg,1,0,,,,,,,0,1,1,1,,,,,,,,,12.90773929,,,,,,,,,,,12.89497246,12.90773929,12.90773929,12.90773929,12.90773929,15.90843954,15.90843954,16.89162612,1,0,0.806347666,0.149974292,None,,,,,,,,,,,,,,,,,,,,,,,,,,,,,,,,,,,,,,,,,,,,,,,,1,5,0,0,2025-01-13_10h50.18.339,rtmindeye,2024.1.5,None,2025-01-13 10h50.36.639128 -0500
practice_images/w_monument2.jpg,2,0,,,,,,,0,2,2,2,,,,,,,,,16.90572075,,,,,,,,,,,16.89301292,16.90572075,16.90572075,16.90572075,16.90572075,19.89370442,19.89370442,20.89251375,1,0,0.512394166,0.169079625,None,,,,,,,,,,,,,,,,,,,,,,,,,,,,,,,,,,,,,,,,,,,,,,,,1,5,0,0,2025-01-13_10h50.18.339,rtmindeye,2024.1.5,None,2025-01-13 10h50.36.639128 -0500
practice_images/w_auditorium2.jpg,3,0,,,,,,,0,3,3,3,,,,,,,,,20.92317079,,,,,,,,,,,20.89378229,20.92317079,20.92317079,20.92317079,20.92317079,23.92648917,23.92648917,24.89338429,1,0,0.806010791,0.1819045,None,,,,,,,,,,,,,,,,,,,,,,,,,,,,,,,,,,,,,,,,,,,,,,,,1,5,0,0,2025-01-13_10h50.18.339,rtmindeye,2024.1.5,None,2025-01-13 10h50.36.639128 -0500
practice_images/w_kitchen2.jpg,4,0,,,,,,,0,4,4,4,,,,,,,,,24.90581654,,,,,,,,,,,24.89439737,24.90581654,24.90581654,24.90581654,24.90581654,27.90831704,27.90831704,28.89006921,2,0,0.785319666,0.183048708,None,,,,,,,,,,,,,,,,,,,,,,,,,,,,,,,,,,,,,,,,,,,,,,,,1,5,0,0,2025-01-13_10h50.18.339,rtmindeye,2024.1.5,None,2025-01-13 10h50.36.639128 -0500
practice_images/w_auditorium1.jpg,5,0,,,,,,,0,5,5,5,,,,,,,,,28.90115754,,,,,,,,,,,28.89098767,28.90115754,28.90115754,28.90115754,28.90115754,31.90841554,31.90841554,32.89271,1,0,0.956005125,0.174067791,None,,,,,,,,,,,,,,,,,,,,,,,,,,,,,,,,,,,,,,,,,,,,,,,,1,5,0,0,2025-01-13_10h50.18.339,rtmindeye,2024.1.5,None,2025-01-13 10h50.36.639128 -0500
practice_images/w_bedroom2.jpg,6,0,,,,,,,0,6,6,6,,,,,,,,,32.90600225,,,,,,,,,,,32.89364287,32.90600225,32.90600225,32.90600225,32.90600225,35.90923358,35.90923358,36.89199796,1,0,1.114105707,0.184042959,None,,,,,,,,,,,,,,,,,,,,,,,,,,,,,,,,,,,,,,,,,,,,,,,,1,5,0,0,2025-01-13_10h50.18.339,rtmindeye,2024.1.5,None,2025-01-13 10h50.36.639128 -0500
practice_images/w_kitchen1.jpg,7,0,,,,,,,0,7,7,7,,,,,,,,,36.90614367,,,,,,,,,,,36.89294987,36.90614367,36.90614367,36.90614367,36.90614367,39.90881221,39.90881221,40.89159596,1,0,1.018113833,0.18391625,None,,,,,,,,,,,,,,,,,,,,,,,,,,,,,,,,,,,,,,,,,,,,,,,,1,5,0,0,2025-01-13_10h50.18.339,rtmindeye,2024.1.5,None,2025-01-13 10h50.36.639128 -0500
practice_images/w_bedroom1.jpg,8,0,,,,,,,0,8,8,8,,,,,,,,,40.90638371,,,,,,,,,,,40.89252471,40.90638371,40.90638371,40.90638371,40.90638371,43.90845212,43.90845212,44.89322987,1,0,1.181885916,0.180048791,None,,,,,,,,,,,,,,,,,,,,,,,,,,,,,,,,,,,,,,,,,,,,,,,,1,5,0,0,2025-01-13_10h50.18.339,rtmindeye,2024.1.5,None,2025-01-13 10h50.36.639128 -0500
practice_images/w_monument2.jpg,9,0,,,,,,,0,9,9,9,,,,,,,,,44.90579921,,,,,,,,,,,44.89453158,44.90579921,44.90579921,44.90579921,44.90579921,47.894006,47.894006,48.89165237,2,0,0.952417249,0.180046917,None,,,,,,,,,,,,,,,,,,,,,,,,,,,,,,,,,,,,,,,,,,,,,,,,1,5,0,0,2025-01-13_10h50.18.339,rtmindeye,2024.1.5,None,2025-01-13 10h50.36.639128 -0500
,,,,,,,,,,,,,,,,,,,,,,,,,,,,,,,,,,,,,,,,,,,,,48.89243313,48.913568,48.913568,51.80991529,1,2.887874541,None,,,,,,,,,,,,,,,,,,,,,,,,,,,,,,,,,,,,,,,,,1,5,0,0,2025-01-13_10h50.18.339,rtmindeye,2024.1.5,None,2025-01-13 10h50.36.639128 -0500
,,,,,,,,,,,,,,,,,,,,,,,,,,,,,,,,,,,,,,,,,,,,,,,,,,,,51.80994929,51.82332654,51.82332654,228.1805651,equal,176.3457113,None,,,,,,,,,,,,,,,,,,,,,,,,,,,,,,,,,,1,5,0,0,2025-01-13_10h50.18.339,rtmindeye,2024.1.5,None,2025-01-13 10h50.36.639128 -0500
all_stimuli/special515/special_13613.jpg,0,0,0,0,0,5,1,"[9, 21, 31, 45, 56, 68, 69]",,,,,0,0,0,0,0,0,0,0,228.2167024,,,,,,,,,,,,,,,,,,,,,,,,,,,,,,,,,,,,,,228.1993048,228.1997165,228.1997308,228.2167024,228.2167024,228.2167024,228.2167024,231.223983,231.223983,232.2070546,1,1,0.988203249,0.18209225,None,232.208008,232.2080747,None,232.2083246,232.2083617,None,,,,,,,,,,,,,1,5,0,0,2025-01-13_10h50.18.339,rtmindeye,2024.1.5,None,2025-01-13 10h50.36.639128 -0500
all_stimuli/shared1000_notspecial/notspecial_31049.png,1,0,0,0,0,5,1,"[9, 21, 31, 45, 56, 68, 69]",,,,,0,0,0,0,0,1,1,1,232.2251129,,,,,,,,,,,,,,,,,,,,,,,,,,,,,,,,,,,,,,232.208879,232.2089857,232.2089997,232.2251129,232.2251129,232.2251129,232.2251129,235.2264372,235.2264372,236.2112755,1,1,0.777797125,0.174004333,None,236.2128324,236.2128822,None,236.212939,236.2129571,None,,,,,,,,,,,,,1,5,0,0,2025-01-13_10h50.18.339,rtmindeye,2024.1.5,None,2025-01-13 10h50.36.639128 -0500
all_stimuli/special515/special_28096.jpg,2,0,0,0,0,5,1,"[9, 21, 31, 45, 56, 68, 69]",,,,,0,0,0,0,0,2,2,2,236.2231247,,,,,,,,,,,,,,,,,,,,,,,,,,,,,,,,,,,,,,236.2131603,236.2132302,236.2132378,236.2231247,236.2231247,236.2231247,236.2231247,239.2106388,239.2106388,240.2074477,1,1,0.827844874,0.177007333,None,240.2080102,240.208071,None,240.2081789,240.208214,None,240.2253039,240.2253039,,,,,,,,,,,1,5,0,0,2025-01-13_10h50.18.339,rtmindeye,2024.1.5,None,2025-01-13 10h50.36.639128 -0500
all_stimuli/shared1000_notspecial/notspecial_68471.png,3,0,0,0,0,5,1,"[9, 21, 31, 45, 56, 68, 69]",,,,,0,0,0,0,0,3,3,3,240.2253039,,,,,,,,,,,,,,,,,,,,,,,,,,,,,,,,,,,,,,240.208612,240.2087044,240.2087209,240.2253039,240.2253039,240.2253039,240.2253039,243.2238055,243.2238055,244.2100625,1,1,0.614676083,0.177026208,None,244.2105502,244.2106044,None,244.21069,244.2107173,None,,,,,,,,,,,,,1,5,0,0,2025-01-13_10h50.18.339,rtmindeye,2024.1.5,None,2025-01-13 10h50.36.639128 -0500
all_stimuli/special515/special_15506.jpg,4,0,0,0,0,5,1,"[9, 21, 31, 45, 56, 68, 69]",,,,,0,0,0,0,0,4,4,4,244.227251,,,,,,,,,,,,,,,,,,,,,,,,,,,,,,,,,,,,,,244.211036,244.2111232,244.211135,244.227251,244.227251,244.227251,244.227251,247.2266461,247.2266461,248.2107588,1,1,0.789750082,0.196012334,None,248.2112877,248.2113457,None,248.2114455,248.2114785,None,248.2388582,248.2388582,,,,,,,,,,,1,5,0,0,2025-01-13_10h50.18.339,rtmindeye,2024.1.5,None,2025-01-13 10h50.36.639128 -0500
all_stimuli/MST_pairs1/pair_24_nsd_158_1_cocoid_2285.png,5,0,0,0,0,5,1,"[9, 21, 31, 45, 56, 68, 69]",,,,,0,0,0,0,0,5,5,5,248.2388582,,,,,,,,,,,,,,,,,,,,,,,,,,,,,,,,,,,,,,248.2118759,248.2119672,248.2119808,248.2388582,248.2388582,248.2388582,248.2388582,251.2277007,251.2277007,252.2266132,1,1,0.874086958,0.205187125,None,252.2270468,252.2270886,None,252.2271418,252.2271665,None,,,,,,,,,,,,,1,5,0,0,2025-01-13_10h50.18.339,rtmindeye,2024.1.5,None,2025-01-13 10h50.36.639128 -0500
all_stimuli/MST_pairs1/pair_10_14_89.png,6,0,0,0,0,5,1,"[9, 21, 31, 45, 56, 68, 69]",,,,,0,0,0,0,0,6,6,6,252.2397924,,,,,,,,,,,,,,,,,,,,,,,,,,,,,,,,,,,,,,252.2273945,252.2274804,252.227488,252.2397924,252.2397924,252.2397924,252.2397924,255.2430208,255.2430208,256.2240025,1,1,0.633211541,0.17099175,None,256.2245267,256.224586,None,256.2246869,256.2247367,None,256.2383006,256.2383006,,,,,,,,,,,1,5,0,0,2025-01-13_10h50.18.339,rtmindeye,2024.1.5,None,2025-01-13 10h50.36.639128 -0500
all_stimuli/special515/special_62015.jpg,7,0,0,0,0,5,1,"[9, 21, 31, 45, 56, 68, 69]",,,,,0,0,0,0,0,7,7,7,256.2383006,,,,,,,,,,,,,,,,,,,,,,,,,,,,,,,,,,,,,,256.2251028,256.2251937,256.2252075,256.2383006,256.2383006,256.2383006,256.2383006,259.2398775,259.2398775,260.223914,1,1,0.748784999,0.184958292,None,260.2244839,260.2245458,None,260.2246456,260.2246789,None,260.2372311,260.2372311,,,,,,,,,,,1,5,0,0,2025-01-13_10h50.18.339,rtmindeye,2024.1.5,None,2025-01-13 10h50.36.639128 -0500
all_stimuli/special515/special_47687.jpg,8,0,0,0,0,5,1,"[9, 21, 31, 45, 56, 68, 69]",,,,,0,0,0,0,0,8,8,8,260.2372311,,,,,,,,,,,,,,,,,,,,,,,,,,,,,,,,,,,,,,260.2250584,260.2251495,260.2251632,260.2372311,260.2372311,260.2372311,260.2372311,263.2419172,263.2419172,264.2240336,1,1,0.642788166,0.184982834,None,264.2244165,264.2244526,None,264.2245106,264.2245278,None,264.2326359,264.2326359,,,,,,,,,,,1,5,0,0,2025-01-13_10h50.18.339,rtmindeye,2024.1.5,None,2025-01-13 10h50.36.639128 -0500
blank.jpg,9,1,0,0,0,5,1,"[9, 21, 31, 45, 56, 68, 69]",,,,,0,0,0,0,0,9,9,9,264.2326359,,,,,,,,,,,,,,,,,,,,,,,,,,,,,,,,,,,,,,264.2247387,264.2247884,264.2247957,264.2326359,264.2326359,264.2326359,264.2326359,267.2448337,267.2448337,268.2247612,None,0,,,None,268.2253304,268.2254288,None,268.2255838,268.2256356,None,268.2381453,268.2381453,,,,,,,,,,,1,5,0,0,2025-01-13_10h50.18.339,rtmindeye,2024.1.5,None,2025-01-13 10h50.36.639128 -0500
all_stimuli/special515/special_4249.jpg,10,0,0,0,0,5,1,"[9, 21, 31, 45, 56, 68, 69]",,,,,0,0,0,0,0,10,10,10,268.2381453,,,,,,,,,,,,,,,,,,,,,,,,,,,,,,,,,,,,,,268.2262132,268.2263557,268.2263772,268.2381453,268.2381453,268.2381453,268.2381453,271.2430918,271.2430918,272.2239493,1,1,0.942833207,0.191106667,None,272.2244783,272.2245337,None,272.2246305,272.2246624,None,272.2362348,272.2362348,,,,,,,,,,,1,5,0,0,2025-01-13_10h50.18.339,rtmindeye,2024.1.5,None,2025-01-13 10h50.36.639128 -0500
all_stimuli/special515/special_54361.jpg,11,0,0,0,0,5,1,"[9, 21, 31, 45, 56, 68, 69]",,,,,0,0,0,0,0,11,11,11,272.2362348,,,,,,,,,,,,,,,,,,,,,,,,,,,,,,,,,,,,,,272.2250181,272.2251093,272.225123,272.2362348,272.2362348,272.2362348,272.2362348,275.2430968,275.2430968,276.2240742,1,1,0.601871041,0.184978333,None,276.2246243,276.2246832,None,276.2247958,276.2248297,None,276.2375083,276.2375083,,,,,,,,,,,1,5,0,0,2025-01-13_10h50.18.339,rtmindeye,2024.1.5,None,2025-01-13 10h50.36.639128 -0500
all_stimuli/special515/special_6489.jpg,12,0,0,0,0,5,1,"[9, 21, 31, 45, 56, 68, 69]",,,,,0,0,0,0,0,12,12,12,276.2375083,,,,,,,,,,,,,,,,,,,,,,,,,,,,,,,,,,,,,,276.2251998,276.225291,276.2253046,276.2375083,276.2375083,276.2375083,276.2375083,279.2270699,279.2270699,280.2240125,1,1,0.715576541,0.19801825,None,280.2245713,280.2246278,None,280.224725,280.2247568,None,280.2382264,280.2382264,,,,,,,,,,,1,5,0,0,2025-01-13_10h50.18.339,rtmindeye,2024.1.5,None,2025-01-13 10h50.36.639128 -0500
all_stimuli/special515/special_38641.jpg,13,0,0,0,0,5,1,"[9, 21, 31, 45, 56, 68, 69]",,,,,0,0,0,0,0,13,13,13,280.2382264,,,,,,,,,,,,,,,,,,,,,,,,,,,,,,,,,,,,,,280.2251346,280.2252486,280.2252652,280.2382264,280.2382264,280.2382264,280.2382264,283.2434988,283.2434988,284.2242473,1,1,0.647876999,0.181932208,None,284.2247781,284.2248331,None,284.2249331,284.2249775,None,284.2388546,284.2388546,,,,,,,,,,,1,5,0,0,2025-01-13_10h50.18.339,rtmindeye,2024.1.5,None,2025-01-13 10h50.36.639128 -0500
all_stimuli/shared1000_notspecial/notspecial_67168.png,14,0,0,0,0,5,1,"[9, 21, 31, 45, 56, 68, 69]",,,,,0,0,0,0,0,14,14,14,284.2388546,,,,,,,,,,,,,,,,,,,,,,,,,,,,,,,,,,,,,,284.2253439,284.2254375,284.2254516,284.2388546,284.2388546,284.2388546,284.2388546,287.227443,287.227443,288.2240086,1,1,0.62026475,0.180068708,None,288.224547,288.2246028,None,288.2246985,288.2247308,None,288.238346,288.238346,,,,,,,,,,,1,5,0,0,2025-01-13_10h50.18.339,rtmindeye,2024.1.5,None,2025-01-13 10h50.36.639128 -0500
all_stimuli/shared1000_notspecial/notspecial_59079.png,15,0,0,0,0,5,1,"[9, 21, 31, 45, 56, 68, 69]",,,,,0,0,0,0,0,15,15,15,288.238346,,,,,,,,,,,,,,,,,,,,,,,,,,,,,,,,,,,,,,288.2251062,288.2252152,288.2252289,288.238346,288.238346,288.238346,288.238346,291.2430347,291.2430347,292.2241443,1,1,0.873789332,0.1819695,None,292.2246674,292.2247232,None,292.2248203,292.2248523,None,292.2415253,292.2415253,,,,,,,,,,,1,5,0,0,2025-01-13_10h50.18.339,rtmindeye,2024.1.5,None,2025-01-13 10h50.36.639128 -0500
all_stimuli/MST_pairs1/pair_2_4_89.png,16,0,0,0,0,5,1,"[9, 21, 31, 45, 56, 68, 69]",,,,,0,0,0,0,0,16,16,16,292.2415253,,,,,,,,,,,,,,,,,,,,,,,,,,,,,,,,,,,,,,292.2252762,292.225389,292.2254058,292.2415253,292.2415253,292.2415253,292.2415253,295.241324,295.241324,296.2269961,1,1,0.69666525,0.193904833,None,296.227638,296.2277069,None,296.2278255,296.2278657,None,,,,,,,,,,,,,1,5,0,0,2025-01-13_10h50.18.339,rtmindeye,2024.1.5,None,2025-01-13 10h50.36.639128 -0500
all_stimuli/shared1000_notspecial/notspecial_26127.png,17,0,0,0,0,5,1,"[9, 21, 31, 45, 56, 68, 69]",,,,,0,0,0,0,0,17,17,17,296.2429492,,,,,,,,,,,,,,,,,,,,,,,,,,,,,,,,,,,,,,296.228301,296.2284253,296.2284425,296.2429492,296.2429492,296.2429492,296.2429492,299.2407239,299.2407239,300.2273697,1,1,0.716205999,0.199022125,None,300.2278218,300.2278693,None,300.2279527,300.227984,None,300.2399542,300.2399542,,,,,,,,,,,1,5,0,0,2025-01-13_10h50.18.339,rtmindeye,2024.1.5,None,2025-01-13 10h50.36.639128 -0500
all_stimuli/shared1000_notspecial/notspecial_20223.png,18,0,0,0,0,5,1,"[9, 21, 31, 45, 56, 68, 69]",,,,,0,0,0,0,0,18,18,18,300.2399542,,,,,,,,,,,,,,,,,,,,,,,,,,,,,,,,,,,,,,300.2283221,300.2284012,300.2284126,300.2399542,300.2399542,300.2399542,300.2399542,303.2273387,303.2273387,304.2248135,1,1,0.678287208,0.240937125,None,304.2253572,304.2254108,None,304.2254944,304.2255223,None,304.2391361,304.2391361,,,,,,,,,,,1,5,0,0,2025-01-13_10h50.18.339,rtmindeye,2024.1.5,None,2025-01-13 10h50.36.639128 -0500
all_stimuli/special515/special_62015.jpg,19,0,1,0,0,5,1,"[9, 21, 31, 45, 56, 68, 69]",,,,,0,0,0,0,0,19,19,19,304.2391361,,,,,,,,,,,,,,,,,,,,,,,,,,,,,,,,,,,,,,304.2258422,304.2259259,304.2259375,304.2391361,304.2391361,304.2391361,304.2391361,307.2431063,307.2431063,308.224279,2,1,1.001935124,0.20099025,None,308.2248533,308.2249117,None,308.2250104,308.2250424,None,308.2375649,308.2375649,,,,,,,,,,,1,5,0,0,2025-01-13_10h50.18.339,rtmindeye,2024.1.5,None,2025-01-13 10h50.36.639128 -0500
all_stimuli/special515/special_10244.jpg,20,0,0,0,0,5,1,"[9, 21, 31, 45, 56, 68, 69]",,,,,0,0,0,0,0,20,20,20,308.2375649,,,,,,,,,,,,,,,,,,,,,,,,,,,,,,,,,,,,,,308.2254176,308.2255091,308.225523,308.2375649,308.2375649,308.2375649,308.2375649,311.2283953,311.2283953,312.2234792,1,1,0.745662874,0.2038735,None,312.2238055,312.2238372,None,312.2238899,312.2239075,None,312.2289146,312.2289146,,,,,,,,,,,1,5,0,0,2025-01-13_10h50.18.339,rtmindeye,2024.1.5,None,2025-01-13 10h50.36.639128 -0500
blank.jpg,21,1,0,0,0,5,1,"[9, 21, 31, 45, 56, 68, 69]",,,,,0,0,0,0,0,21,21,21,312.2289146,,,,,,,,,,,,,,,,,,,,,,,,,,,,,,,,,,,,,,312.224106,312.2241564,312.2241639,312.2289146,312.2289146,312.2289146,312.2289146,315.2439735,315.2439735,316.2241108,None,0,,,None,316.2244915,316.2245452,None,316.224648,316.2246793,None,316.2387738,316.2387738,,,,,,,,,,,1,5,0,0,2025-01-13_10h50.18.339,rtmindeye,2024.1.5,None,2025-01-13 10h50.36.639128 -0500
all_stimuli/special515/special_28524.jpg,22,0,0,0,0,5,1,"[9, 21, 31, 45, 56, 68, 69]",,,,,0,0,0,0,0,22,22,22,316.2387738,,,,,,,,,,,,,,,,,,,,,,,,,,,,,,,,,,,,,,316.2250481,316.2251517,316.2251685,316.2387738,316.2387738,316.2387738,316.2387738,319.2422161,319.2422161,320.2243878,1,1,0.904446166,0.168011208,None,320.224959,320.2250194,None,320.2251172,320.225149,None,320.237676,320.237676,,,,,,,,,,,1,5,0,0,2025-01-13_10h50.18.339,rtmindeye,2024.1.5,None,2025-01-13 10h50.36.639128 -0500
all_stimuli/special515/special_30430.jpg,23,0,0,0,0,5,1,"[9, 21, 31, 45, 56, 68, 69]",,,,,0,0,0,0,0,23,23,23,320.237676,,,,,,,,,,,,,,,,,,,,,,,,,,,,,,,,,,,,,,320.2255688,320.2256595,320.2256762,320.237676,320.237676,320.237676,320.237676,323.2457639,323.2457639,324.2243558,1,1,0.674581625,0.2019465,None,324.2248315,324.22488,None,324.2249638,324.2249908,None,324.2387674,324.2387674,,,,,,,,,,,1,5,0,0,2025-01-13_10h50.18.339,rtmindeye,2024.1.5,None,2025-01-13 10h50.36.639128 -0500
all_stimuli/MST_pairs1/pair_10_14_33.png,24,0,0,0,0,5,1,"[9, 21, 31, 45, 56, 68, 69]",,,,,0,0,0,0,0,24,24,24,324.2387674,,,,,,,,,,,,,,,,,,,,,,,,,,,,,,,,,,,,,,324.2252982,324.2253783,324.2253929,324.2387674,324.2387674,324.2387674,324.2387674,327.2436132,327.2436132,328.2255505,1,1,0.907399416,0.192128334,None,328.226381,328.226454,None,328.2265817,328.2266265,None,328.2401342,328.2401342,,,,,,,,,,,1,5,0,0,2025-01-13_10h50.18.339,rtmindeye,2024.1.5,None,2025-01-13 10h50.36.639128 -0500
all_stimuli/shared1000_notspecial/notspecial_10907.png,25,0,0,0,0,5,1,"[9, 21, 31, 45, 56, 68, 69]",,,,,0,0,0,0,0,25,25,25,328.2401342,,,,,,,,,,,,,,,,,,,,,,,,,,,,,,,,,,,,,,328.2270844,328.2271987,328.2272159,328.2401342,328.2401342,328.2401342,328.2401342,331.2420899,331.2420899,332.2243263,1,1,1.158202166,0.1939,None,332.224897,332.224959,None,332.2250583,332.2250938,None,332.2391959,332.2391959,,,,,,,,,,,1,5,0,0,2025-01-13_10h50.18.339,rtmindeye,2024.1.5,None,2025-01-13 10h50.36.639128 -0500
all_stimuli/special515/special_22587.jpg,26,0,0,0,0,5,1,"[9, 21, 31, 45, 56, 68, 69]",,,,,0,0,0,0,0,26,26,26,332.2391959,,,,,,,,,,,,,,,,,,,,,,,,,,,,,,,,,,,,,,332.2254798,332.2255715,332.2255854,332.2391959,332.2391959,332.2391959,332.2391959,335.2410481,335.2410481,336.2245658,1,1,0.980171832,0.202948209,None,336.2251726,336.2252326,None,336.2253334,336.2253657,None,336.2373871,336.2373871,,,,,,,,,,,1,5,0,0,2025-01-13_10h50.18.339,rtmindeye,2024.1.5,None,2025-01-13 10h50.36.639128 -0500
all_stimuli/special515/special_3687.jpg,27,0,0,0,0,5,1,"[9, 21, 31, 45, 56, 68, 69]",,,,,0,0,0,0,0,27,27,27,336.2373871,,,,,,,,,,,,,,,,,,,,,,,,,,,,,,,,,,,,,,336.2257431,336.225835,336.2258482,336.2373871,336.2373871,336.2373871,336.2373871,339.2408241,339.2408241,340.2243044,1,1,0.828876541,0.193992958,None,340.2248569,340.2249147,None,340.2250106,340.2250427,None,340.2402461,340.2402461,,,,,,,,,,,1,5,0,0,2025-01-13_10h50.18.339,rtmindeye,2024.1.5,None,2025-01-13 10h50.36.639128 -0500
all_stimuli/shared1000_notspecial/notspecial_58164.png,28,0,0,0,0,5,1,"[9, 21, 31, 45, 56, 68, 69]",,,,,0,0,0,0,0,28,28,28,340.2402461,,,,,,,,,,,,,,,,,,,,,,,,,,,,,,,,,,,,,,340.2253987,340.22549,340.2255038,340.2402461,340.2402461,340.2402461,340.2402461,343.2454247,343.2454247,344.2242928,1,1,0.751025125,0.204067708,None,344.2248233,344.22488,None,344.2249752,344.2250071,None,344.2388521,344.2388521,,,,,,,,,,,1,5,0,0,2025-01-13_10h50.18.339,rtmindeye,2024.1.5,None,2025-01-13 10h50.36.639128 -0500
all_stimuli/special515/special_38494.jpg,29,0,0,0,0,5,1,"[9, 21, 31, 45, 56, 68, 69]",,,,,0,0,0,0,0,29,29,29,344.2388521,,,,,,,,,,,,,,,,,,,,,,,,,,,,,,,,,,,,,,344.2253724,344.2254638,344.2254773,344.2388521,344.2388521,344.2388521,344.2388521,347.2419285,347.2419285,348.2248195,1,1,0.887473499,0.171953709,None,348.225432,348.2254883,None,348.225586,348.2256181,None,348.2408169,348.2408169,,,,,,,,,,,1,5,0,0,2025-01-13_10h50.18.339,rtmindeye,2024.1.5,None,2025-01-13 10h50.36.639128 -0500
all_stimuli/MST_pairs1/pair_12_16_22.png,30,0,0,0,0,5,1,"[9, 21, 31, 45, 56, 68, 69]",,,,,0,0,0,0,0,30,30,30,348.2408169,,,,,,,,,,,,,,,,,,,,,,,,,,,,,,,,,,,,,,348.2259917,348.2260835,348.2260973,348.2408169,348.2408169,348.2408169,348.2408169,351.2264662,351.2264662,352.2245148,1,1,0.857465749,0.174074,None,352.2251571,352.2252404,None,352.2253765,352.225415,None,352.2350796,352.2350796,,,,,,,,,,,1,5,0,0,2025-01-13_10h50.18.339,rtmindeye,2024.1.5,None,2025-01-13 10h50.36.639128 -0500
blank.jpg,31,1,0,0,0,5,1,"[9, 21, 31, 45, 56, 68, 69]",,,,,0,0,0,0,0,31,31,31,352.2350796,,,,,,,,,,,,,,,,,,,,,,,,,,,,,,,,,,,,,,352.2258725,352.2259853,352.2260018,352.2350796,352.2350796,352.2350796,352.2350796,355.2287035,355.2287035,356.2245675,None,0,,,None,356.2249917,356.2250475,None,356.225165,356.2252003,None,356.2390508,356.2390508,,,,,,,,,,,1,5,0,0,2025-01-13_10h50.18.339,rtmindeye,2024.1.5,None,2025-01-13 10h50.36.639128 -0500
all_stimuli/special515/special_66489.jpg,32,0,0,0,0,5,1,"[9, 21, 31, 45, 56, 68, 69]",,,,,0,0,0,0,0,32,32,32,356.2390508,,,,,,,,,,,,,,,,,,,,,,,,,,,,,,,,,,,,,,356.2256135,356.225706,356.22572,356.2390508,356.2390508,356.2390508,356.2390508,359.2276817,359.2276817,360.2246199,1,1,0.803300124,0.176017375,None,360.2251534,360.2252103,None,360.2253067,360.2253407,None,360.2480817,360.2480817,,,,,,,,,,,1,5,0,0,2025-01-13_10h50.18.339,rtmindeye,2024.1.5,None,2025-01-13 10h50.36.639128 -0500
all_stimuli/MST_pairs1/pair_28_nsd_547_1_cocoid_60932.png,33,0,0,0,0,5,1,"[9, 21, 31, 45, 56, 68, 69]",,,,,0,0,0,0,0,33,33,33,360.2480817,,,,,,,,,,,,,,,,,,,,,,,,,,,,,,,,,,,,,,360.2257021,360.2257942,360.225808,360.2480817,360.2480817,360.2480817,360.2480817,363.2440423,363.2440423,364.2270372,1,1,0.862314624,0.198012667,None,364.2275952,364.2276526,None,364.2277487,364.2277811,None,,,,,,,,,,,,,1,5,0,0,2025-01-13_10h50.18.339,rtmindeye,2024.1.5,None,2025-01-13 10h50.36.639128 -0500
all_stimuli/shared1000_notspecial/notspecial_46002.png,34,0,0,0,0,5,1,"[9, 21, 31, 45, 56, 68, 69]",,,,,0,0,0,0,0,34,34,34,364.2437649,,,,,,,,,,,,,,,,,,,,,,,,,,,,,,,,,,,,,,364.2281542,364.2282516,364.2282658,364.2437649,364.2437649,364.2437649,364.2437649,367.2439295,367.2439295,368.2275925,1,1,0.825688833,0.177896708,None,368.2280581,368.2281065,None,368.2281905,368.2282184,None,368.2437595,368.2437595,,,,,,,,,,,1,5,0,0,2025-01-13_10h50.18.339,rtmindeye,2024.1.5,None,2025-01-13 10h50.36.639128 -0500
all_stimuli/special515/special_30632.jpg,35,0,0,0,0,5,1,"[9, 21, 31, 45, 56, 68, 69]",,,,,0,0,0,0,0,35,35,35,368.2437595,,,,,,,,,,,,,,,,,,,,,,,,,,,,,,,,,,,,,,368.2285537,368.2286329,368.2286445,368.2437595,368.2437595,368.2437595,368.2437595,371.259369,371.259369,372.2271237,1,1,1.124054291,0.1775545,None,372.2274486,372.2274817,None,372.2275397,372.2275575,None,372.2405224,372.2405224,,,,,,,,,,,1,5,0,0,2025-01-13_10h50.18.339,rtmindeye,2024.1.5,None,2025-01-13 10h50.36.639128 -0500
all_stimuli/special515/special_31936.jpg,36,0,0,0,0,5,1,"[9, 21, 31, 45, 56, 68, 69]",,,,,0,0,0,0,0,36,36,36,372.2405224,,,,,,,,,,,,,,,,,,,,,,,,,,,,,,,,,,,,,,372.227964,372.2280201,372.2280274,372.2405224,372.2405224,372.2405224,372.2405224,375.2290505,375.2290505,376.2242804,1,1,0.840937499,0.155939667,None,376.2248232,376.2248782,None,376.2249745,376.2250062,None,376.2406968,376.2406968,,,,,,,,,,,1,5,0,0,2025-01-13_10h50.18.339,rtmindeye,2024.1.5,None,2025-01-13 10h50.36.639128 -0500
all_stimuli/MST_pairs1/pair_8_12_56.png,37,0,0,0,0,5,1,"[9, 21, 31, 45, 56, 68, 69]",,,,,0,0,0,0,0,37,37,37,376.2406968,,,,,,,,,,,,,,,,,,,,,,,,,,,,,,,,,,,,,,376.225366,376.2254737,376.2254877,376.2406968,376.2406968,376.2406968,376.2406968,379.228673,379.228673,380.2245535,1,1,0.892766249,0.176001917,None,380.2250901,380.2251465,None,380.2252444,380.2252765,None,380.2402405,380.2402405,,,,,,,,,,,1,5,0,0,2025-01-13_10h50.18.339,rtmindeye,2024.1.5,None,2025-01-13 10h50.36.639128 -0500
all_stimuli/special515/special_19074.jpg,38,0,0,0,0,5,1,"[9, 21, 31, 45, 56, 68, 69]",,,,,0,0,0,0,0,38,38,38,380.2402405,,,,,,,,,,,,,,,,,,,,,,,,,,,,,,,,,,,,,,380.2256623,380.2257559,380.2257696,380.2402405,380.2402405,380.2402405,380.2402405,383.2422184,383.2422184,384.22473,1,1,1.178272582,0.160892125,None,384.2252822,384.2253382,None,384.2254347,384.225467,None,384.2417861,384.2417861,,,,,,,,,,,1,5,0,0,2025-01-13_10h50.18.339,rtmindeye,2024.1.5,None,2025-01-13 10h50.36.639128 -0500
all_stimuli/shared1000_notspecial/notspecial_42648.png,39,0,0,0,0,5,1,"[9, 21, 31, 45, 56, 68, 69]",,,,,0,0,0,0,0,39,39,39,384.2417861,,,,,,,,,,,,,,,,,,,,,,,,,,,,,,,,,,,,,,384.2258262,384.2259294,384.2259434,384.2417861,384.2417861,384.2417861,384.2417861,387.243164,387.243164,388.2257145,1,1,0.742606957,0.167999542,None,388.2265719,388.2266597,None,388.2267895,388.2268449,None,388.2430382,388.2430382,,,,,,,,,,,1,5,0,0,2025-01-13_10h50.18.339,rtmindeye,2024.1.5,None,2025-01-13 10h50.36.639128 -0500
all_stimuli/MST_pairs1/pair_12_16_22.png,40,0,1,0,0,5,1,"[9, 21, 31, 45, 56, 68, 69]",,,,,0,0,0,0,0,40,40,40,388.2430382,,,,,,,,,,,,,,,,,,,,,,,,,,,,,,,,,,,,,,388.2273492,388.2274644,388.2274821,388.2430382,388.2430382,388.2430382,388.2430382,391.2421503,391.2421503,392.2276128,2,1,1.559475207,0.207903417,None,392.2281415,392.2281974,None,392.228295,392.2283265,None,392.2437508,392.2437508,,,,,,,,,,,1,5,0,0,2025-01-13_10h50.18.339,rtmindeye,2024.1.5,None,2025-01-13 10h50.36.639128 -0500
all_stimuli/shared1000_notspecial/notspecial_3951.png,41,0,0,0,0,5,1,"[9, 21, 31, 45, 56, 68, 69]",,,,,0,0,0,0,0,41,41,41,392.2437508,,,,,,,,,,,,,,,,,,,,,,,,,,,,,,,,,,,,,,392.2286845,392.2287763,392.22879,392.2437508,392.2437508,392.2437508,392.2437508,395.2439619,395.2439619,396.2276392,1,1,0.759736874,0.19002825,None,396.2281078,396.228159,None,396.228242,396.2282699,None,396.2445868,396.2445868,,,,,,,,,,,1,5,0,0,2025-01-13_10h50.18.339,rtmindeye,2024.1.5,None,2025-01-13 10h50.36.639128 -0500
all_stimuli/MST_pairs1/pair_12_16_78.png,42,0,0,0,0,5,1,"[9, 21, 31, 45, 56, 68, 69]",,,,,0,0,0,0,0,42,42,42,396.2445868,,,,,,,,,,,,,,,,,,,,,,,,,,,,,,,,,,,,,,396.2285872,396.2286676,396.2286791,396.2445868,396.2445868,396.2445868,396.2445868,399.2408832,399.2408832,400.2277249,1,1,1.3098565,0.17198975,None,400.2282553,400.2283119,None,400.2284107,400.2284437,None,400.2444173,400.2444173,,,,,,,,,,,1,5,0,0,2025-01-13_10h50.18.339,rtmindeye,2024.1.5,None,2025-01-13 10h50.36.639128 -0500
all_stimuli/special515/special_11952.jpg,43,0,0,0,0,5,1,"[9, 21, 31, 45, 56, 68, 69]",,,,,0,0,0,0,0,43,43,43,400.2444173,,,,,,,,,,,,,,,,,,,,,,,,,,,,,,,,,,,,,,400.2288035,400.2288947,400.2289082,400.2444173,400.2444173,400.2444173,400.2444173,403.2426867,403.2426867,404.2276847,1,1,0.915118124,0.187942084,None,404.2281505,404.2282011,None,404.2282843,404.2283116,None,404.2445873,404.2445873,,,,,,,,,,,1,5,0,0,2025-01-13_10h50.18.339,rtmindeye,2024.1.5,None,2025-01-13 10h50.36.639128 -0500
all_stimuli/MST_pairs1/pair_14_18_22.png,44,0,0,0,0,5,1,"[9, 21, 31, 45, 56, 68, 69]",,,,,0,0,0,0,0,44,44,44,404.2445873,,,,,,,,,,,,,,,,,,,,,,,,,,,,,,,,,,,,,,404.2286414,404.2287272,404.2287388,404.2445873,404.2445873,404.2445873,404.2445873,407.2441767,407.2441767,408.2275432,1,1,0.892003249,0.202029,None,408.2280795,408.228136,None,408.2282334,408.2282659,None,408.2407124,408.2407124,,,,,,,,,,,1,5,0,0,2025-01-13_10h50.18.339,rtmindeye,2024.1.5,None,2025-01-13 10h50.36.639128 -0500
blank.jpg,45,1,0,0,0,5,1,"[9, 21, 31, 45, 56, 68, 69]",,,,,0,0,0,0,0,45,45,45,408.2407124,,,,,,,,,,,,,,,,,,,,,,,,,,,,,,,,,,,,,,408.2286249,408.2287173,408.2287306,408.2407124,408.2407124,408.2407124,408.2407124,411.2286882,411.2286882,412.2244777,None,0,,,None,412.2248636,412.2249201,None,412.2250222,412.2250533,None,412.2384121,412.2384121,,,,,,,,,,,1,5,0,0,2025-01-13_10h50.18.339,rtmindeye,2024.1.5,None,2025-01-13 10h50.36.639128 -0500
all_stimuli/MST_pairs1/pair_16_20_56.png,46,0,0,0,0,5,1,"[9, 21, 31, 45, 56, 68, 69]",,,,,0,0,0,0,0,46,46,46,412.2384121,,,,,,,,,,,,,,,,,,,,,,,,,,,,,,,,,,,,,,412.2254282,412.2255354,412.2255491,412.2384121,412.2384121,412.2384121,412.2384121,415.2421673,415.2421673,416.2244401,1,1,0.813164958,0.183934958,None,416.2249108,416.2249581,None,416.22504,416.225067,None,416.2385902,416.2385902,,,,,,,,,,,1,5,0,0,2025-01-13_10h50.18.339,rtmindeye,2024.1.5,None,2025-01-13 10h50.36.639128 -0500
all_stimuli/special515/special_8933.jpg,47,0,0,0,0,5,1,"[9, 21, 31, 45, 56, 68, 69]",,,,,0,0,0,0,0,47,47,47,416.2385902,,,,,,,,,,,,,,,,,,,,,,,,,,,,,,,,,,,,,,416.2253713,416.225449,416.2254605,416.2385902,416.2385902,416.2385902,416.2385902,419.2286943,419.2286943,420.224683,1,1,1.150061625,0.157990666,None,420.2252156,420.2252739,None,420.2253726,420.2254042,None,420.2396893,420.2396893,,,,,,,,,,,1,5,0,0,2025-01-13_10h50.18.339,rtmindeye,2024.1.5,None,2025-01-13 10h50.36.639128 -0500
all_stimuli/MST_pairs1/pair_16_20_56.png,48,0,1,0,0,5,1,"[9, 21, 31, 45, 56, 68, 69]",,,,,0,0,0,0,0,48,48,48,420.2396893,,,,,,,,,,,,,,,,,,,,,,,,,,,,,,,,,,,,,,420.2257712,420.2258733,420.2258872,420.2396893,420.2396893,420.2396893,420.2396893,423.2277601,423.2277601,424.2246841,2,1,0.937876791,0.141089042,None,424.2252837,424.225359,None,424.2254589,424.2254916,None,424.2387545,424.2387545,,,,,,,,,,,1,5,0,0,2025-01-13_10h50.18.339,rtmindeye,2024.1.5,None,2025-01-13 10h50.36.639128 -0500
all_stimuli/special515/special_5034.jpg,49,0,0,0,0,5,1,"[9, 21, 31, 45, 56, 68, 69]",,,,,0,0,0,0,0,49,49,49,424.2387545,,,,,,,,,,,,,,,,,,,,,,,,,,,,,,,,,,,,,,424.2261283,424.2262234,424.2262369,424.2387545,424.2387545,424.2387545,424.2387545,427.2434037,427.2434037,428.2246082,1,1,0.952842333,0.197070333,None,428.2251628,428.2252229,None,428.2253184,428.2253522,None,428.2418573,428.2418573,,,,,,,,,,,1,5,0,0,2025-01-13_10h50.18.339,rtmindeye,2024.1.5,None,2025-01-13 10h50.36.639128 -0500
all_stimuli/MST_pairs1/pair_16_20_0.png,50,0,0,0,0,5,1,"[9, 21, 31, 45, 56, 68, 69]",,,,,0,0,0,0,0,50,50,50,428.2418573,,,,,,,,,,,,,,,,,,,,,,,,,,,,,,,,,,,,,,428.2257453,428.2258375,428.2258513,428.2418573,428.2418573,428.2418573,428.2418573,431.2440292,431.2440292,432.2259026,1,1,1.027732541,0.163019292,None,432.2267057,432.2267833,None,432.2269121,432.2269571,None,432.2404558,432.2404558,,,,,,,,,,,1,5,0,0,2025-01-13_10h50.18.339,rtmindeye,2024.1.5,None,2025-01-13 10h50.36.639128 -0500
all_stimuli/MST_pairs1/pair_46_w_pool2.jpg,51,0,0,0,0,5,1,"[9, 21, 31, 45, 56, 68, 69]",,,,,0,0,0,0,0,51,51,51,432.2404558,,,,,,,,,,,,,,,,,,,,,,,,,,,,,,,,,,,,,,432.2274264,432.2275392,432.2275565,432.2404558,432.2404558,432.2404558,432.2404558,435.2269111,435.2269111,436.2248585,1,1,0.903127624,0.152128542,None,436.2254149,436.2254843,None,436.2255925,436.2256255,None,436.2406626,436.2406626,,,,,,,,,,,1,5,0,0,2025-01-13_10h50.18.339,rtmindeye,2024.1.5,None,2025-01-13 10h50.36.639128 -0500
all_stimuli/special515/special_62228.jpg,52,0,0,0,0,5,1,"[9, 21, 31, 45, 56, 68, 69]",,,,,0,0,0,0,0,52,52,52,436.2406626,,,,,,,,,,,,,,,,,,,,,,,,,,,,,,,,,,,,,,436.2259885,436.226081,436.2260945,436.2406626,436.2406626,436.2406626,436.2406626,439.2410557,439.2410557,440.2247105,1,1,1.111920082,0.17201375,None,440.2252992,440.2253624,None,440.2254601,440.2254925,None,440.238211,440.238211,,,,,,,,,,,1,5,0,0,2025-01-13_10h50.18.339,rtmindeye,2024.1.5,None,2025-01-13 10h50.36.639128 -0500
all_stimuli/MST_pairs1/pair_40_w_escalator2.jpg,53,0,0,0,0,5,1,"[9, 21, 31, 45, 56, 68, 69]",,,,,0,0,0,0,0,53,53,53,440.238211,,,,,,,,,,,,,,,,,,,,,,,,,,,,,,,,,,,,,,440.2258732,440.2259652,440.2259979,440.238211,440.238211,440.238211,440.238211,443.2303916,443.2303916,444.2247342,1,1,0.917512208,0.179982583,None,444.2252598,444.225319,None,444.2254285,444.2254614,None,444.2509219,444.2509219,,,,,,,,,,,1,5,0,0,2025-01-13_10h50.18.339,rtmindeye,2024.1.5,None,2025-01-13 10h50.36.639128 -0500
all_stimuli/MST_pairs1/pair_20_nsd_41_2_cocoid_63715.png,54,0,0,0,0,5,1,"[9, 21, 31, 45, 56, 68, 69]",,,,,0,0,0,0,0,54,54,54,444.2509219,,,,,,,,,,,,,,,,,,,,,,,,,,,,,,,,,,,,,,444.2258217,444.2259147,444.2259286,444.2509219,444.2509219,444.2509219,444.2509219,447.2445434,447.2445434,448.2282001,1,1,1.107687458,0.173015708,None,448.2287014,448.2287507,None,448.2288342,448.2288619,None,,,,,,,,,,,,,1,5,0,0,2025-01-13_10h50.18.339,rtmindeye,2024.1.5,None,2025-01-13 10h50.36.639128 -0500
all_stimuli/shared1000_notspecial/notspecial_22155.png,55,0,0,0,0,5,1,"[9, 21, 31, 45, 56, 68, 69]",,,,,0,0,0,0,0,55,55,55,448.2440747,,,,,,,,,,,,,,,,,,,,,,,,,,,,,,,,,,,,,,448.2291652,448.2292467,448.2292582,448.2440747,448.2440747,448.2440747,448.2440747,451.2420311,451.2420311,452.2286112,1,1,0.940577083,0.180036875,None,452.2291302,452.2291982,None,452.2292993,452.2293306,None,452.240923,452.240923,,,,,,,,,,,1,5,0,0,2025-01-13_10h50.18.339,rtmindeye,2024.1.5,None,2025-01-13 10h50.36.639128 -0500
blank.jpg,56,1,0,0,0,5,1,"[9, 21, 31, 45, 56, 68, 69]",,,,,0,0,0,0,0,56,56,56,452.240923,,,,,,,,,,,,,,,,,,,,,,,,,,,,,,,,,,,,,,452.2296919,452.2297836,452.2297972,452.240923,452.240923,452.240923,452.240923,455.243264,455.243264,456.224714,None,0,,,None,456.2251151,456.2251689,None,456.2252717,456.2253032,None,456.2397145,456.2397145,,,,,,,,,,,1,5,0,0,2025-01-13_10h50.18.339,rtmindeye,2024.1.5,None,2025-01-13 10h50.36.639128 -0500
all_stimuli/special515/special_11617.jpg,57,0,0,0,0,5,1,"[9, 21, 31, 45, 56, 68, 69]",,,,,0,0,0,0,0,57,57,57,456.2397145,,,,,,,,,,,,,,,,,,,,,,,,,,,,,,,,,,,,,,456.2256775,456.2257893,456.2258027,456.2397145,456.2397145,456.2397145,456.2397145,459.2412051,459.2412051,460.224766,1,1,0.735019249,0.158985458,None,460.2253215,460.2253799,None,460.2254777,460.2255097,None,460.2407257,460.2407257,,,,,,,,,,,1,5,0,0,2025-01-13_10h50.18.339,rtmindeye,2024.1.5,None,2025-01-13 10h50.36.639128 -0500
all_stimuli/MST_pairs1/pair_14_18_22.png,58,0,1,0,0,5,1,"[9, 21, 31, 45, 56, 68, 69]",,,,,0,0,0,0,0,58,58,58,460.2407257,,,,,,,,,,,,,,,,,,,,,,,,,,,,,,,,,,,,,,460.2258789,460.2259715,460.2259851,460.2407257,460.2407257,460.2407257,460.2407257,463.2436964,463.2436964,464.2247983,2,1,1.375046874,0.20100075,None,464.2253133,464.2253695,None,464.2254648,464.2254965,None,464.239763,464.239763,,,,,,,,,,,1,5,0,0,2025-01-13_10h50.18.339,rtmindeye,2024.1.5,None,2025-01-13 10h50.36.639128 -0500
all_stimuli/shared1000_notspecial/notspecial_63081.png,59,0,0,0,0,5,1,"[9, 21, 31, 45, 56, 68, 69]",,,,,0,0,0,0,0,59,59,59,464.239763,,,,,,,,,,,,,,,,,,,,,,,,,,,,,,,,,,,,,,464.2258546,464.2259462,464.22596,464.239763,464.239763,464.239763,464.239763,467.2296261,467.2296261,468.224574,1,1,1.147049332,0.179986042,None,468.2249443,468.2249797,None,468.2250375,468.2250566,None,468.2355029,468.2355029,,,,,,,,,,,1,5,0,0,2025-01-13_10h50.18.339,rtmindeye,2024.1.5,None,2025-01-13 10h50.36.639128 -0500
all_stimuli/MST_pairs1/pair_42_w_icerink2.jpg,60,0,0,0,0,5,1,"[9, 21, 31, 45, 56, 68, 69]",,,,,0,0,0,0,0,60,60,60,468.2355029,,,,,,,,,,,,,,,,,,,,,,,,,,,,,,,,,,,,,,468.2253011,468.2253617,468.2253707,468.2355029,468.2355029,468.2355029,468.2355029,471.2280157,471.2280157,472.2245956,1,1,0.925282749,0.191982209,None,472.2251161,472.2251652,None,472.2252499,472.2252775,None,472.2370504,472.2370504,,,,,,,,,,,1,5,0,0,2025-01-13_10h50.18.339,rtmindeye,2024.1.5,None,2025-01-13 10h50.36.639128 -0500
all_stimuli/MST_pairs1/pair_46_w_pool1.jpg,61,0,0,0,0,5,1,"[9, 21, 31, 45, 56, 68, 69]",,,,,0,0,0,0,0,61,61,61,472.2370504,,,,,,,,,,,,,,,,,,,,,,,,,,,,,,,,,,,,,,472.2255935,472.2256732,472.2256845,472.2370504,472.2370504,472.2370504,472.2370504,475.2275427,475.2275427,476.2249203,2,0,1.671793332,0.211949542,None,476.2254961,476.2255539,None,476.2256528,476.2256855,None,476.2409902,476.2409902,,,,,,,,,,,1,5,0,0,2025-01-13_10h50.18.339,rtmindeye,2024.1.5,None,2025-01-13 10h50.36.639128 -0500
all_stimuli/special515/special_40840.jpg,62,0,0,0,0,5,1,"[9, 21, 31, 45, 56, 68, 69]",,,,,0,0,0,0,0,62,62,62,476.2409902,,,,,,,,,,,,,,,,,,,,,,,,,,,,,,,,,,,,,,476.226059,476.2264418,476.2264562,476.2409902,476.2409902,476.2409902,476.2409902,479.2412486,479.2412486,480.2248922,1,1,1.044808958,0.189290167,None,480.2254188,480.2254746,None,480.2255693,480.2256005,None,480.2388291,480.2388291,,,,,,,,,,,1,5,0,0,2025-01-13_10h50.18.339,rtmindeye,2024.1.5,None,2025-01-13 10h50.36.639128 -0500
all_stimuli/special515/special_29837.jpg,63,0,0,0,0,5,1,"[9, 21, 31, 45, 56, 68, 69]",,,,,0,0,0,0,0,63,63,63,480.2388291,,,,,,,,,,,,,,,,,,,,,,,,,,,,,,,,,,,,,,480.2259568,480.2260491,480.2260641,480.2388291,480.2388291,480.2388291,480.2388291,483.2444106,483.2444106,484.2249076,1,1,1.099012333,0.184979125,None,484.225857,484.2259137,None,484.2260082,484.2260395,None,484.2421801,484.2421801,,,,,,,,,,,1,5,0,0,2025-01-13_10h50.18.339,rtmindeye,2024.1.5,None,2025-01-13 10h50.36.639128 -0500
all_stimuli/shared1000_notspecial/notspecial_4768.png,64,0,0,0,0,5,1,"[9, 21, 31, 45, 56, 68, 69]",,,,,0,0,0,0,0,64,64,64,484.2421801,,,,,,,,,,,,,,,,,,,,,,,,,,,,,,,,,,,,,,484.2264028,484.226494,484.2265072,484.2421801,484.2421801,484.2421801,484.2421801,487.2432879,487.2432879,488.224719,1,1,1.227691957,0.200011125,None,488.225248,488.225303,None,488.2253982,488.2254303,None,488.2499607,488.2499607,,,,,,,,,,,1,5,0,0,2025-01-13_10h50.18.339,rtmindeye,2024.1.5,None,2025-01-13 10h50.36.639128 -0500
all_stimuli/MST_pairs1/pair_20_nsd_41_1_cocoid_15472.png,65,0,0,0,0,5,1,"[9, 21, 31, 45, 56, 68, 69]",,,,,0,0,0,0,0,65,65,65,488.2499607,,,,,,,,,,,,,,,,,,,,,,,,,,,,,,,,,,,,,,488.2258127,488.2259041,488.2259174,488.2499607,488.2499607,488.2499607,488.2499607,491.2607433,491.2607433,492.2289197,1,1,0.978799583,0.188048291,None,492.2293669,492.2294159,None,492.2294979,492.229526,None,,,,,,,,,,,,,1,5,0,0,2025-01-13_10h50.18.339,rtmindeye,2024.1.5,None,2025-01-13 10h50.36.639128 -0500
all_stimuli/shared1000_notspecial/notspecial_53157.png,66,0,0,0,0,5,1,"[9, 21, 31, 45, 56, 68, 69]",,,,,0,0,0,0,0,66,66,66,492.2448525,,,,,,,,,,,,,,,,,,,,,,,,,,,,,,,,,,,,,,492.2298378,492.2299197,492.2299312,492.2448525,492.2448525,492.2448525,492.2448525,495.2443761,495.2443761,496.2282717,1,1,1.980927708,0.193131458,None,496.2287898,496.2288462,None,496.2289407,496.2289725,None,496.2585268,496.2585268,,,,,,,,,,,1,5,0,0,2025-01-13_10h50.18.339,rtmindeye,2024.1.5,None,2025-01-13 10h50.36.639128 -0500
all_stimuli/special515/special_38641.jpg,67,0,1,0,0,5,1,"[9, 21, 31, 45, 56, 68, 69]",,,,,0,0,0,0,0,67,67,67,496.2585268,,,,,,,,,,,,,,,,,,,,,,,,,,,,,,,,,,,,,,496.229319,496.229411,496.2294248,496.2585268,496.2585268,496.2585268,496.2585268,499.2437262,499.2437262,500.2412679,1,0,1.140287583,0.173019041,None,500.241836,500.2419135,None,500.2420182,500.2420523,None,,,,,,,,,,,,,1,5,0,0,2025-01-13_10h50.18.339,rtmindeye,2024.1.5,None,2025-01-13 10h50.36.639128 -0500
blank.jpg,68,1,0,0,0,5,1,"[9, 21, 31, 45, 56, 68, 69]",,,,,0,0,0,0,0,68,68,68,500.25141,,,,,,,,,,,,,,,,,,,,,,,,,,,,,,,,,,,,,,500.2424254,500.242534,500.2425477,500.25141,500.25141,500.25141,500.25141,503.2586497,503.2586497,504.2415754,None,0,,,None,504.2420467,504.242116,None,504.2422547,504.2422944,None,504.2507094,504.2507094,,,,,,,,,,,1,5,0,0,2025-01-13_10h50.18.339,rtmindeye,2024.1.5,None,2025-01-13 10h50.36.639128 -0500
blank.jpg,69,1,0,1,0,5,0,"[9, 21, 31, 45, 56, 68, 69]",,,,,0,0,0,0,0,69,69,69,504.2507094,,,,,,,,,,,,,,,,,,,,,,,,,,,,,,,,,,,,,,504.2427541,504.2428681,504.2428845,504.2507094,504.2507094,504.2507094,504.2507094,507.260176,507.260176,508.2424004,None,0,,,None,508.2429485,511.1283432,1,511.1291328,539.9284374,equal,508.2565349,508.2565349,508.2565349,508.2565349,2.861503541,None,511.1409053,511.1409053,28.78210679,None,,,1,5,0,0,2025-01-13_10h50.18.339,rtmindeye,2024.1.5,None,2025-01-13 10h50.36.639128 -0500
,,,,,,,,,,,,,0,0,0,0,,,,,,,,,,,,,,,,,,,,,,,,,,,,,,,,,,,,,,,,,,,,,,,,,,,,,,,,,,,,,,,,,,,,,,,,,,,,1,5,0,0,2025-01-13_10h50.18.339,rtmindeye,2024.1.5,None,2025-01-13 10h50.36.639128 -0500
all_stimuli/special515/special_71450.jpg,0,0,0,0,1,5,1,"[9, 21, 31, 45, 56, 68, 69]",,,,,1,0,1,0,0,0,0,0,539.9478388,,,,,,,,,,,,,,,,,,,,,,,,,,,,,,,,,,,,,,539.9379061,539.937969,539.9379777,539.9478388,539.9478388,539.9478388,539.9478388,542.9435542,542.9435542,543.9417366,1,1,0.935140499,0.209942,None,543.9425313,543.9425819,None,543.9427425,543.9427692,None,,,,,,,,,,,,,1,5,0,0,2025-01-13_10h50.18.339,rtmindeye,2024.1.5,None,2025-01-13 10h50.36.639128 -0500
all_stimuli/special515/special_38246.jpg,1,0,0,0,1,5,1,"[9, 21, 31, 45, 56, 68, 69]",,,,,1,0,1,0,0,1,1,1,543.9577005,,,,,,,,,,,,,,,,,,,,,,,,,,,,,,,,,,,,,,543.94314,543.9440695,543.9440862,543.9577005,543.9577005,543.9577005,543.9577005,546.9607281,546.9607281,547.9417808,1,1,0.997352916,0.195995875,None,547.9421597,547.9421945,None,547.9422558,547.9422769,None,547.9555372,547.9555372,,,,,,,,,,,1,5,0,0,2025-01-13_10h50.18.339,rtmindeye,2024.1.5,None,2025-01-13 10h50.36.639128 -0500
all_stimuli/special515/special_10046.jpg,2,0,0,0,1,5,1,"[9, 21, 31, 45, 56, 68, 69]",,,,,1,0,1,0,0,2,2,2,547.9555372,,,,,,,,,,,,,,,,,,,,,,,,,,,,,,,,,,,,,,547.9425106,547.9425698,547.9425787,547.9555372,547.9555372,547.9555372,547.9555372,550.9598565,550.9598565,551.9418419,1,1,1.142544083,0.203960791,None,551.9423982,551.9424561,None,551.9425707,551.942603,None,551.958404,551.958404,,,,,,,,,,,1,5,0,0,2025-01-13_10h50.18.339,rtmindeye,2024.1.5,None,2025-01-13 10h50.36.639128 -0500
all_stimuli/MST_pairs1/pair_38_w_arch2.jpg,3,0,0,0,1,5,1,"[9, 21, 31, 45, 56, 68, 69]",,,,,1,0,1,0,0,3,3,3,551.958404,,,,,,,,,,,,,,,,,,,,,,,,,,,,,,,,,,,,,,551.9429693,551.943073,551.9430869,551.958404,551.958404,551.958404,551.958404,554.9581071,554.9581071,555.941717,1,1,0.848629708,0.185946208,None,555.9424408,555.9425118,None,555.942641,555.9426797,None,555.9595592,555.9595592,,,,,,,,,,,1,5,0,0,2025-01-13_10h50.18.339,rtmindeye,2024.1.5,None,2025-01-13 10h50.36.639128 -0500
all_stimuli/special515/special_30395.jpg,4,0,0,0,1,5,1,"[9, 21, 31, 45, 56, 68, 69]",,,,,1,0,1,0,0,4,4,4,555.9595592,,,,,,,,,,,,,,,,,,,,,,,,,,,,,,,,,,,,,,555.9431666,555.9444334,555.944456,555.9595592,555.9595592,555.9595592,555.9595592,558.9458586,558.9458586,559.9453979,1,1,1.932513458,0.188994,None,559.9459226,559.9459833,None,559.9460809,559.9461144,None,,,,,,,,,,,,,1,5,0,0,2025-01-13_10h50.18.339,rtmindeye,2024.1.5,None,2025-01-13 10h50.36.639128 -0500
all_stimuli/special515/special_38494.jpg,5,0,1,0,1,5,1,"[9, 21, 31, 45, 56, 68, 69]",,,,,1,0,1,0,0,5,5,5,559.9619453,,,,,,,,,,,,,,,,,,,,,,,,,,,,,,,,,,,,,,559.9464938,559.9474826,559.9475051,559.9619453,559.9619453,559.9619453,559.9619453,562.9776959,562.9776959,563.9459487,2,1,1.107162625,0.190960083,None,563.9464112,563.9464634,None,563.9465496,563.9465788,None,563.9694962,563.9694962,,,,,,,,,,,1,5,0,0,2025-01-13_10h50.18.339,rtmindeye,2024.1.5,None,2025-01-13 10h50.36.639128 -0500
all_stimuli/MST_pairs1/pair_28_nsd_547_1_cocoid_60932.png,6,0,1,0,1,5,1,"[9, 21, 31, 45, 56, 68, 69]",,,,,1,0,1,0,0,6,6,6,563.9694962,,,,,,,,,,,,,,,,,,,,,,,,,,,,,,,,,,,,,,563.946904,563.9469994,563.947013,563.9694962,563.9694962,563.9694962,563.9694962,566.9613093,566.9613093,567.9580624,2,1,1.747568,0.220991166,None,567.9584594,567.958504,None,567.9585717,567.9585941,None,,,,,,,,,,,,,1,5,0,0,2025-01-13_10h50.18.339,rtmindeye,2024.1.5,None,2025-01-13 10h50.36.639128 -0500
all_stimuli/special515/special_61133.jpg,7,0,0,0,1,5,1,"[9, 21, 31, 45, 56, 68, 69]",,,,,1,0,1,0,0,7,7,7,567.9716022,,,,,,,,,,,,,,,,,,,,,,,,,,,,,,,,,,,,,,567.9588665,567.9589409,567.9589499,567.9716022,567.9716022,567.9716022,567.9716022,570.9769923,570.9769923,571.9585424,1,1,0.743482916,0.195967833,None,571.9591797,571.9592665,None,571.9594026,571.959441,None,571.9759714,571.9759714,,,,,,,,,,,1,5,0,0,2025-01-13_10h50.18.339,rtmindeye,2024.1.5,None,2025-01-13 10h50.36.639128 -0500
all_stimuli/shared1000_notspecial/notspecial_16635.png,8,0,0,0,1,5,1,"[9, 21, 31, 45, 56, 68, 69]",,,,,1,0,1,0,0,8,8,8,571.9759714,,,,,,,,,,,,,,,,,,,,,,,,,,,,,,,,,,,,,,571.9598787,571.9599693,571.9599827,571.9759714,571.9759714,571.9759714,571.9759714,574.9750076,574.9750076,575.9585386,1,1,1.056108125,0.184103541,None,575.9589889,575.9590365,None,575.9591103,575.9591342,None,575.9680651,575.9680651,,,,,,,,,,,1,5,0,0,2025-01-13_10h50.18.339,rtmindeye,2024.1.5,None,2025-01-13 10h50.36.639128 -0500
blank.jpg,9,1,0,0,1,5,1,"[9, 21, 31, 45, 56, 68, 69]",,,,,1,0,1,0,0,9,9,9,575.9680651,,,,,,,,,,,,,,,,,,,,,,,,,,,,,,,,,,,,,,575.9594198,575.9595102,575.9595221,575.9680651,575.9680651,575.9680651,575.9680651,578.979784,578.979784,579.9584915,None,0,,,None,579.9588693,579.9589252,None,579.9590234,579.9590568,None,579.9859495,579.9859495,,,,,,,,,,,1,5,0,0,2025-01-13_10h50.18.339,rtmindeye,2024.1.5,None,2025-01-13 10h50.36.639128 -0500
all_stimuli/MST_pairs1/pair_18_nsd_6_1_cocoid_13417.png,10,0,0,0,1,5,1,"[9, 21, 31, 45, 56, 68, 69]",,,,,1,0,1,0,0,10,10,10,579.9859495,,,,,,,,,,,,,,,,,,,,,,,,,,,,,,,,,,,,,,579.9594348,579.9595444,579.9595581,579.9859495,579.9859495,579.9859495,579.9859495,582.9790881,582.9790881,583.9618847,1,1,0.6491475,0.190088458,None,583.9624086,583.9624658,None,583.962562,583.9625955,None,,,,,,,,,,,,,1,5,0,0,2025-01-13_10h50.18.339,rtmindeye,2024.1.5,None,2025-01-13 10h50.36.639128 -0500
all_stimuli/shared1000_notspecial/notspecial_21703.png,11,0,0,0,1,5,1,"[9, 21, 31, 45, 56, 68, 69]",,,,,1,0,1,0,0,11,11,11,583.9788141,,,,,,,,,,,,,,,,,,,,,,,,,,,,,,,,,,,,,,583.9629566,583.9630535,583.9630672,583.9788141,583.9788141,583.9788141,583.9788141,586.9775462,586.9775462,587.9750927,1,1,0.873418791,0.187986417,None,587.9757223,587.9757934,None,587.9759101,587.9759501,None,,,,,,,,,,,,,1,5,0,0,2025-01-13_10h50.18.339,rtmindeye,2024.1.5,None,2025-01-13 10h50.36.639128 -0500
all_stimuli/special515/special_24530.jpg,12,0,0,0,1,5,1,"[9, 21, 31, 45, 56, 68, 69]",,,,,1,0,1,0,0,12,12,12,587.9915606,,,,,,,,,,,,,,,,,,,,,,,,,,,,,,,,,,,,,,587.9764005,587.9765182,587.976538,587.9915606,587.9915606,587.9915606,587.9915606,590.9936818,590.9936818,591.9751742,1,1,0.969587749,0.186010958,None,591.9757418,591.9758016,None,591.9758981,591.9759317,None,591.9915254,591.9915254,,,,,,,,,,,1,5,0,0,2025-01-13_10h50.18.339,rtmindeye,2024.1.5,None,2025-01-13 10h50.36.639128 -0500
all_stimuli/shared1000_notspecial/notspecial_6222.png,13,0,0,0,1,5,1,"[9, 21, 31, 45, 56, 68, 69]",,,,,1,0,1,0,0,13,13,13,591.9915254,,,,,,,,,,,,,,,,,,,,,,,,,,,,,,,,,,,,,,591.9763055,591.9763969,591.9764105,591.9915254,591.9915254,591.9915254,591.9915254,594.9996662,594.9996662,595.9751797,1,1,0.721691291,0.181937875,None,595.9758541,595.975924,None,595.9760402,595.9760785,None,595.9892168,595.9892168,,,,,,,,,,,1,5,0,0,2025-01-13_10h50.18.339,rtmindeye,2024.1.5,None,2025-01-13 10h50.36.639128 -0500
all_stimuli/MST_pairs1/pair_44_w_log_cabin2.jpg,14,0,0,0,1,5,1,"[9, 21, 31, 45, 56, 68, 69]",,,,,1,0,1,0,0,14,14,14,595.9892168,,,,,,,,,,,,,,,,,,,,,,,,,,,,,,,,,,,,,,595.9765183,595.9766321,595.9766485,595.9892168,595.9892168,595.9892168,595.9892168,598.9817612,598.9817612,599.9751773,1,1,1.214938666,0.184986667,None,599.9756168,599.9756729,None,599.9757504,599.9757751,None,599.9874812,599.9874812,,,,,,,,,,,1,5,0,0,2025-01-13_10h50.18.339,rtmindeye,2024.1.5,None,2025-01-13 10h50.36.639128 -0500
all_stimuli/special515/special_28068.jpg,15,0,0,0,1,5,1,"[9, 21, 31, 45, 56, 68, 69]",,,,,1,0,1,0,0,15,15,15,599.9874812,,,,,,,,,,,,,,,,,,,,,,,,,,,,,,,,,,,,,,599.9760517,599.9761211,599.976131,599.9874812,599.9874812,599.9874812,599.9874812,602.9951557,602.9951557,603.9754493,1,1,2.086762166,0.198032334,None,603.975816,603.9758499,None,603.9759025,603.9759205,None,603.9849046,603.9849046,,,,,,,,,,,1,5,0,0,2025-01-13_10h50.18.339,rtmindeye,2024.1.5,None,2025-01-13 10h50.36.639128 -0500
all_stimuli/shared1000_notspecial/notspecial_60978.png,16,0,0,0,1,5,1,"[9, 21, 31, 45, 56, 68, 69]",,,,,1,0,1,0,0,16,16,16,603.9849046,,,,,,,,,,,,,,,,,,,,,,,,,,,,,,,,,,,,,,603.9761302,603.9761807,603.9761877,603.9849046,603.9849046,603.9849046,603.9849046,606.9948528,606.9948528,607.975298,1,1,0.865314083,0.182984875,None,607.9759573,607.9760275,None,607.9761494,607.9761885,None,607.9930057,607.9930057,,,,,,,,,,,1,5,0,0,2025-01-13_10h50.18.339,rtmindeye,2024.1.5,None,2025-01-13 10h50.36.639128 -0500
all_stimuli/MST_pairs1/pair_2_4_22.png,17,0,0,0,1,5,1,"[9, 21, 31, 45, 56, 68, 69]",,,,,1,0,1,0,0,17,17,17,607.9930057,,,,,,,,,,,,,,,,,,,,,,,,,,,,,,,,,,,,,,607.9766356,607.9767481,607.9767644,607.9930057,607.9930057,607.9930057,607.9930057,610.9956193,610.9956193,611.9779527,1,1,1.081250625,0.16795775,None,611.9784752,611.9785338,None,611.9786294,611.978662,None,,,,,,,,,,,,,1,5,0,0,2025-01-13_10h50.18.339,rtmindeye,2024.1.5,None,2025-01-13 10h50.36.639128 -0500
all_stimuli/shared1000_notspecial/notspecial_46160.png,18,0,0,0,1,5,1,"[9, 21, 31, 45, 56, 68, 69]",,,,,1,0,1,0,0,18,18,18,611.9951345,,,,,,,,,,,,,,,,,,,,,,,,,,,,,,,,,,,,,,611.9794668,611.9795646,611.9795787,611.9951345,611.9951345,611.9951345,611.9951345,615.0125539,615.0125539,615.9938603,1,1,0.824063416,0.187994334,None,615.9941642,615.9941974,None,615.9942493,615.9942677,None,,,,,,,,,,,,,1,5,0,0,2025-01-13_10h50.18.339,rtmindeye,2024.1.5,None,2025-01-13 10h50.36.639128 -0500
all_stimuli/special515/special_64880.jpg,19,0,0,0,1,5,1,"[9, 21, 31, 45, 56, 68, 69]",,,,,1,0,1,0,0,19,19,19,616.0078064,,,,,,,,,,,,,,,,,,,,,,,,,,,,,,,,,,,,,,615.9944747,615.9945418,615.9945492,616.0078064,616.0078064,616.0078064,616.0078064,619.0084742,619.0084742,619.9920482,1,1,1.016494916,0.18094725,None,619.9927175,619.9927907,None,619.9929119,619.9929507,None,620.0189265,620.0189265,,,,,,,,,,,1,5,0,0,2025-01-13_10h50.18.339,rtmindeye,2024.1.5,None,2025-01-13 10h50.36.639128 -0500
all_stimuli/MST_pairs1/pair_36_nsd_949_1_cocoid_43196.png,20,0,0,0,1,5,1,"[9, 21, 31, 45, 56, 68, 69]",,,,,1,0,1,0,0,20,20,20,620.0189265,,,,,,,,,,,,,,,,,,,,,,,,,,,,,,,,,,,,,,619.993409,619.9935213,619.993538,620.0189265,620.0189265,620.0189265,620.0189265,623.0113048,623.0113048,623.9953816,1,1,0.826367624,0.186999167,None,623.9960069,623.996077,None,623.9961972,623.9962365,None,,,,,,,,,,,,,1,5,0,0,2025-01-13_10h50.18.339,rtmindeye,2024.1.5,None,2025-01-13 10h50.36.639128 -0500
blank.jpg,21,1,0,0,1,5,1,"[9, 21, 31, 45, 56, 68, 69]",,,,,1,0,1,0,0,21,21,21,624.0079357,,,,,,,,,,,,,,,,,,,,,,,,,,,,,,,,,,,,,,623.9966674,623.9967823,623.9967985,624.0079357,624.0079357,624.0079357,624.0079357,627.0082002,627.0082002,627.9921645,None,0,,,None,627.9926515,627.9927246,None,627.9928483,627.99289,None,628.0093004,628.0093004,,,,,,,,,,,1,5,0,0,2025-01-13_10h50.18.339,rtmindeye,2024.1.5,None,2025-01-13 10h50.36.639128 -0500
all_stimuli/special515/special_30632.jpg,22,0,1,0,1,5,1,"[9, 21, 31, 45, 56, 68, 69]",,,,,1,0,1,0,0,22,22,22,628.0093004,,,,,,,,,,,,,,,,,,,,,,,,,,,,,,,,,,,,,,627.993395,627.9935066,627.9935236,628.0093004,628.0093004,628.0093004,628.0093004,631.0120624,631.0120624,631.9936293,2,1,1.371015208,0.205054166,None,631.9944559,631.9945592,None,631.9946995,631.9947239,None,632.0106715,632.0106715,,,,,,,,,,,1,5,0,0,2025-01-13_10h50.18.339,rtmindeye,2024.1.5,None,2025-01-13 10h50.36.639128 -0500
all_stimuli/MST_pairs1/pair_20_nsd_41_2_cocoid_63715.png,23,0,1,0,1,5,1,"[9, 21, 31, 45, 56, 68, 69]",,,,,1,0,1,0,0,23,23,23,632.0106715,,,,,,,,,,,,,,,,,,,,,,,,,,,,,,,,,,,,,,631.994974,631.995048,631.9950551,632.0106715,632.0106715,632.0106715,632.0106715,635.0108569,635.0108569,635.9949688,2,1,0.906644666,0.174039292,None,635.9954386,635.9954911,None,635.9955716,635.9955987,None,636.0178283,636.0178283,,,,,,,,,,,1,5,0,0,2025-01-13_10h50.18.339,rtmindeye,2024.1.5,None,2025-01-13 10h50.36.639128 -0500
all_stimuli/MST_pairs1/pair_22_nsd_115_2_cocoid_65194.png,24,0,0,0,1,5,1,"[9, 21, 31, 45, 56, 68, 69]",,,,,1,0,1,0,0,24,24,24,636.0178283,,,,,,,,,,,,,,,,,,,,,,,,,,,,,,,,,,,,,,635.9959286,635.9960073,635.9960216,636.0178283,636.0178283,636.0178283,636.0178283,639.0293968,639.0293968,640.0086474,1,1,0.865500166,0.178000333,None,640.0091379,640.0091907,None,640.0092741,640.0093037,None,,,,,,,,,,,,,1,5,0,0,2025-01-13_10h50.18.339,rtmindeye,2024.1.5,None,2025-01-13 10h50.36.639128 -0500
all_stimuli/shared1000_notspecial/notspecial_26292.png,25,0,0,0,1,5,1,"[9, 21, 31, 45, 56, 68, 69]",,,,,1,0,1,0,0,25,25,25,640.0239586,,,,,,,,,,,,,,,,,,,,,,,,,,,,,,,,,,,,,,640.0096419,640.0097343,640.0097461,640.0239586,640.0239586,640.0239586,640.0239586,643.0117157,643.0117157,644.0116428,1,1,0.933422916,0.456078375,None,644.012292,644.0123634,None,644.0124811,644.012521,None,,,,,,,,,,,,,1,5,0,0,2025-01-13_10h50.18.339,rtmindeye,2024.1.5,None,2025-01-13 10h50.36.639128 -0500
all_stimuli/special515/special_6489.jpg,26,0,1,0,1,5,1,"[9, 21, 31, 45, 56, 68, 69]",,,,,1,0,1,0,0,26,26,26,644.0293232,,,,,,,,,,,,,,,,,,,,,,,,,,,,,,,,,,,,,,644.0129461,644.0130691,644.0130863,644.0293232,644.0293232,644.0293232,644.0293232,647.025651,647.025651,648.0131474,2,1,1.423109166,0.182992333,None,648.0134818,648.0135185,None,648.0135709,648.0135897,None,,,,,,,,,,,,,1,5,0,0,2025-01-13_10h50.18.339,rtmindeye,2024.1.5,None,2025-01-13 10h50.36.639128 -0500
all_stimuli/special515/special_55678.jpg,27,0,0,0,1,5,1,"[9, 21, 31, 45, 56, 68, 69]",,,,,1,0,1,0,0,27,27,27,648.0247192,,,,,,,,,,,,,,,,,,,,,,,,,,,,,,,,,,,,,,648.0138037,648.0138659,648.0138733,648.0247192,648.0247192,648.0247192,648.0247192,651.0111425,651.0111425,652.0113995,1,1,0.889775916,0.170946375,None,652.0125623,652.0127099,None,652.0128367,652.0128795,None,652.0288326,652.0288326,,,,,,,,,,,1,5,0,0,2025-01-13_10h50.18.339,rtmindeye,2024.1.5,None,2025-01-13 10h50.36.639128 -0500
all_stimuli/special515/special_40909.jpg,28,0,0,0,1,5,1,"[9, 21, 31, 45, 56, 68, 69]",,,,,1,0,1,0,0,28,28,28,652.0288326,,,,,,,,,,,,,,,,,,,,,,,,,,,,,,,,,,,,,,652.0133915,652.01355,652.013567,652.0288326,652.0288326,652.0288326,652.0288326,655.043603,655.043603,656.0117142,1,1,0.951508333,0.169082083,None,656.0124757,656.0125736,None,656.0126982,656.0127397,None,656.0288337,656.0288337,,,,,,,,,,,1,5,0,0,2025-01-13_10h50.18.339,rtmindeye,2024.1.5,None,2025-01-13 10h50.36.639128 -0500
all_stimuli/special515/special_70360.jpg,29,0,0,0,1,5,1,"[9, 21, 31, 45, 56, 68, 69]",,,,,1,0,1,0,0,29,29,29,656.0288337,,,,,,,,,,,,,,,,,,,,,,,,,,,,,,,,,,,,,,656.0132531,656.013406,656.0134233,656.0288337,656.0288337,656.0288337,656.0288337,659.025301,659.025301,660.0116332,1,1,1.093599166,0.171912667,None,660.0122786,660.0123488,None,660.0124685,660.0125071,None,660.0288392,660.0288392,,,,,,,,,,,1,5,0,0,2025-01-13_10h50.18.339,rtmindeye,2024.1.5,None,2025-01-13 10h50.36.639128 -0500
all_stimuli/MST_pairs1/pair_42_w_icerink1.jpg,30,0,0,0,1,5,1,"[9, 21, 31, 45, 56, 68, 69]",,,,,1,0,1,0,0,30,30,30,660.0288392,,,,,,,,,,,,,,,,,,,,,,,,,,,,,,,,,,,,,,660.0129502,660.013064,660.0130806,660.0288392,660.0288392,660.0288392,660.0288392,663.0450462,663.0450462,664.0132905,None,0,,,['1'],664.0143967,664.0144742,None,664.0146042,664.0146455,None,,,,,,,,,,,[1.9175242490000528],[0.182023167000807],1,5,0,0,2025-01-13_10h50.18.339,rtmindeye,2024.1.5,None,2025-01-13 10h50.36.639128 -0500
blank.jpg,31,1,0,0,1,5,1,"[9, 21, 31, 45, 56, 68, 69]",,,,,1,0,1,0,0,31,31,31,664.0246415,,,,,,,,,,,,,,,,,,,,,,,,,,,,,,,,,,,,,,664.0150878,664.0152269,664.0152438,664.0246415,664.0246415,664.0246415,664.0246415,667.0127676,667.0127676,668.0089146,None,0,,,None,668.0093199,668.0093783,None,668.0094941,668.0095295,None,668.023619,668.023619,,,,,,,,,,,1,5,0,0,2025-01-13_10h50.18.339,rtmindeye,2024.1.5,None,2025-01-13 10h50.36.639128 -0500
all_stimuli/special515/special_30430.jpg,32,0,1,0,1,5,1,"[9, 21, 31, 45, 56, 68, 69]",,,,,1,0,1,0,0,32,32,32,668.023619,,,,,,,,,,,,,,,,,,,,,,,,,,,,,,,,,,,,,,668.0099161,668.0100069,668.0100203,668.023619,668.023619,668.023619,668.023619,671.028433,671.028433,672.011176,None,0,,,['2'],672.0121233,672.0122274,None,672.012361,672.0124086,None,,,,,,,,,,,[1.167837540999244],[0.18697187500038126],1,5,0,0,2025-01-13_10h50.18.339,rtmindeye,2024.1.5,None,2025-01-13 10h50.36.639128 -0500
all_stimuli/shared1000_notspecial/notspecial_43746.png,33,0,0,0,1,5,1,"[9, 21, 31, 45, 56, 68, 69]",,,,,1,0,1,0,0,33,33,33,672.0300691,,,,,,,,,,,,,,,,,,,,,,,,,,,,,,,,,,,,,,672.013227,672.0133706,672.0133924,672.0300691,672.0300691,672.0300691,672.0300691,675.0282425,675.0282425,676.0254167,1,1,0.867441541,0.194939875,None,676.0259683,676.0260267,None,676.0261207,676.0261534,None,,,,,,,,,,,,,1,5,0,0,2025-01-13_10h50.18.339,rtmindeye,2024.1.5,None,2025-01-13 10h50.36.639128 -0500
all_stimuli/MST_pairs1/pair_34_nsd_875_1_cocoid_67762.png,34,0,0,0,1,5,1,"[9, 21, 31, 45, 56, 68, 69]",,,,,1,0,1,0,0,34,34,34,676.0501853,,,,,,,,,,,,,,,,,,,,,,,,,,,,,,,,,,,,,,676.0265194,676.0266146,676.0266288,676.0501853,676.0501853,676.0501853,676.0501853,679.0471667,679.0471667,680.028624,1,1,0.941279707,0.194073709,None,680.029146,680.0292049,None,680.0293005,680.0293326,None,,,,,,,,,,,,,1,5,0,0,2025-01-13_10h50.18.339,rtmindeye,2024.1.5,None,2025-01-13 10h50.36.639128 -0500
all_stimuli/MST_pairs1/pair_12_16_78.png,35,0,1,0,1,5,1,"[9, 21, 31, 45, 56, 68, 69]",,,,,1,0,1,0,0,35,35,35,680.0458703,,,,,,,,,,,,,,,,,,,,,,,,,,,,,,,,,,,,,,680.0296876,680.029782,680.0297954,680.0458703,680.0458703,680.0458703,680.0458703,683.0581902,683.0581902,684.029358,2,1,0.953621916,0.1761525,None,684.0300254,684.0300992,None,684.0302191,684.0302589,None,684.0461808,684.0461808,,,,,,,,,,,1,5,0,0,2025-01-13_10h50.18.339,rtmindeye,2024.1.5,None,2025-01-13 10h50.36.639128 -0500
all_stimuli/special515/special_4249.jpg,36,0,1,0,1,5,1,"[9, 21, 31, 45, 56, 68, 69]",,,,,1,0,1,0,0,36,36,36,684.0461808,,,,,,,,,,,,,,,,,,,,,,,,,,,,,,,,,,,,,,684.030708,684.0308214,684.0308377,684.0461808,684.0461808,684.0461808,684.0461808,687.0440337,687.0440337,688.0451046,2,1,1.111328666,0.224028042,None,688.0459698,688.0460701,None,688.0461935,688.0462358,None,,,,,,,,,,,,,1,5,0,0,2025-01-13_10h50.18.339,rtmindeye,2024.1.5,None,2025-01-13 10h50.36.639128 -0500
all_stimuli/MST_pairs1/pair_42_w_icerink2.jpg,37,0,1,0,1,5,1,"[9, 21, 31, 45, 56, 68, 69]",,,,,1,0,1,0,0,37,37,37,688.0623067,,,,,,,,,,,,,,,,,,,,,,,,,,,,,,,,,,,,,,688.0467176,688.0468837,688.0469007,688.0623067,688.0623067,688.0623067,688.0623067,691.0616999,691.0616999,692.0458544,2,1,1.067174708,0.194078292,None,692.0468269,692.0469339,None,692.0470774,692.0471337,None,692.0625187,692.0625187,,,,,,,,,,,1,5,0,0,2025-01-13_10h50.18.339,rtmindeye,2024.1.5,None,2025-01-13 10h50.36.639128 -0500
all_stimuli/shared1000_notspecial/notspecial_70038.png,38,0,0,0,1,5,1,"[9, 21, 31, 45, 56, 68, 69]",,,,,1,0,1,0,0,38,38,38,692.0625187,,,,,,,,,,,,,,,,,,,,,,,,,,,,,,,,,,,,,,692.0478788,692.0480296,692.0480484,692.0625187,692.0625187,692.0625187,692.0625187,695.0605768,695.0605768,696.062332,1,1,1.711060249,None,None,696.063226,696.0633027,None,696.0634237,696.0634629,None,,,,,,,,,,,,,1,5,0,0,2025-01-13_10h50.18.339,rtmindeye,2024.1.5,None,2025-01-13 10h50.36.639128 -0500
all_stimuli/special515/special_53155.jpg,39,0,0,0,1,5,1,"[9, 21, 31, 45, 56, 68, 69]",,,,,1,0,1,0,0,39,39,39,696.0792588,,,,,,,,,,,,,,,,,,,,,,,,,,,,,,,,,,,,,,696.0639245,696.0640758,696.0640923,696.0792588,696.0792588,696.0792588,696.0792588,699.0752052,699.0752052,700.0782876,1,1,0.849243875,0.169064375,None,700.0794158,700.0795332,None,700.0796619,700.079706,None,,,,,,,,,,,,,1,5,0,0,2025-01-13_10h50.18.339,rtmindeye,2024.1.5,None,2025-01-13 10h50.36.639128 -0500
all_stimuli/special515/special_24530.jpg,40,0,1,0,1,5,1,"[9, 21, 31, 45, 56, 68, 69]",,,,,1,0,1,0,0,40,40,40,700.0912515,,,,,,,,,,,,,,,,,,,,,,,,,,,,,,,,,,,,,,700.080217,700.0803781,700.0803947,700.0912515,700.0912515,700.0912515,700.0912515,703.0918988,703.0918988,704.0756597,2,1,0.936358499,0.219971792,None,704.076287,704.0763569,None,704.0764708,704.0765095,None,704.0897955,704.0897955,,,,,,,,,,,1,5,0,0,2025-01-13_10h50.18.339,rtmindeye,2024.1.5,None,2025-01-13 10h50.36.639128 -0500
all_stimuli/special515/special_32232.jpg,41,0,0,0,1,5,1,"[9, 21, 31, 45, 56, 68, 69]",,,,,1,0,1,0,0,41,41,41,704.0897955,,,,,,,,,,,,,,,,,,,,,,,,,,,,,,,,,,,,,,704.0769619,704.0770757,704.0770922,704.0897955,704.0897955,704.0897955,704.0897955,707.0920665,707.0920665,708.0787483,1,1,1.200822582,0.172985417,None,708.0790466,708.0790801,None,708.0791312,708.0791483,None,,,,,,,,,,,,,1,5,0,0,2025-01-13_10h50.18.339,rtmindeye,2024.1.5,None,2025-01-13 10h50.36.639128 -0500
all_stimuli/special515/special_41814.jpg,42,0,0,0,1,5,1,"[9, 21, 31, 45, 56, 68, 69]",,,,,1,0,1,0,0,42,42,42,708.091429,,,,,,,,,,,,,,,,,,,,,,,,,,,,,,,,,,,,,,708.0795177,708.0795769,708.079584,708.091429,708.091429,708.091429,708.091429,711.0782401,711.0782401,712.0752838,1,1,1.015198125,0.18892625,None,712.0758319,712.0758951,None,712.0760092,712.076042,None,712.0908564,712.0908564,,,,,,,,,,,1,5,0,0,2025-01-13_10h50.18.339,rtmindeye,2024.1.5,None,2025-01-13 10h50.36.639128 -0500
all_stimuli/shared1000_notspecial/notspecial_23883.png,43,0,0,0,1,5,1,"[9, 21, 31, 45, 56, 68, 69]",,,,,1,0,1,0,0,43,43,43,712.0908564,,,,,,,,,,,,,,,,,,,,,,,,,,,,,,,,,,,,,,712.07644,712.076532,712.0765454,712.0908564,712.0908564,712.0908564,712.0908564,715.0780777,715.0780777,716.0787667,1,1,1.513810457,0.1779475,None,716.0794106,716.0794819,None,716.0796017,716.0796511,None,,,,,,,,,,,,,1,5,0,0,2025-01-13_10h50.18.339,rtmindeye,2024.1.5,None,2025-01-13 10h50.36.639128 -0500
all_stimuli/shared1000_notspecial/notspecial_4436.png,44,0,0,0,1,5,1,"[9, 21, 31, 45, 56, 68, 69]",,,,,1,0,1,0,0,44,44,44,716.0912607,,,,,,,,,,,,,,,,,,,,,,,,,,,,,,,,,,,,,,716.08002,716.080085,716.0800933,716.0912607,716.0912607,716.0912607,716.0912607,719.0786513,719.0786513,720.0780817,1,1,0.926423625,0.175955916,None,720.0785164,720.0785624,None,720.0786379,720.0786623,None,720.0921356,720.0921356,,,,,,,,,,,1,5,0,0,2025-01-13_10h50.18.339,rtmindeye,2024.1.5,None,2025-01-13 10h50.36.639128 -0500
blank.jpg,45,1,0,0,1,5,1,"[9, 21, 31, 45, 56, 68, 69]",,,,,1,0,1,0,0,45,45,45,720.0921356,,,,,,,,,,,,,,,,,,,,,,,,,,,,,,,,,,,,,,720.0789543,720.0790238,720.0790336,720.0921356,720.0921356,720.0921356,720.0921356,723.092188,723.092188,724.0770764,None,0,,,None,724.077627,724.0777044,None,724.0778284,724.077873,None,724.087156,724.087156,,,,,,,,,,,1,5,0,0,2025-01-13_10h50.18.339,rtmindeye,2024.1.5,None,2025-01-13 10h50.36.639128 -0500
all_stimuli/special515/special_61133.jpg,46,0,1,0,1,5,1,"[9, 21, 31, 45, 56, 68, 69]",,,,,1,0,1,0,0,46,46,46,724.087156,,,,,,,,,,,,,,,,,,,,,,,,,,,,,,,,,,,,,,724.0788289,724.0789792,724.0789977,724.087156,724.087156,724.087156,724.087156,727.0915985,727.0915985,728.0782981,2,1,0.899488916,0.202013541,None,728.0789447,728.0790202,None,728.0791375,728.0791766,None,728.103943,728.103943,,,,,,,,,,,1,5,0,0,2025-01-13_10h50.18.339,rtmindeye,2024.1.5,None,2025-01-13 10h50.36.639128 -0500
all_stimuli/MST_pairs1/pair_24_nsd_158_2_cocoid_3673.png,47,0,0,0,1,5,1,"[9, 21, 31, 45, 56, 68, 69]",,,,,1,0,1,0,0,47,47,47,728.103943,,,,,,,,,,,,,,,,,,,,,,,,,,,,,,,,,,,,,,728.079629,728.079934,728.0799437,728.103943,728.103943,728.103943,728.103943,731.0955277,731.0955277,732.0921516,1,1,1.844721791,0.2009815,None,732.0925394,732.0925794,None,732.0926425,732.0926639,None,,,,,,,,,,,,,1,5,0,0,2025-01-13_10h50.18.339,rtmindeye,2024.1.5,None,2025-01-13 10h50.36.639128 -0500
all_stimuli/MST_pairs1/pair_34_nsd_875_2_cocoid_72398.png,48,0,0,0,1,5,1,"[9, 21, 31, 45, 56, 68, 69]",,,,,1,0,1,0,0,48,48,48,732.1139335,,,,,,,,,,,,,,,,,,,,,,,,,,,,,,,,,,,,,,732.0929126,732.0929873,732.092996,732.1139335,732.1139335,732.1139335,732.1139335,735.1290898,735.1290898,736.0960548,1,1,1.846735583,0.165057166,None,736.0964937,736.0965421,None,736.096625,736.0966529,None,,,,,,,,,,,,,1,5,0,0,2025-01-13_10h50.18.339,rtmindeye,2024.1.5,None,2025-01-13 10h50.36.639128 -0500
all_stimuli/shared1000_notspecial/notspecial_51965.png,49,0,0,0,1,5,1,"[9, 21, 31, 45, 56, 68, 69]",,,,,1,0,1,0,0,49,49,49,736.1123351,,,,,,,,,,,,,,,,,,,,,,,,,,,,,,,,,,,,,,736.0969601,736.0970429,736.0970542,736.1123351,736.1123351,736.1123351,736.1123351,739.108972,739.108972,740.1103415,1,1,1.096329749,0.200014083,None,740.1114554,740.1115541,None,740.1116802,740.1117341,None,,,,,,,,,,,,,1,5,0,0,2025-01-13_10h50.18.339,rtmindeye,2024.1.5,None,2025-01-13 10h50.36.639128 -0500
all_stimuli/MST_pairs1/pair_30_nsd_676_1_cocoid_48729.png,50,0,0,0,1,5,1,"[9, 21, 31, 45, 56, 68, 69]",,,,,1,0,1,0,0,50,50,50,740.1396549,,,,,,,,,,,,,,,,,,,,,,,,,,,,,,,,,,,,,,740.1122657,740.1124579,740.1124752,740.1396549,740.1396549,740.1396549,740.1396549,743.1297243,743.1297243,744.1257515,1,1,1.136023791,0.200984792,None,744.1263659,744.1264383,None,744.1265546,744.1265959,None,,,,,,,,,,,,,1,5,0,0,2025-01-13_10h50.18.339,rtmindeye,2024.1.5,None,2025-01-13 10h50.36.639128 -0500
all_stimuli/shared1000_notspecial/notspecial_52328.png,51,0,0,0,1,5,1,"[9, 21, 31, 45, 56, 68, 69]",,,,,1,0,1,0,0,51,51,51,744.1418906,,,,,,,,,,,,,,,,,,,,,,,,,,,,,,,,,,,,,,744.1270258,744.1271438,744.1271606,744.1418906,744.1418906,744.1418906,744.1418906,747.1299466,747.1299466,748.128854,1,1,1.311832416,0.176895417,None,748.1295305,748.1296063,None,748.1297235,748.1297633,None,,,,,,,,,,,,,1,5,0,0,2025-01-13_10h50.18.339,rtmindeye,2024.1.5,None,2025-01-13 10h50.36.639128 -0500
all_stimuli/MST_pairs1/pair_4_6_44.png,52,0,0,0,1,5,1,"[9, 21, 31, 45, 56, 68, 69]",,,,,1,0,1,0,0,52,52,52,748.1476485,,,,,,,,,,,,,,,,,,,,,,,,,,,,,,,,,,,,,,748.1302196,748.1303367,748.1303532,748.1476485,748.1476485,748.1476485,748.1476485,751.1622199,751.1622199,752.1440266,1,1,1.158134333,0.175890375,None,752.1446656,752.1447384,None,752.1448533,752.144896,None,,,,,,,,,,,,,1,5,0,0,2025-01-13_10h50.18.339,rtmindeye,2024.1.5,None,2025-01-13 10h50.36.639128 -0500
all_stimuli/MST_pairs1/pair_48_w_runway1.jpg,53,0,0,0,1,5,1,"[9, 21, 31, 45, 56, 68, 69]",,,,,1,0,1,0,0,53,53,53,752.1587853,,,,,,,,,,,,,,,,,,,,,,,,,,,,,,,,,,,,,,752.1453454,752.1454616,752.1454812,752.1587853,752.1587853,752.1587853,752.1587853,755.1604936,755.1604936,756.142651,1,1,1.067903749,0.177095917,None,756.1432988,756.1433868,None,756.1435045,756.1435433,None,756.1601965,756.1601965,,,,,,,,,,,1,5,0,0,2025-01-13_10h50.18.339,rtmindeye,2024.1.5,None,2025-01-13 10h50.36.639128 -0500
all_stimuli/special515/special_40840.jpg,54,0,1,0,1,5,1,"[9, 21, 31, 45, 56, 68, 69]",,,,,1,0,1,0,0,54,54,54,756.1601965,,,,,,,,,,,,,,,,,,,,,,,,,,,,,,,,,,,,,,756.1439946,756.1441066,756.144123,756.1601965,756.1601965,756.1601965,756.1601965,759.1597991,759.1597991,760.1460736,2,1,1.079612583,0.17096175,None,760.1467031,760.1467779,None,760.146898,760.1469418,None,,,,,,,,,,,,,1,5,0,0,2025-01-13_10h50.18.339,rtmindeye,2024.1.5,None,2025-01-13 10h50.36.639128 -0500
all_stimuli/shared1000_notspecial/notspecial_12487.png,55,0,0,0,1,5,1,"[9, 21, 31, 45, 56, 68, 69]",,,,,1,0,1,0,0,55,55,55,760.1619765,,,,,,,,,,,,,,,,,,,,,,,,,,,,,,,,,,,,,,760.1474501,760.1475663,760.1475827,760.1619765,760.1619765,760.1619765,760.1619765,763.1590312,763.1590312,764.1454046,1,1,0.875852666,0.154918833,None,764.1460523,764.1461308,None,764.1462465,764.1462849,None,764.1587967,764.1587967,,,,,,,,,,,1,5,0,0,2025-01-13_10h50.18.339,rtmindeye,2024.1.5,None,2025-01-13 10h50.36.639128 -0500
blank.jpg,56,1,0,0,1,5,1,"[9, 21, 31, 45, 56, 68, 69]",,,,,1,0,1,0,0,56,56,56,764.1587967,,,,,,,,,,,,,,,,,,,,,,,,,,,,,,,,,,,,,,764.1467443,764.146858,764.1468744,764.1587967,764.1587967,764.1587967,764.1587967,767.1447092,767.1447092,768.145607,None,0,,,None,768.1463002,768.1463916,None,768.1466691,768.1467566,None,768.1626129,768.1626129,,,,,,,,,,,1,5,0,0,2025-01-13_10h50.18.339,rtmindeye,2024.1.5,None,2025-01-13 10h50.36.639128 -0500
all_stimuli/MST_pairs1/pair_16_20_0.png,57,0,1,0,1,5,1,"[9, 21, 31, 45, 56, 68, 69]",,,,,1,0,1,0,0,57,57,57,768.1626129,,,,,,,,,,,,,,,,,,,,,,,,,,,,,,,,,,,,,,768.1473155,768.1474455,768.1474631,768.1626129,768.1626129,768.1626129,768.1626129,771.1796504,771.1796504,772.1622393,2,1,1.153148208,0.1880955,None,772.163417,772.1635575,None,772.1636937,772.1637482,None,,,,,,,,,,,,,1,5,0,0,2025-01-13_10h50.18.339,rtmindeye,2024.1.5,None,2025-01-13 10h50.36.639128 -0500
all_stimuli/shared1000_notspecial/notspecial_12685.png,58,0,0,0,1,5,1,"[9, 21, 31, 45, 56, 68, 69]",,,,,1,0,1,0,0,58,58,58,772.1819171,,,,,,,,,,,,,,,,,,,,,,,,,,,,,,,,,,,,,,772.1644016,772.1647045,772.1647224,772.1819171,772.1819171,772.1819171,772.1819171,775.1791909,775.1791909,776.1766476,1,1,0.999832082,0.177101042,None,776.1778276,776.1779811,None,776.1782081,776.1782691,None,,,,,,,,,,,,,1,5,0,0,2025-01-13_10h50.18.339,rtmindeye,2024.1.5,None,2025-01-13 10h50.36.639128 -0500
all_stimuli/MST_pairs1/pair_36_nsd_949_2_cocoid_60031.png,59,0,0,0,1,5,1,"[9, 21, 31, 45, 56, 68, 69]",,,,,1,0,1,0,0,59,59,59,776.207878,,,,,,,,,,,,,,,,,,,,,,,,,,,,,,,,,,,,,,776.1789696,776.1792533,776.1792709,776.207878,776.207878,776.207878,776.207878,779.2124418,779.2124418,780.1946232,1,1,1.110920958,0.187093667,None,780.1959738,780.1960912,None,780.1962213,780.1962645,None,,,,,,,,,,,,,1,5,0,0,2025-01-13_10h50.18.339,rtmindeye,2024.1.5,None,2025-01-13 10h50.36.639128 -0500
all_stimuli/shared1000_notspecial/notspecial_34068.png,60,0,0,0,1,5,1,"[9, 21, 31, 45, 56, 68, 69]",,,,,1,0,1,0,0,60,60,60,780.2664641,,,,,,,,,,,,,,,,,,,,,,,,,,,,,,,,,,,,,,780.1967692,780.1969295,780.1969465,780.2664641,780.2664641,780.2664641,780.2664641,783.262343,783.262343,784.2092907,1,1,1.043332291,0.162065916,None,784.2102132,784.2103233,None,784.2104724,784.2105311,None,,,,,,,,,,,,,1,5,0,0,2025-01-13_10h50.18.339,rtmindeye,2024.1.5,None,2025-01-13 10h50.36.639128 -0500
all_stimuli/special515/special_11159.jpg,61,0,0,0,1,5,1,"[9, 21, 31, 45, 56, 68, 69]",,,,,1,0,1,0,0,61,61,61,784.2249547,,,,,,,,,,,,,,,,,,,,,,,,,,,,,,,,,,,,,,784.2112008,784.2113981,784.2114195,784.2249547,784.2249547,784.2249547,784.2249547,787.2257838,787.2257838,788.2112717,1,1,0.943815708,0.189082,None,788.2118976,788.2119662,None,788.2120851,788.212124,None,788.2395976,788.2395976,,,,,,,,,,,1,5,0,0,2025-01-13_10h50.18.339,rtmindeye,2024.1.5,None,2025-01-13 10h50.36.639128 -0500
all_stimuli/MST_pairs1/pair_34_nsd_875_2_cocoid_72398.png,62,0,1,0,1,5,1,"[9, 21, 31, 45, 56, 68, 69]",,,,,1,0,1,0,0,62,62,62,788.2395976,,,,,,,,,,,,,,,,,,,,,,,,,,,,,,,,,,,,,,788.2125605,788.2126729,788.2126898,788.2395976,788.2395976,788.2395976,788.2395976,791.2294576,791.2294576,792.2150527,2,1,0.758285624,0.169012459,None,792.2157445,792.2158125,None,792.2158709,792.2158895,None,,,,,,,,,,,,,1,5,0,0,2025-01-13_10h50.18.339,rtmindeye,2024.1.5,None,2025-01-13 10h50.36.639128 -0500
all_stimuli/special515/special_67742.jpg,63,0,0,0,1,5,1,"[9, 21, 31, 45, 56, 68, 69]",,,,,1,0,1,0,0,63,63,63,792.2274855,,,,,,,,,,,,,,,,,,,,,,,,,,,,,,,,,,,,,,792.2161305,792.216196,792.2162033,792.2274855,792.2274855,792.2274855,792.2274855,795.2288025,795.2288025,796.2130483,1,1,0.756470583,0.168003458,None,796.2140754,796.2142467,None,796.2144258,796.2144861,None,796.2301903,796.2301903,,,,,,,,,,,1,5,0,0,2025-01-13_10h50.18.339,rtmindeye,2024.1.5,None,2025-01-13 10h50.36.639128 -0500
all_stimuli/MST_pairs1/pair_48_w_runway2.jpg,64,0,0,0,1,5,1,"[9, 21, 31, 45, 56, 68, 69]",,,,,1,0,1,0,0,64,64,64,796.2301903,,,,,,,,,,,,,,,,,,,,,,,,,,,,,,,,,,,,,,796.2152362,796.2154169,796.2154381,796.2301903,796.2301903,796.2301903,796.2301903,799.2298631,799.2298631,800.2137676,1,1,1.056757124,0.157935959,None,800.2141637,800.2142012,None,800.2142537,800.2142711,None,800.2254024,800.2254024,,,,,,,,,,,1,5,0,0,2025-01-13_10h50.18.339,rtmindeye,2024.1.5,None,2025-01-13 10h50.36.639128 -0500
all_stimuli/MST_pairs1/pair_40_w_escalator1.jpg,65,0,0,0,1,5,1,"[9, 21, 31, 45, 56, 68, 69]",,,,,1,0,1,0,0,65,65,65,800.2254024,,,,,,,,,,,,,,,,,,,,,,,,,,,,,,,,,,,,,,800.214489,800.2145398,800.2145472,800.2254024,800.2254024,800.2254024,800.2254024,803.2284223,803.2284223,804.216559,1,1,1.511541541,0.17694875,None,804.21714,804.2172001,None,804.2172939,804.2173253,None,,,,,,,,,,,,,1,5,0,0,2025-01-13_10h50.18.339,rtmindeye,2024.1.5,None,2025-01-13 10h50.36.639128 -0500
all_stimuli/special515/special_62228.jpg,66,0,1,0,1,5,1,"[9, 21, 31, 45, 56, 68, 69]",,,,,1,0,1,0,0,66,66,66,804.2314553,,,,,,,,,,,,,,,,,,,,,,,,,,,,,,,,,,,,,,804.2176841,804.2178081,804.2178216,804.2314553,804.2314553,804.2314553,804.2314553,807.2451367,807.2451367,808.2291005,1,0,0.986438124,0.166076083,None,808.2300299,808.2301211,None,808.2302519,808.2303108,None,,,,,,,,,,,,,1,5,0,0,2025-01-13_10h50.18.339,rtmindeye,2024.1.5,None,2025-01-13 10h50.36.639128 -0500
all_stimuli/MST_pairs1/pair_26_nsd_483_2_cocoid_8054.png,67,0,0,0,1,5,1,"[9, 21, 31, 45, 56, 68, 69]",,,,,1,0,1,0,0,67,67,67,808.2599228,,,,,,,,,,,,,,,,,,,,,,,,,,,,,,,,,,,,,,808.2309947,808.2313022,808.2313201,808.2599228,808.2599228,808.2599228,808.2599228,811.2624981,811.2624981,812.24244,1,1,0.801004541,0.149986709,None,812.243199,812.2432909,None,812.2434355,812.2434861,None,,,,,,,,,,,,,1,5,0,0,2025-01-13_10h50.18.339,rtmindeye,2024.1.5,None,2025-01-13 10h50.36.639128 -0500
blank.jpg,68,1,0,0,1,5,1,"[9, 21, 31, 45, 56, 68, 69]",,,,,1,0,1,0,0,68,68,68,812.2553062,,,,,,,,,,,,,,,,,,,,,,,,,,,,,,,,,,,,,,812.2440597,812.2442095,812.2442307,812.2553062,812.2553062,812.2553062,812.2553062,815.2458034,815.2458034,816.2426453,None,0,,,None,816.2430155,816.2430713,None,816.2431695,816.2432035,None,816.2505589,816.2505589,,,,,,,,,,,1,5,0,0,2025-01-13_10h50.18.339,rtmindeye,2024.1.5,None,2025-01-13 10h50.36.639128 -0500
blank.jpg,69,1,0,1,1,5,0,"[9, 21, 31, 45, 56, 68, 69]",,,,,1,0,1,0,0,69,69,69,816.2505589,,,,,,,,,,,,,,,,,,,,,,,,,,,,,,,,,,,,,,816.2435624,816.2436523,816.2436658,816.2505589,816.2505589,816.2505589,816.2505589,819.2462308,819.2462308,820.245766,None,0,,,None,820.2464982,840.2437468,1,840.2444832,871.0140288,equal,,,820.2646853,820.2646853,19.976502,None,840.2531456,840.2531456,30.74813275,None,,,1,5,0,0,2025-01-13_10h50.18.339,rtmindeye,2024.1.5,None,2025-01-13 10h50.36.639128 -0500
,,,,,,,,,,,,,1,0,1,0,,,,,,,,,,,,,,,,,,,,,,,,,,,,,,,,,,,,,,,,,,,,,,,,,,,,,,,,,,,,,,,,,,,,,,,,,,,,1,5,0,0,2025-01-13_10h50.18.339,rtmindeye,2024.1.5,None,2025-01-13 10h50.36.639128 -0500
all_stimuli/shared1000_notspecial/notspecial_19672.png,0,0,0,0,2,5,1,"[9, 21, 31, 45, 56, 68, 69]",,,,,2,0,2,0,0,0,0,0,871.0511821,,,,,,,,,,,,,,,,,,,,,,,,,,,,,,,,,,,,,,871.0341232,871.0348035,871.0348227,871.0511821,871.0511821,871.0511821,871.0511821,874.0619463,874.0619463,875.0427623,1,1,0.900988291,0.179912,None,875.0436655,875.043735,None,875.0439499,875.043985,None,,,,,,,,,,,,,1,5,0,0,2025-01-13_10h50.18.339,rtmindeye,2024.1.5,None,2025-01-13 10h50.36.639128 -0500
all_stimuli/special515/special_55526.jpg,1,0,0,0,2,5,1,"[9, 21, 31, 45, 56, 68, 69]",,,,,2,0,2,0,0,1,1,1,875.0591005,,,,,,,,,,,,,,,,,,,,,,,,,,,,,,,,,,,,,,875.044484,875.044584,875.0445977,875.0591005,875.0591005,875.0591005,875.0591005,878.0614886,878.0614886,879.0428871,1,1,0.691040749,0.194998875,None,879.0434082,879.043465,None,879.0435593,879.0435917,None,879.0695987,879.0695987,,,,,,,,,,,1,5,0,0,2025-01-13_10h50.18.339,rtmindeye,2024.1.5,None,2025-01-13 10h50.36.639128 -0500
all_stimuli/MST_pairs1/pair_22_nsd_115_1_cocoid_8171.png,2,0,0,0,2,5,1,"[9, 21, 31, 45, 56, 68, 69]",,,,,2,0,2,0,0,2,2,2,879.0695987,,,,,,,,,,,,,,,,,,,,,,,,,,,,,,,,,,,,,,879.0439372,879.0440285,879.044042,879.0695987,879.0695987,879.0695987,879.0695987,882.0623439,882.0623439,883.0461919,1,1,1.938575708,0.157065958,None,883.0465034,883.0465373,None,883.0465887,883.0466069,None,,,,,,,,,,,,,1,5,0,0,2025-01-13_10h50.18.339,rtmindeye,2024.1.5,None,2025-01-13 10h50.36.639128 -0500
all_stimuli/special515/special_13613.jpg,3,0,1,0,2,5,1,"[9, 21, 31, 45, 56, 68, 69]",,,,,2,0,2,0,0,3,3,3,883.0586987,,,,,,,,,,,,,,,,,,,,,,,,,,,,,,,,,,,,,,883.047179,883.0472429,883.0472503,883.0586987,883.0586987,883.0586987,883.0586987,886.0626312,886.0626312,887.043006,2,1,0.847816541,0.188699583,None,887.0435644,887.0436241,None,887.0437187,887.043751,None,887.0587308,887.0587308,,,,,,,,,,,1,5,0,0,2025-01-13_10h50.18.339,rtmindeye,2024.1.5,None,2025-01-13 10h50.36.639128 -0500
all_stimuli/shared1000_notspecial/notspecial_28487.png,4,0,0,0,2,5,1,"[9, 21, 31, 45, 56, 68, 69]",,,,,2,0,2,0,0,4,4,4,887.0587308,,,,,,,,,,,,,,,,,,,,,,,,,,,,,,,,,,,,,,887.044125,887.0442159,887.0442293,887.0587308,887.0587308,887.0587308,887.0587308,890.0618915,890.0618915,891.0430845,1,1,0.663526291,0.15426275,None,891.0439436,891.0440324,None,891.0441618,891.0442082,None,891.0535266,891.0535266,,,,,,,,,,,1,5,0,0,2025-01-13_10h50.18.339,rtmindeye,2024.1.5,None,2025-01-13 10h50.36.639128 -0500
all_stimuli/special515/special_28524.jpg,5,0,1,0,2,5,1,"[9, 21, 31, 45, 56, 68, 69]",,,,,2,0,2,0,0,5,5,5,891.0535266,,,,,,,,,,,,,,,,,,,,,,,,,,,,,,,,,,,,,,891.044676,891.0448084,891.0448261,891.0535266,891.0535266,891.0535266,891.0535266,894.0462732,894.0462732,895.0429381,1,0,0.892691624,0.174050917,None,895.0434541,895.0435103,None,895.0436042,895.0436357,None,895.0582527,895.0582527,,,,,,,,,,,1,5,0,0,2025-01-13_10h50.18.339,rtmindeye,2024.1.5,None,2025-01-13 10h50.36.639128 -0500
all_stimuli/MST_pairs1/pair_44_w_log_cabin1.jpg,6,0,0,0,2,5,1,"[9, 21, 31, 45, 56, 68, 69]",,,,,2,0,2,0,0,6,6,6,895.0582527,,,,,,,,,,,,,,,,,,,,,,,,,,,,,,,,,,,,,,895.0439836,895.044074,895.0440878,895.0582527,895.0582527,895.0582527,895.0582527,898.0624435,898.0624435,899.0437877,1,1,1.015033166,0.171954708,None,899.0446418,899.0447222,None,899.0448567,899.0449091,None,899.0545426,899.0545426,,,,,,,,,,,1,5,0,0,2025-01-13_10h50.18.339,rtmindeye,2024.1.5,None,2025-01-13 10h50.36.639128 -0500
all_stimuli/special515/special_71241.jpg,7,0,0,0,2,5,1,"[9, 21, 31, 45, 56, 68, 69]",,,,,2,0,2,0,0,7,7,7,899.0545426,,,,,,,,,,,,,,,,,,,,,,,,,,,,,,,,,,,,,,899.0454448,899.0455705,899.045588,899.0545426,899.0545426,899.0545426,899.0545426,902.047403,902.047403,903.0429283,1,1,0.706685333,0.183991958,None,903.043445,903.0435012,None,903.0435968,903.0436282,None,903.0547639,903.0547639,,,,,,,,,,,1,5,0,0,2025-01-13_10h50.18.339,rtmindeye,2024.1.5,None,2025-01-13 10h50.36.639128 -0500
all_stimuli/special515/special_68842.jpg,8,0,0,0,2,5,1,"[9, 21, 31, 45, 56, 68, 69]",,,,,2,0,2,0,0,8,8,8,903.0547639,,,,,,,,,,,,,,,,,,,,,,,,,,,,,,,,,,,,,,903.0439747,903.0440658,903.0440794,903.0547639,903.0547639,903.0547639,903.0547639,906.0599204,906.0599204,907.042831,1,1,0.740439749,0.195075292,None,907.0433634,907.0434208,None,907.0435157,907.0435469,None,907.0543315,907.0543315,,,,,,,,,,,1,5,0,0,2025-01-13_10h50.18.339,rtmindeye,2024.1.5,None,2025-01-13 10h50.36.639128 -0500
blank.jpg,9,1,0,0,2,5,1,"[9, 21, 31, 45, 56, 68, 69]",,,,,2,0,2,0,0,9,9,9,907.0543315,,,,,,,,,,,,,,,,,,,,,,,,,,,,,,,,,,,,,,907.0438928,907.0439835,907.0439975,907.0543315,907.0543315,907.0543315,907.0543315,910.0464406,910.0464406,911.0431767,None,0,,,None,911.0435795,911.043635,None,911.043737,911.0437682,None,911.0575513,911.0575513,,,,,,,,,,,1,5,0,0,2025-01-13_10h50.18.339,rtmindeye,2024.1.5,None,2025-01-13 10h50.36.639128 -0500
all_stimuli/shared1000_notspecial/notspecial_70758.png,10,0,0,0,2,5,1,"[9, 21, 31, 45, 56, 68, 69]",,,,,2,0,2,0,0,10,10,10,911.0575513,,,,,,,,,,,,,,,,,,,,,,,,,,,,,,,,,,,,,,911.0441454,911.0442391,911.0442528,911.0575513,911.0575513,911.0575513,911.0575513,914.0465625,914.0465625,915.0426807,1,1,1.000674124,0.1650905,None,915.0431996,915.0432571,None,915.0433522,915.043384,None,915.0577688,915.0577688,,,,,,,,,,,1,5,0,0,2025-01-13_10h50.18.339,rtmindeye,2024.1.5,None,2025-01-13 10h50.36.639128 -0500
all_stimuli/special515/special_47687.jpg,11,0,1,0,2,5,1,"[9, 21, 31, 45, 56, 68, 69]",,,,,2,0,2,0,0,11,11,11,915.0577688,,,,,,,,,,,,,,,,,,,,,,,,,,,,,,,,,,,,,,915.0437442,915.0438358,915.0438492,915.0577688,915.0577688,915.0577688,915.0577688,918.0613604,918.0613604,919.0430203,2,1,1.315620291,0.194892916,None,919.0435447,919.0436015,None,919.0436948,919.0437257,None,919.0590675,919.0590675,,,,,,,,,,,1,5,0,0,2025-01-13_10h50.18.339,rtmindeye,2024.1.5,None,2025-01-13 10h50.36.639128 -0500
all_stimuli/shared1000_notspecial/notspecial_9462.png,12,0,0,0,2,5,1,"[9, 21, 31, 45, 56, 68, 69]",,,,,2,0,2,0,0,12,12,12,919.0590675,,,,,,,,,,,,,,,,,,,,,,,,,,,,,,,,,,,,,,919.0440953,919.0441857,919.044199,919.0590675,919.0590675,919.0590675,919.0590675,922.0450919,922.0450919,923.0430572,1,1,0.799289999,0.206010167,None,923.0434798,923.0435245,None,923.0435964,923.0436205,None,923.0565895,923.0565895,,,,,,,,,,,1,5,0,0,2025-01-13_10h50.18.339,rtmindeye,2024.1.5,None,2025-01-13 10h50.36.639128 -0500
all_stimuli/special515/special_57046.jpg,13,0,0,0,2,5,1,"[9, 21, 31, 45, 56, 68, 69]",,,,,2,0,2,0,0,13,13,13,923.0565895,,,,,,,,,,,,,,,,,,,,,,,,,,,,,,,,,,,,,,923.0438878,923.0439568,923.0439669,923.0565895,923.0565895,923.0565895,923.0565895,926.061569,926.061569,927.0429215,1,1,0.748652958,0.183063708,None,927.0434823,927.0435436,None,927.0436398,927.0436728,None,927.0595674,927.0595674,,,,,,,,,,,1,5,0,0,2025-01-13_10h50.18.339,rtmindeye,2024.1.5,None,2025-01-13 10h50.36.639128 -0500
all_stimuli/shared1000_notspecial/notspecial_57681.png,14,0,0,0,2,5,1,"[9, 21, 31, 45, 56, 68, 69]",,,,,2,0,2,0,0,14,14,14,927.0595674,,,,,,,,,,,,,,,,,,,,,,,,,,,,,,,,,,,,,,927.0440419,927.0441336,927.0441471,927.0595674,927.0595674,927.0595674,927.0595674,930.0625251,930.0625251,931.0429065,1,1,0.854825249,0.188000375,None,931.0434314,931.0434882,None,931.0435829,931.043614,None,931.0568117,931.0568117,,,,,,,,,,,1,5,0,0,2025-01-13_10h50.18.339,rtmindeye,2024.1.5,None,2025-01-13 10h50.36.639128 -0500
all_stimuli/special515/special_22587.jpg,15,0,1,0,2,5,1,"[9, 21, 31, 45, 56, 68, 69]",,,,,2,0,2,0,0,15,15,15,931.0568117,,,,,,,,,,,,,,,,,,,,,,,,,,,,,,,,,,,,,,931.0439622,931.0440525,931.0440658,931.0568117,931.0568117,931.0568117,931.0568117,934.0484346,934.0484346,935.0429278,2,1,1.123498999,0.213000834,None,935.0434571,935.0435149,None,935.0436092,935.0436403,None,935.0563311,935.0563311,,,,,,,,,,,1,5,0,0,2025-01-13_10h50.18.339,rtmindeye,2024.1.5,None,2025-01-13 10h50.36.639128 -0500
all_stimuli/special515/special_32232.jpg,16,0,1,0,2,5,1,"[9, 21, 31, 45, 56, 68, 69]",,,,,2,0,2,0,0,16,16,16,935.0563311,,,,,,,,,,,,,,,,,,,,,,,,,,,,,,,,,,,,,,935.0439886,935.0440788,935.0440925,935.0563311,935.0563311,935.0563311,935.0563311,938.0467306,938.0467306,939.0431336,2,1,0.958027916,0.197021042,None,939.0436391,939.0436958,None,939.0437897,939.0438209,None,939.056174,939.056174,,,,,,,,,,,1,5,0,0,2025-01-13_10h50.18.339,rtmindeye,2024.1.5,None,2025-01-13 10h50.36.639128 -0500
all_stimuli/special515/special_36731.jpg,17,0,0,0,2,5,1,"[9, 21, 31, 45, 56, 68, 69]",,,,,2,0,2,0,0,17,17,17,939.056174,,,,,,,,,,,,,,,,,,,,,,,,,,,,,,,,,,,,,,939.044172,939.0442621,939.044276,939.056174,939.056174,939.056174,939.056174,942.0630577,942.0630577,943.0430164,1,1,0.9102725,0.225968625,None,943.0435739,943.0436335,None,943.0437308,943.0437633,None,943.0570329,943.0570329,,,,,,,,,,,1,5,0,0,2025-01-13_10h50.18.339,rtmindeye,2024.1.5,None,2025-01-13 10h50.36.639128 -0500
all_stimuli/special515/special_40935.jpg,18,0,0,0,2,5,1,"[9, 21, 31, 45, 56, 68, 69]",,,,,2,0,2,0,0,18,18,18,943.0570329,,,,,,,,,,,,,,,,,,,,,,,,,,,,,,,,,,,,,,943.0441305,943.0442229,943.0442365,943.0570329,943.0570329,943.0570329,943.0570329,946.0457274,946.0457274,947.0430494,1,1,1.157313916,0.173099375,None,947.0436095,947.0436724,None,947.0437701,947.0438051,None,947.0560711,947.0560711,,,,,,,,,,,1,5,0,0,2025-01-13_10h50.18.339,rtmindeye,2024.1.5,None,2025-01-13 10h50.36.639128 -0500
all_stimuli/special515/special_41814.jpg,19,0,1,0,2,5,1,"[9, 21, 31, 45, 56, 68, 69]",,,,,2,0,2,0,0,19,19,19,947.0560711,,,,,,,,,,,,,,,,,,,,,,,,,,,,,,,,,,,,,,947.044176,947.0442668,947.0442803,947.0560711,947.0560711,947.0560711,947.0560711,950.0624891,950.0624891,951.0432483,2,1,0.984312666,0.162019416,None,951.043758,951.0438134,None,951.043908,951.0439394,None,951.0565504,951.0565504,,,,,,,,,,,1,5,0,0,2025-01-13_10h50.18.339,rtmindeye,2024.1.5,None,2025-01-13 10h50.36.639128 -0500
all_stimuli/special515/special_64880.jpg,20,0,1,0,2,5,1,"[9, 21, 31, 45, 56, 68, 69]",,,,,2,0,2,0,0,20,20,20,951.0565504,,,,,,,,,,,,,,,,,,,,,,,,,,,,,,,,,,,,,,951.0442839,951.0443747,951.0443879,951.0565504,951.0565504,951.0565504,951.0565504,954.0469037,954.0469037,955.0428641,2,1,1.371855083,0.245095,None,955.0432726,955.043314,None,955.0433777,955.0433987,None,955.0508285,955.0508285,,,,,,,,,,,1,5,0,0,2025-01-13_10h50.18.339,rtmindeye,2024.1.5,None,2025-01-13 10h50.36.639128 -0500
blank.jpg,21,1,0,0,2,5,1,"[9, 21, 31, 45, 56, 68, 69]",,,,,2,0,2,0,0,21,21,21,955.0508285,,,,,,,,,,,,,,,,,,,,,,,,,,,,,,,,,,,,,,955.0436492,955.0437106,955.0437197,955.0508285,955.0508285,955.0508285,955.0508285,958.0622807,958.0622807,959.0431751,None,0,,,None,959.043468,959.0435102,None,959.043585,959.0436082,None,959.0674598,959.0674598,,,,,,,,,,,1,5,0,0,2025-01-13_10h50.18.339,rtmindeye,2024.1.5,None,2025-01-13 10h50.36.639128 -0500
all_stimuli/MST_pairs1/pair_26_nsd_483_1_cocoid_37825.png,22,0,0,0,2,5,1,"[9, 21, 31, 45, 56, 68, 69]",,,,,2,0,2,0,0,22,22,22,959.0674598,,,,,,,,,,,,,,,,,,,,,,,,,,,,,,,,,,,,,,959.0438787,959.0439462,959.0439563,959.0674598,959.0674598,959.0674598,959.0674598,962.0795667,962.0795667,963.04625,1,1,0.775018,0.15394225,None,963.046762,963.0468204,None,963.0469162,963.0469502,None,,,,,,,,,,,,,1,5,0,0,2025-01-13_10h50.18.339,rtmindeye,2024.1.5,None,2025-01-13 10h50.36.639128 -0500
all_stimuli/shared1000_notspecial/notspecial_70764.png,23,0,0,0,2,5,1,"[9, 21, 31, 45, 56, 68, 69]",,,,,2,0,2,0,0,23,23,23,963.0629165,,,,,,,,,,,,,,,,,,,,,,,,,,,,,,,,,,,,,,963.0473083,963.0474045,963.0474186,963.0629165,963.0629165,963.0629165,963.0629165,966.0598597,966.0598597,967.04682,1,1,0.877707499,0.1758415,None,967.0473337,967.0473916,None,967.0474854,967.0475163,None,967.0635677,967.0635677,,,,,,,,,,,1,5,0,0,2025-01-13_10h50.18.339,rtmindeye,2024.1.5,None,2025-01-13 10h50.36.639128 -0500
all_stimuli/special515/special_8933.jpg,24,0,1,0,2,5,1,"[9, 21, 31, 45, 56, 68, 69]",,,,,2,0,2,0,0,24,24,24,967.0635677,,,,,,,,,,,,,,,,,,,,,,,,,,,,,,,,,,,,,,967.0478585,967.0479513,967.0479644,967.0635677,967.0635677,967.0635677,967.0635677,970.0625315,970.0625315,971.0468164,2,1,1.262954666,0.188931417,None,971.0473315,971.047388,None,971.0474839,971.0475168,None,971.0765605,971.0765605,,,,,,,,,,,1,5,0,0,2025-01-13_10h50.18.339,rtmindeye,2024.1.5,None,2025-01-13 10h50.36.639128 -0500
all_stimuli/special515/special_51185.jpg,25,0,0,0,2,5,1,"[9, 21, 31, 45, 56, 68, 69]",,,,,2,0,2,0,0,25,25,25,971.0765605,,,,,,,,,,,,,,,,,,,,,,,,,,,,,,,,,,,,,,971.0478632,971.0479536,971.0479672,971.0765605,971.0765605,971.0765605,971.0765605,974.0779367,974.0779367,975.0611823,1,1,1.327955582,0.166933542,None,975.0619772,975.0620712,None,975.0621977,975.0622447,None,,,,,,,,,,,,,1,5,0,0,2025-01-13_10h50.18.339,rtmindeye,2024.1.5,None,2025-01-13 10h50.36.639128 -0500
all_stimuli/MST_pairs1/pair_8_12_0.png,26,0,0,0,2,5,1,"[9, 21, 31, 45, 56, 68, 69]",,,,,2,0,2,0,0,26,26,26,975.0756636,,,,,,,,,,,,,,,,,,,,,,,,,,,,,,,,,,,,,,975.0627247,975.0629301,975.062948,975.0756636,975.0756636,975.0756636,975.0756636,978.0791251,978.0791251,979.0599503,None,0,,,['1'],979.0608188,979.0608798,None,979.0609837,979.0610157,None,979.0746011,979.0746011,,,,,,,,,[1.469827165999959],[0.18700170800002525],1,5,0,0,2025-01-13_10h50.18.339,rtmindeye,2024.1.5,None,2025-01-13 10h50.36.639128 -0500
all_stimuli/special515/special_54361.jpg,27,0,1,0,2,5,1,"[9, 21, 31, 45, 56, 68, 69]",,,,,2,0,2,0,0,27,27,27,979.0746011,,,,,,,,,,,,,,,,,,,,,,,,,,,,,,,,,,,,,,979.0613681,979.0614607,979.0614747,979.0746011,979.0746011,979.0746011,979.0746011,982.0635631,982.0635631,983.0659175,2,1,0.938969874,0.167908667,None,983.0664554,983.0665027,None,983.0665684,983.0665912,None,,,,,,,,,,,,,1,5,0,0,2025-01-13_10h50.18.339,rtmindeye,2024.1.5,None,2025-01-13 10h50.36.639128 -0500
all_stimuli/special515/special_31659.jpg,28,0,0,0,2,5,1,"[9, 21, 31, 45, 56, 68, 69]",,,,,2,0,2,0,0,28,28,28,983.0781829,,,,,,,,,,,,,,,,,,,,,,,,,,,,,,,,,,,,,,983.0668937,983.0670132,983.0670228,983.0781829,983.0781829,983.0781829,983.0781829,986.0798792,986.0798792,987.063547,1,1,1.235306333,0.194013666,None,987.0640636,987.064122,None,987.0642166,987.0642481,None,987.0794794,987.0794794,,,,,,,,,,,1,5,0,0,2025-01-13_10h50.18.339,rtmindeye,2024.1.5,None,2025-01-13 10h50.36.639128 -0500
all_stimuli/special515/special_42851.jpg,29,0,0,0,2,5,1,"[9, 21, 31, 45, 56, 68, 69]",,,,,2,0,2,0,0,29,29,29,987.0794794,,,,,,,,,,,,,,,,,,,,,,,,,,,,,,,,,,,,,,987.0645964,987.0646871,987.0647004,987.0794794,987.0794794,987.0794794,987.0794794,990.0798149,990.0798149,991.0633197,1,1,1.043152708,0.164996667,None,991.0637917,991.0638445,None,991.0639298,991.0639576,None,991.0789271,991.0789271,,,,,,,,,,,1,5,0,0,2025-01-13_10h50.18.339,rtmindeye,2024.1.5,None,2025-01-13 10h50.36.639128 -0500
all_stimuli/shared1000_notspecial/notspecial_41778.png,30,0,0,0,2,5,1,"[9, 21, 31, 45, 56, 68, 69]",,,,,2,0,2,0,0,30,30,30,991.0789271,,,,,,,,,,,,,,,,,,,,,,,,,,,,,,,,,,,,,,991.0642983,991.0643768,991.0643883,991.0789271,991.0789271,991.0789271,991.0789271,994.0785209,994.0785209,995.0630582,1,1,1.119645333,0.178993458,None,995.0635794,995.0636372,None,995.0637306,995.0637624,None,995.0762341,995.0762341,,,,,,,,,,,1,5,0,0,2025-01-13_10h50.18.339,rtmindeye,2024.1.5,None,2025-01-13 10h50.36.639128 -0500
blank.jpg,31,1,0,0,2,5,1,"[9, 21, 31, 45, 56, 68, 69]",,,,,2,0,2,0,0,31,31,31,995.0762341,,,,,,,,,,,,,,,,,,,,,,,,,,,,,,,,,,,,,,995.0641154,995.0642078,995.0642214,995.0762341,995.0762341,995.0762341,995.0762341,998.0623277,998.0623277,999.060085,None,0,,,None,999.0604825,999.0605401,None,999.060639,999.0606728,None,999.0744458,999.0744458,,,,,,,,,,,1,5,0,0,2025-01-13_10h50.18.339,rtmindeye,2024.1.5,None,2025-01-13 10h50.36.639128 -0500
all_stimuli/special515/special_31936.jpg,32,0,1,0,2,5,1,"[9, 21, 31, 45, 56, 68, 69]",,,,,2,0,2,0,0,32,32,32,999.0744458,,,,,,,,,,,,,,,,,,,,,,,,,,,,,,,,,,,,,,999.0610335,999.0611245,999.0611382,999.0744458,999.0744458,999.0744458,999.0744458,1002.078981,1002.078981,1003.060129,2,1,1.695218332,0.168979459,None,1003.060711,1003.060773,None,1003.060871,1003.060902,None,1003.075912,1003.075912,,,,,,,,,,,1,5,0,0,2025-01-13_10h50.18.339,rtmindeye,2024.1.5,None,2025-01-13 10h50.36.639128 -0500
all_stimuli/shared1000_notspecial/notspecial_22585.png,33,0,0,0,2,5,1,"[9, 21, 31, 45, 56, 68, 69]",,,,,2,0,2,0,0,33,33,33,1003.075912,,,,,,,,,,,,,,,,,,,,,,,,,,,,,,,,,,,,,,1003.061296,1003.061408,1003.061422,1003.075912,1003.075912,1003.075912,1003.075912,1006.078989,1006.078989,1007.059969,1,1,0.921650124,0.164007667,None,1007.060537,1007.060603,None,1007.0607,1007.060735,None,1007.07715,1007.07715,,,,,,,,,,,1,5,0,0,2025-01-13_10h50.18.339,rtmindeye,2024.1.5,None,2025-01-13 10h50.36.639128 -0500
all_stimuli/MST_pairs1/pair_0_1_78.png,34,0,0,0,2,5,1,"[9, 21, 31, 45, 56, 68, 69]",,,,,2,0,2,0,0,34,34,34,1007.07715,,,,,,,,,,,,,,,,,,,,,,,,,,,,,,,,,,,,,,1007.061113,1007.061216,1007.061229,1007.07715,1007.07715,1007.07715,1007.07715,1010.078621,1010.078621,1011.060019,1,1,0.922473957,0.174991917,None,1011.060539,1011.060596,None,1011.060689,1011.060721,None,1011.075025,1011.075025,,,,,,,,,,,1,5,0,0,2025-01-13_10h50.18.339,rtmindeye,2024.1.5,None,2025-01-13 10h50.36.639128 -0500
all_stimuli/special515/special_43224.jpg,35,0,0,0,2,5,1,"[9, 21, 31, 45, 56, 68, 69]",,,,,2,0,2,0,0,35,35,35,1011.075025,,,,,,,,,,,,,,,,,,,,,,,,,,,,,,,,,,,,,,1011.061099,1011.06119,1011.061206,1011.075025,1011.075025,1011.075025,1011.075025,1014.080196,1014.080196,1015.060033,1,1,0.871598416,0.1670015,None,1015.060391,1015.060427,None,1015.060485,1015.060504,None,1015.069714,1015.069714,,,,,,,,,,,1,5,0,0,2025-01-13_10h50.18.339,rtmindeye,2024.1.5,None,2025-01-13 10h50.36.639128 -0500
all_stimuli/special515/special_35986.jpg,36,0,0,0,2,5,1,"[9, 21, 31, 45, 56, 68, 69]",,,,,2,0,2,0,0,36,36,36,1015.069714,,,,,,,,,,,,,,,,,,,,,,,,,,,,,,,,,,,,,,1015.060721,1015.060787,1015.060798,1015.069714,1015.069714,1015.069714,1015.069714,1018.078573,1018.078573,1019.060154,1,1,1.150987166,0.1749195,None,1019.060665,1019.060725,None,1019.060819,1019.060851,None,1019.0761,1019.0761,,,,,,,,,,,1,5,0,0,2025-01-13_10h50.18.339,rtmindeye,2024.1.5,None,2025-01-13 10h50.36.639128 -0500
all_stimuli/shared1000_notspecial/notspecial_17463.png,37,0,0,0,2,5,1,"[9, 21, 31, 45, 56, 68, 69]",,,,,2,0,2,0,0,37,37,37,1019.0761,,,,,,,,,,,,,,,,,,,,,,,,,,,,,,,,,,,,,,1019.061196,1019.06129,1019.061303,1019.0761,1019.0761,1019.0761,1019.0761,1022.078934,1022.078934,1023.059955,1,1,0.987515916,0.166022667,None,1023.060405,1023.06045,None,1023.060523,1023.060547,None,1023.071501,1023.071501,,,,,,,,,,,1,5,0,0,2025-01-13_10h50.18.339,rtmindeye,2024.1.5,None,2025-01-13 10h50.36.639128 -0500
all_stimuli/MST_pairs1/pair_40_w_escalator1.jpg,38,0,1,0,2,5,1,"[9, 21, 31, 45, 56, 68, 69]",,,,,2,0,2,0,0,38,38,38,1023.071501,,,,,,,,,,,,,,,,,,,,,,,,,,,,,,,,,,,,,,1023.060818,1023.060888,1023.060898,1023.071501,1023.071501,1023.071501,1023.071501,1026.078517,1026.078517,1027.059971,2,1,0.973194832,0.179995709,None,1027.060553,1027.060615,None,1027.060713,1027.060745,None,1027.077411,1027.077411,,,,,,,,,,,1,5,0,0,2025-01-13_10h50.18.339,rtmindeye,2024.1.5,None,2025-01-13 10h50.36.639128 -0500
all_stimuli/MST_pairs1/pair_4_6_89.png,39,0,0,0,2,5,1,"[9, 21, 31, 45, 56, 68, 69]",,,,,2,0,2,0,0,39,39,39,1027.077411,,,,,,,,,,,,,,,,,,,,,,,,,,,,,,,,,,,,,,1027.061127,1027.06124,1027.061254,1027.077411,1027.077411,1027.077411,1027.077411,1030.063121,1030.063121,1031.060148,1,1,1.279362666,0.16986675,None,1031.060709,1031.060765,None,1031.060863,1031.060894,None,1031.086167,1031.086167,,,,,,,,,,,1,5,0,0,2025-01-13_10h50.18.339,rtmindeye,2024.1.5,None,2025-01-13 10h50.36.639128 -0500
all_stimuli/MST_pairs1/pair_28_nsd_547_2_cocoid_64169.png,40,0,0,0,2,5,1,"[9, 21, 31, 45, 56, 68, 69]",,,,,2,0,2,0,0,40,40,40,1031.086167,,,,,,,,,,,,,,,,,,,,,,,,,,,,,,,,,,,,,,1031.061263,1031.061355,1031.061369,1031.086167,1031.086167,1031.086167,1031.086167,1034.093318,1034.093318,1035.062979,1,1,1.15949725,0.146072708,None,1035.063398,1035.063449,None,1035.063522,1035.063546,None,,,,,,,,,,,,,1,5,0,0,2025-01-13_10h50.18.339,rtmindeye,2024.1.5,None,2025-01-13 10h50.36.639128 -0500
all_stimuli/special515/special_16344.jpg,41,0,0,0,2,5,1,"[9, 21, 31, 45, 56, 68, 69]",,,,,2,0,2,0,0,41,41,41,1035.093196,,,,,,,,,,,,,,,,,,,,,,,,,,,,,,,,,,,,,,1035.064067,1035.064147,1035.064157,1035.093196,1035.093196,1035.093196,1035.093196,1038.082834,1038.082834,1039.07653,1,1,0.849514916,0.188959833,None,1039.077159,1039.077229,None,1039.077344,1039.077384,None,,,,,,,,,,,,,1,5,0,0,2025-01-13_10h50.18.339,rtmindeye,2024.1.5,None,2025-01-13 10h50.36.639128 -0500
all_stimuli/special515/special_10244.jpg,42,0,1,0,2,5,1,"[9, 21, 31, 45, 56, 68, 69]",,,,,2,0,2,0,0,42,42,42,1039.09024,,,,,,,,,,,,,,,,,,,,,,,,,,,,,,,,,,,,,,1039.077815,1039.077932,1039.077949,1039.09024,1039.09024,1039.09024,1039.09024,1042.093414,1042.093414,1043.082391,2,1,1.211532999,0.16297925,None,1043.082816,1043.082859,None,1043.082923,1043.082945,None,,,,,,,,,,,,,1,5,0,0,2025-01-13_10h50.18.339,rtmindeye,2024.1.5,None,2025-01-13 10h50.36.639128 -0500
all_stimuli/special515/special_28068.jpg,43,0,1,0,2,5,1,"[9, 21, 31, 45, 56, 68, 69]",,,,,2,0,2,0,0,43,43,43,1043.092417,,,,,,,,,,,,,,,,,,,,,,,,,,,,,,,,,,,,,,1043.083198,1043.083294,1043.083303,1043.092417,1043.092417,1043.092417,1043.092417,1046.080939,1046.080939,1047.076672,1,0,1.198382791,0.170888084,None,1047.07721,1047.077271,None,1047.077382,1047.077413,None,1047.102623,1047.102623,,,,,,,,,,,1,5,0,0,2025-01-13_10h50.18.339,rtmindeye,2024.1.5,None,2025-01-13 10h50.36.639128 -0500
all_stimuli/MST_pairs1/pair_20_nsd_41_1_cocoid_15472.png,44,0,1,0,2,5,1,"[9, 21, 31, 45, 56, 68, 69]",,,,,2,0,2,0,0,44,44,44,1047.102623,,,,,,,,,,,,,,,,,,,,,,,,,,,,,,,,,,,,,,1047.077767,1047.077869,1047.077883,1047.102623,1047.102623,1047.102623,1047.102623,1050.095397,1050.095397,1051.07813,2,1,1.034197166,0.161916125,None,1051.079045,1051.079147,None,1051.079286,1051.079307,None,,,,,,,,,,,,,1,5,0,0,2025-01-13_10h50.18.339,rtmindeye,2024.1.5,None,2025-01-13 10h50.36.639128 -0500
blank.jpg,45,1,0,0,2,5,1,"[9, 21, 31, 45, 56, 68, 69]",,,,,2,0,2,0,0,45,45,45,1051.084191,,,,,,,,,,,,,,,,,,,,,,,,,,,,,,,,,,,,,,1051.079531,1051.079602,1051.07961,1051.084191,1051.084191,1051.084191,1051.084191,1054.080254,1054.080254,1055.076903,None,0,,,None,1055.077236,1055.077284,None,1055.077368,1055.077397,None,1055.091683,1055.091683,,,,,,,,,,,1,5,0,0,2025-01-13_10h50.18.339,rtmindeye,2024.1.5,None,2025-01-13 10h50.36.639128 -0500
all_stimuli/shared1000_notspecial/notspecial_55680.png,46,0,0,0,2,5,1,"[9, 21, 31, 45, 56, 68, 69]",,,,,2,0,2,0,0,46,46,46,1055.091683,,,,,,,,,,,,,,,,,,,,,,,,,,,,,,,,,,,,,,1055.07772,1055.077797,1055.077808,1055.091683,1055.091683,1055.091683,1055.091683,1058.093165,1058.093165,1059.076823,1,1,1.003072625,0.174959166,None,1059.077341,1059.077398,None,1059.077493,1059.077524,None,1059.090159,1059.090159,,,,,,,,,,,1,5,0,0,2025-01-13_10h50.18.339,rtmindeye,2024.1.5,None,2025-01-13 10h50.36.639128 -0500
all_stimuli/shared1000_notspecial/notspecial_5878.png,47,0,0,0,2,5,1,"[9, 21, 31, 45, 56, 68, 69]",,,,,2,0,2,0,0,47,47,47,1059.090159,,,,,,,,,,,,,,,,,,,,,,,,,,,,,,,,,,,,,,1059.07787,1059.077972,1059.077986,1059.090159,1059.090159,1059.090159,1059.090159,1062.093364,1062.093364,1063.076701,1,1,0.86668525,0.166982583,None,1063.077215,1063.077272,None,1063.077366,1063.077398,None,1063.09143,1063.09143,,,,,,,,,,,1,5,0,0,2025-01-13_10h50.18.339,rtmindeye,2024.1.5,None,2025-01-13 10h50.36.639128 -0500
all_stimuli/special515/special_55678.jpg,48,0,1,0,2,5,1,"[9, 21, 31, 45, 56, 68, 69]",,,,,2,0,2,0,0,48,48,48,1063.09143,,,,,,,,,,,,,,,,,,,,,,,,,,,,,,,,,,,,,,1063.07777,1063.077862,1063.077876,1063.09143,1063.09143,1063.09143,1063.09143,1066.081186,1066.081186,1067.078496,2,1,1.100402124,0.187923042,None,1067.07932,1067.079414,None,1067.079548,1067.079596,None,,,,,,,,,,,,,1,5,0,0,2025-01-13_10h50.18.339,rtmindeye,2024.1.5,None,2025-01-13 10h50.36.639128 -0500
all_stimuli/MST_pairs1/pair_4_6_44.png,49,0,1,0,2,5,1,"[9, 21, 31, 45, 56, 68, 69]",,,,,2,0,2,0,0,49,49,49,1067.095487,,,,,,,,,,,,,,,,,,,,,,,,,,,,,,,,,,,,,,1067.080217,1067.080447,1067.080477,1067.095487,1067.095487,1067.095487,1067.095487,1070.0812,1070.0812,1071.080125,2,1,0.912318749,0.182082709,None,1071.080638,1071.080692,None,1071.080776,1071.080805,None,1071.096597,1071.096597,,,,,,,,,,,1,5,0,0,2025-01-13_10h50.18.339,rtmindeye,2024.1.5,None,2025-01-13 10h50.36.639128 -0500
all_stimuli/shared1000_notspecial/notspecial_64893.png,50,0,0,0,2,5,1,"[9, 21, 31, 45, 56, 68, 69]",,,,,2,0,2,0,0,50,50,50,1071.096597,,,,,,,,,,,,,,,,,,,,,,,,,,,,,,,,,,,,,,1071.081134,1071.081213,1071.081224,1071.096597,1071.096597,1071.096597,1071.096597,1074.093332,1074.093332,1075.09346,1,1,1.304240874,0.169057458,None,1075.09391,1075.093956,None,1075.094031,1075.094056,None,,,,,,,,,,,,,1,5,0,0,2025-01-13_10h50.18.339,rtmindeye,2024.1.5,None,2025-01-13 10h50.36.639128 -0500
all_stimuli/special515/special_38246.jpg,51,0,1,0,2,5,1,"[9, 21, 31, 45, 56, 68, 69]",,,,,2,0,2,0,0,51,51,51,1075.107269,,,,,,,,,,,,,,,,,,,,,,,,,,,,,,,,,,,,,,1075.094357,1075.094438,1075.094451,1075.107269,1075.107269,1075.107269,1075.107269,1078.096543,1078.096543,1079.093895,1,0,0.835627166,0.18099425,None,1079.094529,1079.0946,None,1079.094715,1079.094754,None,1079.107021,1079.107021,,,,,,,,,,,1,5,0,0,2025-01-13_10h50.18.339,rtmindeye,2024.1.5,None,2025-01-13 10h50.36.639128 -0500
