current_image,trial_index,is_blank_trial,thisN,thisTrialN,thisRepN,press_if_repeat_2.keys,press_if_repeat_2.corr,all_keys_pressed_2.keys,is_repeat,is_new_run,run_num,sess_num,is_not_last_trial,all_blanks_list,press_if_repeat.keys,press_if_repeat.corr,press_if_repeat.rt,press_if_repeat.duration,all_keys_pressed.keys,key_resp_5.keys,key_resp_4.keys,key_resp_5.rt,key_resp_5.duration,key_resp_4.rt,key_resp_4.duration,all_keys_pressed.rt,all_keys_pressed.duration,practice.thisRepN,practice.thisTrialN,practice.thisN,practice.thisIndex,loop_runs.thisRepN,loop_runs.thisTrialN,loop_runs.thisN,loop_runs.thisIndex,loop_all_images.thisRepN,loop_all_images.thisTrialN,loop_all_images.thisN,loop_all_images.thisIndex,thisRow.t,notes,set_up.started,set_up.stopped,practice_continue.started,practice_continue.stopped,key_resp_6.keys,practice_trial.started,practice_trial.stopped,practice.press_if_repeat_2.keys,practice.press_if_repeat_2.corr,practice.all_keys_pressed_2.keys,testing_continue.started,testing_continue.stopped,key_resp_7.keys,waiting_fmri.started,key_resp_2.started,text_3.started,waiting_fmri.stopped,key_resp_2.keys,key_resp_2.rt,key_resp_2.duration,set_skips_and_correct_key.started,set_skips_and_correct_key.stopped,trial.started,image.started,press_if_repeat.started,polygon.started,all_keys_pressed.started,image.stopped,press_if_repeat.stopped,trial.stopped,loop_all_images.press_if_repeat.keys,loop_all_images.press_if_repeat.corr,loop_all_images.press_if_repeat.rt,loop_all_images.press_if_repeat.duration,loop_all_images.all_keys_pressed.keys,run_wait2_2.started,run_wait2_2.stopped,loop_all_images.key_resp_5.keys,waiting_fmri_2.started,waiting_fmri_2.stopped,loop_all_images.key_resp_4.keys,polygon.stopped,all_keys_pressed.stopped,key_resp_5.started,text_5.started,loop_all_images.key_resp_5.rt,loop_all_images.key_resp_5.duration,key_resp_4.started,text_4.started,loop_all_images.key_resp_4.rt,loop_all_images.key_resp_4.duration,loop_all_images.all_keys_pressed.rt,loop_all_images.all_keys_pressed.duration,participant,session (1 2 or 3),starting_run,skip_practice,date,expName,psychopyVersion,frameRate,expStart,
,,,,,,,,,,,,,,,,,,,,,,,,,,,,,,,,,,,,,,,,,,0.0017673000111244619,0.0018293000175617635,,,,,,,,,,,,,,,,,,,,,,,,,,,,,,,,,,,,,,,,,,,,,,,,,,,,8,2,0,1,2025-06-12_13h57.51.429,rtmindeye,2024.2.4,59.94305410113286,2025-06-12 13h58.35.370073 -0400,
,,,,,,,,,,,,,,,,,,,,,,,,,,,,,,,,,,,,,,,,,,,,0.006426800013286993,0.006454300018958747,None,,,,,,,,,,,,,,,,,,,,,,,,,,,,,,,,,,,,,,,,,,,,,,,,,8,2,0,1,2025-06-12_13h57.51.429,rtmindeye,2024.2.4,59.94305410113286,2025-06-12 13h58.35.370073 -0400,
practice_images/w_kitchen2.jpg,0,0,0,0,0,None,0,None,,,,,,,,,,,,,,,,,,,,0,0,0,0,,,,,,,,,0.23472900001797825,,,,,,,0.05389750000904314,0.05393950000870973,None,0,None,,,,,,,,,,,,,,,,,,,,,,,,,,,,,,,,,,,,,,,,,,,,8,2,0,1,2025-06-12_13h57.51.429,rtmindeye,2024.2.4,59.94305410113286,2025-06-12 13h58.35.370073 -0400,
practice_images/w_boardwalk2.jpg,1,0,1,1,0,None,0,None,,,,,,,,,,,,,,,,,,,,0,1,1,1,,,,,,,,,0.23472900001797825,,,,,,,0.06721210002433509,0.0672451000136789,None,0,None,,,,,,,,,,,,,,,,,,,,,,,,,,,,,,,,,,,,,,,,,,,,8,2,0,1,2025-06-12_13h57.51.429,rtmindeye,2024.2.4,59.94305410113286,2025-06-12 13h58.35.370073 -0400,
practice_images/w_monument2.jpg,2,0,2,2,0,None,0,None,,,,,,,,,,,,,,,,,,,,0,2,2,2,,,,,,,,,0.23472900001797825,,,,,,,0.09043830001610331,0.09047200001077726,None,0,None,,,,,,,,,,,,,,,,,,,,,,,,,,,,,,,,,,,,,,,,,,,,8,2,0,1,2025-06-12_13h57.51.429,rtmindeye,2024.2.4,59.94305410113286,2025-06-12 13h58.35.370073 -0400,
practice_images/w_auditorium2.jpg,3,0,3,3,0,None,0,None,,,,,,,,,,,,,,,,,,,,0,3,3,3,,,,,,,,,0.23472900001797825,,,,,,,0.11876420001499355,0.11879629999748431,None,0,None,,,,,,,,,,,,,,,,,,,,,,,,,,,,,,,,,,,,,,,,,,,,8,2,0,1,2025-06-12_13h57.51.429,rtmindeye,2024.2.4,59.94305410113286,2025-06-12 13h58.35.370073 -0400,
practice_images/w_kitchen2.jpg,4,0,4,4,0,None,0,None,,,,,,,,,,,,,,,,,,,,0,4,4,4,,,,,,,,,0.23472900001797825,,,,,,,0.12366569999721833,0.12369850001414306,None,0,None,,,,,,,,,,,,,,,,,,,,,,,,,,,,,,,,,,,,,,,,,,,,8,2,0,1,2025-06-12_13h57.51.429,rtmindeye,2024.2.4,59.94305410113286,2025-06-12 13h58.35.370073 -0400,
practice_images/w_auditorium1.jpg,5,0,5,5,0,None,0,None,,,,,,,,,,,,,,,,,,,,0,5,5,5,,,,,,,,,0.23472900001797825,,,,,,,0.14963440000428818,0.14966480000293814,None,0,None,,,,,,,,,,,,,,,,,,,,,,,,,,,,,,,,,,,,,,,,,,,,8,2,0,1,2025-06-12_13h57.51.429,rtmindeye,2024.2.4,59.94305410113286,2025-06-12 13h58.35.370073 -0400,
practice_images/w_bedroom2.jpg,6,0,6,6,0,None,0,None,,,,,,,,,,,,,,,,,,,,0,6,6,6,,,,,,,,,0.23472900001797825,,,,,,,0.18262249999679625,0.1826539000030607,None,0,None,,,,,,,,,,,,,,,,,,,,,,,,,,,,,,,,,,,,,,,,,,,,8,2,0,1,2025-06-12_13h57.51.429,rtmindeye,2024.2.4,59.94305410113286,2025-06-12 13h58.35.370073 -0400,
practice_images/w_kitchen1.jpg,7,0,7,7,0,None,0,None,,,,,,,,,,,,,,,,,,,,0,7,7,7,,,,,,,,,0.23472900001797825,,,,,,,0.20923070001299493,0.20926699999836273,None,0,None,,,,,,,,,,,,,,,,,,,,,,,,,,,,,,,,,,,,,,,,,,,,8,2,0,1,2025-06-12_13h57.51.429,rtmindeye,2024.2.4,59.94305410113286,2025-06-12 13h58.35.370073 -0400,
practice_images/w_bedroom1.jpg,8,0,8,8,0,None,0,None,,,,,,,,,,,,,,,,,,,,0,8,8,8,,,,,,,,,0.23472900001797825,,,,,,,0.22200599999632686,0.2220489000028465,None,0,None,,,,,,,,,,,,,,,,,,,,,,,,,,,,,,,,,,,,,,,,,,,,8,2,0,1,2025-06-12_13h57.51.429,rtmindeye,2024.2.4,59.94305410113286,2025-06-12 13h58.35.370073 -0400,
practice_images/w_monument2.jpg,9,0,9,9,0,None,0,None,,,,,,,,,,,,,,,,,,,,0,9,9,9,,,,,,,,,0.23472900001797825,,,,,,,0.2265934000024572,0.22663370001828298,None,0,None,,,,,,,,,,,,,,,,,,,,,,,,,,,,,,,,,,,,,,,,,,,,8,2,0,1,2025-06-12_13h57.51.429,rtmindeye,2024.2.4,59.94305410113286,2025-06-12 13h58.35.370073 -0400,
,,,,,,,,,,,,,,,,,,,,,,,,,,,,,,,,,,,,,,,,,,,,,,,,,,,,0.23240690000238828,0.2324316000158433,None,,,,,,,,,,,,,,,,,,,,,,,,,,,,,,,,,,,,,,,,,8,2,0,1,2025-06-12_13h57.51.429,rtmindeye,2024.2.4,59.94305410113286,2025-06-12 13h58.35.370073 -0400,
,,,,,,,,,,,,,,,,,,,,,,,,,,,,,,,,,,,,,,,,,,,,,,,,,,,,,,,0.23245500001939945,0.23472900001797825,0.23472900001797825,75.27348860001075,equal,75.02234529997804,None,,,,,,,,,,,,,,,,,,,,,,,,,,,,,,,,,,8,2,0,1,2025-06-12_13h57.51.429,rtmindeye,2024.2.4,59.94305410113286,2025-06-12 13h58.35.370073 -0400,
all_stimuli/special515/special_13613.jpg,0,0,0,0,0,,,,0,0,0,2,1,"[9, 21, 31, 45, 56, 68, 69]",1,1,1.3351794999907725,0.3240067000151612,None,None,None,,,,,,,,,,,0,0,0,0,0,0,0,0,75.36683350001113,,,,,,,,,,,,,,,,,,,,,,75.32513160002418,75.32523350001429,75.36237010001787,75.36683350001113,75.36683350001113,75.36683350001113,75.36683350001113,78.37810349999927,78.37810349999927,79.32833800002118,1,1,1.3351794999907725,0.3240067000151612,None,79.32841010001721,79.32843580000917,None,79.32845840000664,79.32847590002348,None,,,,,,,,,,,,,8,2,0,1,2025-06-12_13h57.51.429,rtmindeye,2024.2.4,59.94305410113286,2025-06-12 13h58.35.370073 -0400,
all_stimuli/shared1000_notspecial/notspecial_31049.png,1,0,1,1,0,,,,0,0,0,2,1,"[9, 21, 31, 45, 56, 68, 69]",1,1,0.9942225000122562,0.4199067000008654,None,None,None,,,,,,,,,,,0,0,0,0,0,1,1,1,79.34674600002472,,,,,,,,,,,,,,,,,,,,,,79.3286316000158,79.3286752999993,79.34507050001412,79.34674600002472,79.34674600002472,79.34674600002472,79.34674600002472,82.36136700000498,82.36136700000498,83.34437259999686,1,1,0.9942225000122562,0.4199067000008654,None,83.3444408000214,83.34446250001201,None,83.34448560001329,83.34450259999721,None,,,,,,,,,,,,,8,2,0,1,2025-06-12_13h57.51.429,rtmindeye,2024.2.4,59.94305410113286,2025-06-12 13h58.35.370073 -0400,
all_stimuli/special515/special_28096.jpg,2,0,2,2,0,,,,0,0,0,2,1,"[9, 21, 31, 45, 56, 68, 69]",1,1,0.7440763999766205,0.3009485000220593,None,None,None,,,,,,,,,,,0,0,0,0,0,2,2,2,83.36294690001523,,,,,,,,,,,,,,,,,,,,,,83.3446483000007,83.34469190001255,83.3603085000068,83.36294690001523,83.36294690001523,83.36294690001523,83.36294690001523,86.3780112999957,86.3780112999957,87.36110629999894,1,1,0.7440763999766205,0.3009485000220593,None,87.36117489999742,87.36119680001866,None,87.36122010002146,87.36123740000767,None,,,,,,,,,,,,,8,2,0,1,2025-06-12_13h57.51.429,rtmindeye,2024.2.4,59.94305410113286,2025-06-12 13h58.35.370073 -0400,
all_stimuli/shared1000_notspecial/notspecial_68471.png,3,0,3,3,0,,,,0,0,0,2,1,"[9, 21, 31, 45, 56, 68, 69]",1,1,0.88287400000263,0.4299710000050254,None,None,None,,,,,,,,,,,0,0,0,0,0,3,3,3,87.38924430002226,,,,,,,,,,,,,,,,,,,,,,87.36138630000642,87.36143070002436,87.38756870001089,87.38924430002226,87.38924430002226,87.38924430002226,87.38924430002226,90.39463340002112,90.39463340002112,91.37808900000528,1,1,0.88287400000263,0.4299710000050254,None,91.37815810000757,91.37817979999818,None,91.3782033000025,91.37822110002162,None,,,,,,,,,,,,,8,2,0,1,2025-06-12_13h57.51.429,rtmindeye,2024.2.4,59.94305410113286,2025-06-12 13h58.35.370073 -0400,
all_stimuli/special515/special_15506.jpg,4,0,4,4,0,,,,0,0,0,2,1,"[9, 21, 31, 45, 56, 68, 69]",1,1,0.8679493000090588,0.45819269999628887,None,None,None,,,,,,,,,,,0,0,0,0,0,4,4,4,91.39499170001363,,,,,,,,,,,,,,,,,,,,,,91.37836860000971,91.37841180001851,91.3932692000235,91.39499170001363,91.39499170001363,91.39499170001363,91.39499170001363,94.39453200000571,94.39453200000571,95.37811150000198,1,1,0.8679493000090588,0.45819269999628887,None,95.37817460001679,95.37819560000207,None,95.37821840000106,95.37823530001333,None,95.67991500001517,95.67991500001517,,,,,,,,,,,8,2,0,1,2025-06-12_13h57.51.429,rtmindeye,2024.2.4,59.94305410113286,2025-06-12 13h58.35.370073 -0400,
all_stimuli/MST_pairs1/pair_24_nsd_158_1_cocoid_2285.png,5,0,5,5,0,,,,0,0,0,2,1,"[9, 21, 31, 45, 56, 68, 69]",1,1,0.8471718000073452,0.3768264999962412,None,None,None,,,,,,,,,,,0,0,0,0,0,5,5,5,95.67991500001517,,,,,,,,,,,,,,,,,,,,,,95.37838020001072,95.37842230001115,95.67572749999817,95.67991500001517,95.67991500001517,95.67991500001517,95.67991500001517,98.69452040002216,98.69452040002216,99.3946588000108,1,1,0.8471718000073452,0.3768264999962412,None,99.39472760001081,99.39474990000599,None,99.39477400001488,99.39479120000033,None,,,,,,,,,,,,,8,2,0,1,2025-06-12_13h57.51.429,rtmindeye,2024.2.4,59.94305410113286,2025-06-12 13h58.35.370073 -0400,
all_stimuli/MST_pairs1/pair_10_14_89.png,6,0,6,6,0,,,,0,0,0,2,1,"[9, 21, 31, 45, 56, 68, 69]",1,1,1.0469979000044987,0.41115200001513585,None,None,None,,,,,,,,,,,0,0,0,0,0,6,6,6,99.41590220000944,,,,,,,,,,,,,,,,,,,,,,99.39493700000457,99.39498080001795,99.41424420001567,99.41590220000944,99.41590220000944,99.41590220000944,99.41590220000944,102.42765620001592,102.42765620001592,103.41137549999985,1,1,1.0469979000044987,0.41115200001513585,None,103.41144520000671,103.41146640002262,None,103.41148890001932,103.41150640000706,None,,,,,,,,,,,,,8,2,0,1,2025-06-12_13h57.51.429,rtmindeye,2024.2.4,59.94305410113286,2025-06-12 13h58.35.370073 -0400,
all_stimuli/special515/special_62015.jpg,7,0,7,7,0,,,,0,0,0,2,1,"[9, 21, 31, 45, 56, 68, 69]",1,1,1.1671079999941867,0.31006789999082685,None,None,None,,,,,,,,,,,0,0,0,0,0,7,7,7,103.42776650001178,,,,,,,,,,,,,,,,,,,,,,103.41165449999971,103.41169770000852,103.42547499999637,103.42776650001178,103.42776650001178,103.42776650001178,103.42776650001178,106.42790440001409,106.42790440001409,107.4111816000077,1,1,1.1671079999941867,0.31006789999082685,None,107.41124800001853,107.41126870000153,None,107.41129210000508,107.41130920001888,None,107.44036560002132,107.44036560002132,,,,,,,,,,,8,2,0,1,2025-06-12_13h57.51.429,rtmindeye,2024.2.4,59.94305410113286,2025-06-12 13h58.35.370073 -0400,
all_stimuli/special515/special_47687.jpg,8,0,8,8,0,,,,0,0,0,2,1,"[9, 21, 31, 45, 56, 68, 69]",1,1,1.2116478999960236,0.37288310000440106,None,None,None,,,,,,,,,,,0,0,0,0,0,8,8,8,107.44036560002132,,,,,,,,,,,,,,,,,,,,,,107.41145929999766,107.4114974999975,107.43846640002448,107.44036560002132,107.44036560002132,107.44036560002132,107.44036560002132,110.44475450000027,110.44475450000027,111.42770190001465,1,1,1.2116478999960236,0.37288310000440106,None,111.42776950000552,111.42779090002296,None,111.42781459999969,111.42783180001425,None,,,,,,,,,,,,,8,2,0,1,2025-06-12_13h57.51.429,rtmindeye,2024.2.4,59.94305410113286,2025-06-12 13h58.35.370073 -0400,
blank.jpg,9,1,9,9,0,,,,0,0,0,2,1,"[9, 21, 31, 45, 56, 68, 69]",None,0,,,None,None,None,,,,,,,,,,,0,0,0,0,0,9,9,9,111.4446582000237,,,,,,,,,,,,,,,,,,,,,,111.42797620000783,111.42801990002044,111.43785410001874,111.4446582000237,111.4446582000237,111.4446582000237,111.4446582000237,114.44431910000276,114.44431910000276,115.42811150001944,None,0,,,None,115.42817910001031,115.42820100000245,None,115.42822560001514,115.42824310000287,None,,,,,,,,,,,,,8,2,0,1,2025-06-12_13h57.51.429,rtmindeye,2024.2.4,59.94305410113286,2025-06-12 13h58.35.370073 -0400,
all_stimuli/special515/special_4249.jpg,10,0,10,10,0,,,,0,0,0,2,1,"[9, 21, 31, 45, 56, 68, 69]",1,1,1.0214944999897853,0.36188470001798123,None,None,None,,,,,,,,,,,0,0,0,0,0,10,10,10,115.44446290002088,,,,,,,,,,,,,,,,,,,,,,115.4283923000039,115.4284350000089,115.44206820000545,115.44446290002088,115.44446290002088,115.44446290002088,115.44446290002088,118.44459160001134,118.44459160001134,119.42828560000635,1,1,1.0214944999897853,0.36188470001798123,None,119.4283486000204,119.42836910000187,None,119.42839270000695,119.4284094000177,None,119.44432000000961,119.44432000000961,,,,,,,,,,,8,2,0,1,2025-06-12_13h57.51.429,rtmindeye,2024.2.4,59.94305410113286,2025-06-12 13h58.35.370073 -0400,
all_stimuli/special515/special_54361.jpg,11,0,11,11,0,,,,0,0,0,2,1,"[9, 21, 31, 45, 56, 68, 69]",1,1,0.7014802999910899,0.5242137000022922,None,None,None,,,,,,,,,,,0,0,0,0,0,11,11,11,119.44432000000961,,,,,,,,,,,,,,,,,,,,,,119.42855340000824,119.42860280000605,119.44101320000482,119.44432000000961,119.44432000000961,119.44432000000961,119.44432000000961,122.44470740001998,122.44470740001998,123.42810630000895,1,1,0.7014802999910899,0.5242137000022922,None,123.42816780001158,123.42818800001987,None,123.42821179999737,123.42822860000888,None,123.44458300000406,123.44458300000406,,,,,,,,,,,8,2,0,1,2025-06-12_13h57.51.429,rtmindeye,2024.2.4,59.94305410113286,2025-06-12 13h58.35.370073 -0400,
all_stimuli/special515/special_6489.jpg,12,0,12,12,0,,,,0,0,0,2,1,"[9, 21, 31, 45, 56, 68, 69]",1,1,0.8144470000115689,0.4229064999963157,None,None,None,,,,,,,,,,,0,0,0,0,0,12,12,12,123.44458300000406,,,,,,,,,,,,,,,,,,,,,,123.4283711000171,123.42841400002362,123.44287870000699,123.44458300000406,123.44458300000406,123.44458300000406,123.44458300000406,126.44460400001844,126.44460400001844,127.42821110002114,1,1,0.8144470000115689,0.4229064999963157,None,127.42827550001675,127.42829680000432,None,127.42831980000483,127.42833680001786,None,127.45844220000436,127.45844220000436,,,,,,,,,,,8,2,0,1,2025-06-12_13h57.51.429,rtmindeye,2024.2.4,59.94305410113286,2025-06-12 13h58.35.370073 -0400,
all_stimuli/special515/special_38641.jpg,13,0,13,13,0,,,,0,0,0,2,1,"[9, 21, 31, 45, 56, 68, 69]",1,1,0.8085453000094276,0.5259994000080042,None,None,None,,,,,,,,,,,0,0,0,0,0,13,13,13,127.45844220000436,,,,,,,,,,,,,,,,,,,,,,127.42848540001432,127.42852410001797,127.4565838999988,127.45844220000436,127.45844220000436,127.45844220000436,127.45844220000436,130.46132370000123,130.46132370000123,131.44465290001244,1,1,0.8085453000094276,0.5259994000080042,None,131.44472090000636,131.4447427999985,None,131.44476690000738,131.44478449999588,None,,,,,,,,,,,,,8,2,0,1,2025-06-12_13h57.51.429,rtmindeye,2024.2.4,59.94305410113286,2025-06-12 13h58.35.370073 -0400,
all_stimuli/shared1000_notspecial/notspecial_67168.png,14,0,14,14,0,,,,0,0,0,2,1,"[9, 21, 31, 45, 56, 68, 69]",1,1,0.911324099986814,0.48402299999725074,None,None,None,,,,,,,,,,,0,0,0,0,0,14,14,14,131.46164290001616,,,,,,,,,,,,,,,,,,,,,,131.44493359999615,131.44497760001104,131.45998730001156,131.46164290001616,131.46164290001616,131.46164290001616,131.46164290001616,134.46124990002136,134.46124990002136,135.44481300000916,1,1,0.911324099986814,0.48402299999725074,None,135.44487850001315,135.4448992999969,None,135.44492290000198,135.44493980001425,None,135.47968080002465,135.47968080002465,,,,,,,,,,,8,2,0,1,2025-06-12_13h57.51.429,rtmindeye,2024.2.4,59.94305410113286,2025-06-12 13h58.35.370073 -0400,
all_stimuli/shared1000_notspecial/notspecial_59079.png,15,0,15,15,0,,,,0,0,0,2,1,"[9, 21, 31, 45, 56, 68, 69]",1,1,1.1723846000095364,0.47104909998597577,None,None,None,,,,,,,,,,,0,0,0,0,0,15,15,15,135.47968080002465,,,,,,,,,,,,,,,,,,,,,,135.44509419999667,135.4451340000087,135.47806680001668,135.47968080002465,135.47968080002465,135.47968080002465,135.47968080002465,138.4945784000156,138.4945784000156,139.46149770001648,1,1,1.1723846000095364,0.47104909998597577,None,139.46156779999728,139.4615890000132,None,139.46161240001675,139.46162970000296,None,,,,,,,,,,,,,8,2,0,1,2025-06-12_13h57.51.429,rtmindeye,2024.2.4,59.94305410113286,2025-06-12 13h58.35.370073 -0400,
all_stimuli/MST_pairs1/pair_2_4_89.png,16,0,16,16,0,,,,0,0,0,2,1,"[9, 21, 31, 45, 56, 68, 69]",1,1,0.8249809000117239,0.6277663999935612,None,None,None,,,,,,,,,,,0,0,0,0,0,16,16,16,139.4780525000242,,,,,,,,,,,,,,,,,,,,,,139.46177950000856,139.4618229000189,139.47638279999956,139.4780525000242,139.4780525000242,139.4780525000242,139.4780525000242,142.47781540002325,142.47781540002325,143.46144140002434,1,1,0.8249809000117239,0.6277663999935612,None,143.46150610002223,143.46152730000904,None,143.4615515000187,143.4615688000049,None,143.4870034000196,143.4870034000196,,,,,,,,,,,8,2,0,1,2025-06-12_13h57.51.429,rtmindeye,2024.2.4,59.94305410113286,2025-06-12 13h58.35.370073 -0400,
all_stimuli/shared1000_notspecial/notspecial_26127.png,17,0,17,17,0,,,,0,0,0,2,1,"[9, 21, 31, 45, 56, 68, 69]",1,1,0.9179709000163712,0.3958998000016436,None,None,None,,,,,,,,,,,0,0,0,0,0,17,17,17,143.4870034000196,,,,,,,,,,,,,,,,,,,,,,143.46172230000957,143.46176200002083,143.48532340000384,143.4870034000196,143.4870034000196,143.4870034000196,143.4870034000196,146.49450840000645,146.49450840000645,147.47794710000744,1,1,0.9179709000163712,0.3958998000016436,None,147.4780171000166,147.47803840000415,None,147.47806140000466,147.47807850001846,None,,,,,,,,,,,,,8,2,0,1,2025-06-12_13h57.51.429,rtmindeye,2024.2.4,59.94305410113286,2025-06-12 13h58.35.370073 -0400,
all_stimuli/shared1000_notspecial/notspecial_20223.png,18,0,18,18,0,,,,0,0,0,2,1,"[9, 21, 31, 45, 56, 68, 69]",1,1,0.919053099991288,0.31797370000276715,None,None,None,,,,,,,,,,,0,0,0,0,0,18,18,18,147.50392370001646,,,,,,,,,,,,,,,,,,,,,,147.47822650001035,147.4782705999969,147.50232349999715,147.50392370001646,147.50392370001646,147.50392370001646,147.50392370001646,150.51105420000385,150.51105420000385,151.49469030002365,1,1,0.919053099991288,0.31797370000276715,None,151.49476040000445,151.49478219999583,None,151.49480620000395,151.4948234000185,None,,,,,,,,,,,,,8,2,0,1,2025-06-12_13h57.51.429,rtmindeye,2024.2.4,59.94305410113286,2025-06-12 13h58.35.370073 -0400,
all_stimuli/special515/special_62015.jpg,19,0,19,19,0,,,,1,0,0,2,1,"[9, 21, 31, 45, 56, 68, 69]",2,1,1.2948292999935802,0.3578988000226673,None,None,None,,,,,,,,,,,0,0,0,0,0,19,19,19,151.51109410001663,,,,,,,,,,,,,,,,,,,,,,151.49497180001345,151.4950155999977,151.50639250001404,151.51109410001663,151.51109410001663,151.51109410001663,151.51109410001663,154.51092400000198,154.51092400000198,155.49472129999776,2,1,1.2948292999935802,0.3578988000226673,None,155.49478440001258,155.49480929999845,None,155.49483280000277,155.49484970001504,None,155.51103039999725,155.51103039999725,,,,,,,,,,,8,2,0,1,2025-06-12_13h57.51.429,rtmindeye,2024.2.4,59.94305410113286,2025-06-12 13h58.35.370073 -0400,
all_stimuli/special515/special_10244.jpg,20,0,20,20,0,,,,0,0,0,2,1,"[9, 21, 31, 45, 56, 68, 69]",1,1,1.0578870000026654,0.3720192000037059,None,None,None,,,,,,,,,,,0,0,0,0,0,20,20,20,155.51103039999725,,,,,,,,,,,,,,,,,,,,,,155.49499430001015,155.49503370001912,155.5091195999994,155.51103039999725,155.51103039999725,155.51103039999725,155.51103039999725,158.5112246000208,158.5112246000208,159.49467510002432,1,1,1.0578870000026654,0.3720192000037059,None,159.49473840001156,159.49475929999608,None,159.4947822999966,159.49479900000733,None,159.5111480000196,159.5111480000196,,,,,,,,,,,8,2,0,1,2025-06-12_13h57.51.429,rtmindeye,2024.2.4,59.94305410113286,2025-06-12 13h58.35.370073 -0400,
blank.jpg,21,1,21,21,0,,,,0,0,0,2,1,"[9, 21, 31, 45, 56, 68, 69]",None,0,,,None,None,None,,,,,,,,,,,0,0,0,0,0,21,21,21,159.5111480000196,,,,,,,,,,,,,,,,,,,,,,159.49494250002317,159.49498420002055,159.5038465000107,159.5111480000196,159.5111480000196,159.5111480000196,159.5111480000196,162.51123120001284,162.51123120001284,163.49459680001019,None,0,,,None,163.49465570002212,163.49467610000283,None,163.4946995000064,163.49471620001714,None,163.5305261000176,163.5305261000176,,,,,,,,,,,8,2,0,1,2025-06-12_13h57.51.429,rtmindeye,2024.2.4,59.94305410113286,2025-06-12 13h58.35.370073 -0400,
all_stimuli/special515/special_28524.jpg,22,0,22,22,0,,,,0,0,0,2,1,"[9, 21, 31, 45, 56, 68, 69]",1,1,0.7584721999883186,0.4298127999936696,None,None,None,,,,,,,,,,,0,0,0,0,0,22,22,22,163.5305261000176,,,,,,,,,,,,,,,,,,,,,,163.4948604000092,163.49489810000523,163.528638400021,163.5305261000176,163.5305261000176,163.5305261000176,163.5305261000176,166.54456910002045,166.54456910002045,167.51127990000532,1,1,0.7584721999883186,0.4298127999936696,None,167.5113511000236,167.51137370002107,None,167.51139719999628,167.51141470001312,None,,,,,,,,,,,,,8,2,0,1,2025-06-12_13h57.51.429,rtmindeye,2024.2.4,59.94305410113286,2025-06-12 13h58.35.370073 -0400,
all_stimuli/special515/special_30430.jpg,23,0,23,23,0,,,,0,0,0,2,1,"[9, 21, 31, 45, 56, 68, 69]",1,1,0.7872135000070557,0.7090090000128839,None,None,None,,,,,,,,,,,0,0,0,0,0,23,23,23,167.5276576000033,,,,,,,,,,,,,,,,,,,,,,167.51157220001915,167.51161620000494,167.5249829000095,167.5276576000033,167.5276576000033,167.5276576000033,167.5276576000033,170.52781940001296,170.52781940001296,171.51111380002112,1,1,0.7872135000070557,0.7090090000128839,None,171.51117780001368,171.51119830002426,None,171.5112214999972,171.51123850001022,None,171.52847499999916,171.52847499999916,,,,,,,,,,,8,2,0,1,2025-06-12_13h57.51.429,rtmindeye,2024.2.4,59.94305410113286,2025-06-12 13h58.35.370073 -0400,
all_stimuli/MST_pairs1/pair_10_14_33.png,24,0,24,24,0,,,,0,0,0,2,1,"[9, 21, 31, 45, 56, 68, 69]",2,0,2.1965593000059016,0.369021899998188,None,None,None,,,,,,,,,,,0,0,0,0,0,24,24,24,171.52847499999916,,,,,,,,,,,,,,,,,,,,,,171.51138280000305,171.51142059999984,171.52682260001893,171.52847499999916,171.52847499999916,171.52847499999916,171.52847499999916,174.52792620001128,174.52792620001128,175.511353400012,2,0,2.1965593000059016,0.369021899998188,None,175.51141980002285,175.51144120001118,None,175.51146450001397,175.51148129999638,None,175.5446246000065,175.5446246000065,,,,,,,,,,,8,2,0,1,2025-06-12_13h57.51.429,rtmindeye,2024.2.4,59.94305410113286,2025-06-12 13h58.35.370073 -0400,
all_stimuli/shared1000_notspecial/notspecial_10907.png,25,0,25,25,0,,,,0,0,0,2,1,"[9, 21, 31, 45, 56, 68, 69]",1,1,0.8952679999929387,0.41904239999712445,None,None,None,,,,,,,,,,,0,0,0,0,0,25,25,25,175.5446246000065,,,,,,,,,,,,,,,,,,,,,,175.51163290001568,175.51167130001704,175.5429918000009,175.5446246000065,175.5446246000065,175.5446246000065,175.5446246000065,178.5445227000164,178.5445227000164,179.52775400000974,1,1,0.8952679999929387,0.41904239999712445,None,179.52782440002193,179.52784580001025,None,179.52786960001686,179.52788720000535,None,,,,,,,,,,,,,8,2,0,1,2025-06-12_13h57.51.429,rtmindeye,2024.2.4,59.94305410113286,2025-06-12 13h58.35.370073 -0400,
all_stimuli/special515/special_22587.jpg,26,0,26,26,0,,,,0,0,0,2,1,"[9, 21, 31, 45, 56, 68, 69]",1,1,1.0495399000064936,0.4840820000099484,None,None,None,,,,,,,,,,,0,0,0,0,0,26,26,26,179.55231650001951,,,,,,,,,,,,,,,,,,,,,,179.52803850002238,179.5280824000074,179.55011370001012,179.55231650001951,179.55231650001951,179.55231650001951,179.55231650001951,182.56113129999721,182.56113129999721,183.5445346000197,1,1,1.0495399000064936,0.4840820000099484,None,183.54460280001513,183.54462349999812,None,183.54464619999635,183.54466300000786,None,,,,,,,,,,,,,8,2,0,1,2025-06-12_13h57.51.429,rtmindeye,2024.2.4,59.94305410113286,2025-06-12 13h58.35.370073 -0400,
all_stimuli/special515/special_3687.jpg,27,0,27,27,0,,,,0,0,0,2,1,"[9, 21, 31, 45, 56, 68, 69]",1,1,1.3210609999950975,0.46109959998284467,None,None,None,,,,,,,,,,,0,0,0,0,0,27,27,27,183.56078450000496,,,,,,,,,,,,,,,,,,,,,,183.54480740000145,183.544850700011,183.5586727000191,183.56078450000496,183.56078450000496,183.56078450000496,183.56078450000496,186.56099670002004,186.56099670002004,187.54469219999737,1,1,1.3210609999950975,0.46109959998284467,None,187.54475570001523,187.54477629999747,None,187.5448000000033,187.54481700001634,None,187.56143010000233,187.56143010000233,,,,,,,,,,,8,2,0,1,2025-06-12_13h57.51.429,rtmindeye,2024.2.4,59.94305410113286,2025-06-12 13h58.35.370073 -0400,
all_stimuli/shared1000_notspecial/notspecial_58164.png,28,0,28,28,0,,,,0,0,0,2,1,"[9, 21, 31, 45, 56, 68, 69]",1,1,1.0424797000014223,0.44298419999540783,None,None,None,,,,,,,,,,,0,0,0,0,0,28,28,28,187.56143010000233,,,,,,,,,,,,,,,,,,,,,,187.54496850000578,187.54501070000697,187.5598038000171,187.56143010000233,187.56143010000233,187.56143010000233,187.56143010000233,190.56118240000797,190.56118240000797,191.5446316000016,1,1,1.0424797000014223,0.44298419999540783,None,191.54469740000786,191.54471790001844,None,191.54474110002047,191.54475820000516,None,191.57272870000452,191.57272870000452,,,,,,,,,,,8,2,0,1,2025-06-12_13h57.51.429,rtmindeye,2024.2.4,59.94305410113286,2025-06-12 13h58.35.370073 -0400,
all_stimuli/special515/special_38494.jpg,29,0,29,29,0,,,,0,0,0,2,1,"[9, 21, 31, 45, 56, 68, 69]",1,1,0.8101780999859329,0.5350801000022329,None,None,None,,,,,,,,,,,0,0,0,0,0,29,29,29,191.57272870000452,,,,,,,,,,,,,,,,,,,,,,191.54494730001898,191.54498690000037,191.57090970000718,191.57272870000452,191.57272870000452,191.57272870000452,191.57272870000452,194.57761279999977,194.57761279999977,195.5612752000161,1,1,0.8101780999859329,0.5350801000022329,None,195.56134539999766,195.5613673000189,None,195.5613916000002,195.5614092000178,None,,,,,,,,,,,,,8,2,0,1,2025-06-12_13h57.51.429,rtmindeye,2024.2.4,59.94305410113286,2025-06-12 13h58.35.370073 -0400,
all_stimuli/MST_pairs1/pair_12_16_22.png,30,0,30,30,0,,,,0,0,0,2,1,"[9, 21, 31, 45, 56, 68, 69]",1,1,0.9301245000096969,0.37896299999556504,None,None,None,,,,,,,,,,,0,0,0,0,0,30,30,30,195.5798631000216,,,,,,,,,,,,,,,,,,,,,,195.5615611000103,195.56160549999913,195.5780725000077,195.5798631000216,195.5798631000216,195.5798631000216,195.5798631000216,198.59444320001057,198.59444320001057,199.5779804000049,1,1,0.9301245000096969,0.37896299999556504,None,199.57804980000947,199.57807109999703,None,199.5780941999983,199.57811160001438,None,,,,,,,,,,,,,8,2,0,1,2025-06-12_13h57.51.429,rtmindeye,2024.2.4,59.94305410113286,2025-06-12 13h58.35.370073 -0400,
blank.jpg,31,1,31,31,0,,,,0,0,0,2,1,"[9, 21, 31, 45, 56, 68, 69]",None,0,,,None,None,None,,,,,,,,,,,0,0,0,0,0,31,31,31,199.59461410000222,,,,,,,,,,,,,,,,,,,,,,199.5782634000061,199.5783069000172,199.58638860000065,199.59461410000222,199.59461410000222,199.59461410000222,199.59461410000222,202.5945047000132,202.5945047000132,203.5778099000163,None,0,,,None,203.57786839999608,203.57788910000818,None,203.57791270001326,203.577929400024,None,203.5945324000204,203.5945324000204,,,,,,,,,,,8,2,0,1,2025-06-12_13h57.51.429,rtmindeye,2024.2.4,59.94305410113286,2025-06-12 13h58.35.370073 -0400,
all_stimuli/special515/special_66489.jpg,32,0,32,32,0,,,,0,0,0,2,1,"[9, 21, 31, 45, 56, 68, 69]",1,1,1.5914854000147898,0.37681220000376925,None,None,None,,,,,,,,,,,0,0,0,0,0,32,32,32,203.5945324000204,,,,,,,,,,,,,,,,,,,,,,203.57807400001911,203.5781123000197,203.59274010002264,203.5945324000204,203.5945324000204,203.5945324000204,203.5945324000204,206.59446750002098,206.59446750002098,207.5778011000075,1,1,1.5914854000147898,0.37681220000376925,None,207.57786800002214,207.57788870000513,None,207.5779121000087,207.5779289000202,None,207.60010130002047,207.60010130002047,,,,,,,,,,,8,2,0,1,2025-06-12_13h57.51.429,rtmindeye,2024.2.4,59.94305410113286,2025-06-12 13h58.35.370073 -0400,
all_stimuli/MST_pairs1/pair_28_nsd_547_1_cocoid_60932.png,33,0,33,33,0,,,,0,0,0,2,1,"[9, 21, 31, 45, 56, 68, 69]",1,1,1.2796643000037875,0.5602263000037055,None,None,None,,,,,,,,,,,0,0,0,0,0,33,33,33,207.60010130002047,,,,,,,,,,,,,,,,,,,,,,207.57807210000465,207.578110500006,207.59826080000494,207.60010130002047,207.60010130002047,207.60010130002047,207.60010130002047,210.61080019999645,210.61080019999645,211.59449879999738,1,1,1.2796643000037875,0.5602263000037055,None,211.5945702000172,211.5945919000078,None,211.59461550001288,211.5946330000006,None,,,,,,,,,,,,,8,2,0,1,2025-06-12_13h57.51.429,rtmindeye,2024.2.4,59.94305410113286,2025-06-12 13h58.35.370073 -0400,
all_stimuli/shared1000_notspecial/notspecial_46002.png,34,0,34,34,0,,,,0,0,0,2,1,"[9, 21, 31, 45, 56, 68, 69]",1,1,0.8794223000004422,0.4139218000054825,None,None,None,,,,,,,,,,,0,0,0,0,0,34,34,34,211.61145720002241,,,,,,,,,,,,,,,,,,,,,,211.59478740001214,211.59483080002246,211.6098477000196,211.61145720002241,211.61145720002241,211.61145720002241,211.61145720002241,214.6107483000087,214.6107483000087,215.59444010001607,1,1,0.8794223000004422,0.4139218000054825,None,215.5945060000231,215.59452650000458,None,215.59454960000585,215.59456620001583,None,215.6370194000192,215.6370194000192,,,,,,,,,,,8,2,0,1,2025-06-12_13h57.51.429,rtmindeye,2024.2.4,59.94305410113286,2025-06-12 13h58.35.370073 -0400,
all_stimuli/special515/special_30632.jpg,35,0,35,35,0,,,,0,0,0,2,1,"[9, 21, 31, 45, 56, 68, 69]",1,1,1.019866600021487,0.41789589999825694,None,None,None,,,,,,,,,,,0,0,0,0,0,35,35,35,215.6370194000192,,,,,,,,,,,,,,,,,,,,,,215.59471260002465,215.59475170000223,215.6351343000133,215.6370194000192,215.6370194000192,215.6370194000192,215.6370194000192,218.64451280000503,218.64451280000503,219.61121640002239,1,1,1.019866600021487,0.41789589999825694,None,219.61129150001216,219.61131430001114,None,219.61133810001775,219.61135510000167,None,,,,,,,,,,,,,8,2,0,1,2025-06-12_13h57.51.429,rtmindeye,2024.2.4,59.94305410113286,2025-06-12 13h58.35.370073 -0400,
all_stimuli/special515/special_31936.jpg,36,0,36,36,0,,,,0,0,0,2,1,"[9, 21, 31, 45, 56, 68, 69]",1,1,0.9915211999905296,0.3909552000113763,None,None,None,,,,,,,,,,,0,0,0,0,0,36,36,36,219.62743780002347,,,,,,,,,,,,,,,,,,,,,,219.61150810000254,219.61155210001743,219.6244965000078,219.62743780002347,219.62743780002347,219.62743780002347,219.62743780002347,222.6272085000237,222.6272085000237,223.61118800000986,1,1,0.9915211999905296,0.3909552000113763,None,223.61125380001613,223.61127400002442,None,223.6112976000004,223.6113149000157,None,223.64222920002067,223.64222920002067,,,,,,,,,,,8,2,0,1,2025-06-12_13h57.51.429,rtmindeye,2024.2.4,59.94305410113286,2025-06-12 13h58.35.370073 -0400,
all_stimuli/MST_pairs1/pair_8_12_56.png,37,0,37,37,0,,,,0,0,0,2,1,"[9, 21, 31, 45, 56, 68, 69]",1,1,0.836556299997028,0.4631130000052508,None,None,None,,,,,,,,,,,0,0,0,0,0,37,37,37,223.64222920002067,,,,,,,,,,,,,,,,,,,,,,223.61146200000076,223.61150580001413,223.64038550000987,223.64222920002067,223.64222920002067,223.64222920002067,223.64222920002067,226.64455540000927,226.64455540000927,227.6277570000093,1,1,0.836556299997028,0.4631130000052508,None,227.62782819999848,227.627850400022,None,227.62787399999797,227.6278918000171,None,,,,,,,,,,,,,8,2,0,1,2025-06-12_13h57.51.429,rtmindeye,2024.2.4,59.94305410113286,2025-06-12 13h58.35.370073 -0400,
all_stimuli/special515/special_19074.jpg,38,0,38,38,0,,,,0,0,0,2,1,"[9, 21, 31, 45, 56, 68, 69]",1,1,0.9382923999801278,0.43804229999659583,None,None,None,,,,,,,,,,,0,0,0,0,0,38,38,38,227.6446195000026,,,,,,,,,,,,,,,,,,,,,,227.62805940001272,227.62810380000155,227.64280359999975,227.6446195000026,227.6446195000026,227.6446195000026,227.6446195000026,230.64431560001685,230.64431560001685,231.6277254000015,1,1,0.9382923999801278,0.43804229999659583,None,231.62778860001708,231.62780919999932,None,231.6278325000021,231.6278491000121,None,231.65954449999845,231.65954449999845,,,,,,,,,,,8,2,0,1,2025-06-12_13h57.51.429,rtmindeye,2024.2.4,59.94305410113286,2025-06-12 13h58.35.370073 -0400,
all_stimuli/shared1000_notspecial/notspecial_42648.png,39,0,39,39,0,,,,0,0,0,2,1,"[9, 21, 31, 45, 56, 68, 69]",1,1,1.1773791999730747,0.4340527000022121,None,None,None,,,,,,,,,,,0,0,0,0,0,39,39,39,231.65954449999845,,,,,,,,,,,,,,,,,,,,,,231.62799619999714,231.62803520000307,231.6579051000008,231.65954449999845,231.65954449999845,231.65954449999845,231.65954449999845,234.66078770000604,234.66078770000604,235.64442730002338,1,1,1.1773791999730747,0.4340527000022121,None,235.64449649999733,235.64451810001628,None,235.64454100001603,235.64455850000377,None,,,,,,,,,,,,,8,2,0,1,2025-06-12_13h57.51.429,rtmindeye,2024.2.4,59.94305410113286,2025-06-12 13h58.35.370073 -0400,
all_stimuli/MST_pairs1/pair_12_16_22.png,40,0,40,40,0,,,,1,0,0,2,1,"[9, 21, 31, 45, 56, 68, 69]",2,1,1.040069200011203,0.36612459999741986,None,None,None,,,,,,,,,,,0,0,0,0,0,40,40,40,235.6608181000047,,,,,,,,,,,,,,,,,,,,,,235.64470870001242,235.64475210002274,235.65708330000052,235.6608181000047,235.6608181000047,235.6608181000047,235.6608181000047,238.66090250000707,238.66090250000707,239.64463380002417,2,1,1.040069200011203,0.36612459999741986,None,239.64470000000438,239.64472110001952,None,239.64474430002156,239.64476160000777,None,240.07709700000123,240.07709700000123,,,,,,,,,,,8,2,0,1,2025-06-12_13h57.51.429,rtmindeye,2024.2.4,59.94305410113286,2025-06-12 13h58.35.370073 -0400,
all_stimuli/shared1000_notspecial/notspecial_3951.png,41,0,41,41,0,,,,0,0,0,2,1,"[9, 21, 31, 45, 56, 68, 69]",1,1,0.9526573999901302,0.44518480001715943,None,None,None,,,,,,,,,,,0,0,0,0,0,41,41,41,240.07709700000123,,,,,,,,,,,,,,,,,,,,,,239.64491870001075,239.6449587000243,240.07289480001782,240.07709700000123,240.07709700000123,240.07709700000123,240.07709700000123,243.07768760001636,243.07768760001636,243.66119620000245,1,1,0.9526573999901302,0.44518480001715943,None,243.66127300000517,243.66129580000415,None,243.66132070001913,243.66133900001296,None,,,,,,,,,,,,,8,2,0,1,2025-06-12_13h57.51.429,rtmindeye,2024.2.4,59.94305410113286,2025-06-12 13h58.35.370073 -0400,
all_stimuli/MST_pairs1/pair_12_16_78.png,42,0,42,42,0,,,,0,0,0,2,1,"[9, 21, 31, 45, 56, 68, 69]",1,1,1.4955188000167254,0.5320655999821611,None,None,None,,,,,,,,,,,0,0,0,0,0,42,42,42,244.01924660001532,,,,,,,,,,,,,,,,,,,,,,243.66150590000325,243.6615534000157,244.01514060000773,244.01924660001532,244.01924660001532,244.01924660001532,244.01924660001532,247.027359300002,247.027359300002,247.67763000002014,1,1,1.4955188000167254,0.5320655999821611,None,247.67770120000932,247.67772289999994,None,247.67774640000425,247.6777641000226,None,,,,,,,,,,,,,8,2,0,1,2025-06-12_13h57.51.429,rtmindeye,2024.2.4,59.94305410113286,2025-06-12 13h58.35.370073 -0400,
all_stimuli/special515/special_11952.jpg,43,0,43,43,0,,,,0,0,0,2,1,"[9, 21, 31, 45, 56, 68, 69]",1,1,0.8200083999836352,0.46595879999222234,None,None,None,,,,,,,,,,,0,0,0,0,0,43,43,43,247.72394300001906,,,,,,,,,,,,,,,,,,,,,,247.6779165000189,247.67796030000318,247.7217352000007,247.72394300001906,247.72394300001906,247.72394300001906,247.72394300001906,250.72769950001384,250.72769950001384,251.6943860000174,1,1,0.8200083999836352,0.46595879999222234,None,251.69445490001817,251.69447590000345,None,251.69449970001006,251.69451699999627,None,,,,,,,,,,,,,8,2,0,1,2025-06-12_13h57.51.429,rtmindeye,2024.2.4,59.94305410113286,2025-06-12 13h58.35.370073 -0400,
all_stimuli/MST_pairs1/pair_14_18_22.png,44,0,44,44,0,,,,0,0,0,2,1,"[9, 21, 31, 45, 56, 68, 69]",2,0,1.786890300019877,0.2720436999807134,None,None,None,,,,,,,,,,,0,0,0,0,0,44,44,44,251.71196030001738,,,,,,,,,,,,,,,,,,,,,,251.6946816999989,251.6947260000161,251.71030910001718,251.71196030001738,251.71196030001738,251.71196030001738,251.71196030001738,254.71096140000736,254.71096140000736,255.6946041000192,2,0,1.786890300019877,0.2720436999807134,None,255.6946688000171,255.69469020000543,None,255.69471320000594,255.69472970001516,None,255.711034500011,255.711034500011,,,,,,,,,,,8,2,0,1,2025-06-12_13h57.51.429,rtmindeye,2024.2.4,59.94305410113286,2025-06-12 13h58.35.370073 -0400,
blank.jpg,45,1,45,45,0,,,,0,0,0,2,1,"[9, 21, 31, 45, 56, 68, 69]",None,0,,,None,None,None,,,,,,,,,,,0,0,0,0,0,45,45,45,255.711034500011,,,,,,,,,,,,,,,,,,,,,,255.69487490001484,255.69491710001603,255.70355669999844,255.711034500011,255.711034500011,255.711034500011,255.711034500011,258.71089550000033,258.71089550000033,259.69444000002113,None,0,,,None,259.694501400023,259.6945223000075,None,259.6945461000141,259.6945631999988,None,259.72590420002234,259.72590420002234,,,,,,,,,,,8,2,0,1,2025-06-12_13h57.51.429,rtmindeye,2024.2.4,59.94305410113286,2025-06-12 13h58.35.370073 -0400,
all_stimuli/MST_pairs1/pair_16_20_56.png,46,0,46,46,0,,,,0,0,0,2,1,"[9, 21, 31, 45, 56, 68, 69]",1,1,1.365946800011443,0.38891519999015145,None,None,None,,,,,,,,,,,0,0,0,0,0,46,46,46,259.72590420002234,,,,,,,,,,,,,,,,,,,,,,259.69471140002133,259.6947493000189,259.7242490000208,259.72590420002234,259.72590420002234,259.72590420002234,259.72590420002234,262.7276555999997,262.7276555999997,263.71109100000467,1,1,1.365946800011443,0.38891519999015145,None,263.7111608000123,263.71118270000443,None,263.7112056000042,263.71122300002025,None,,,,,,,,,,,,,8,2,0,1,2025-06-12_13h57.51.429,rtmindeye,2024.2.4,59.94305410113286,2025-06-12 13h58.35.370073 -0400,
all_stimuli/special515/special_8933.jpg,47,0,47,47,0,,,,0,0,0,2,1,"[9, 21, 31, 45, 56, 68, 69]",1,1,1.3915084000036586,0.42505639998125844,None,None,None,,,,,,,,,,,0,0,0,0,0,47,47,47,263.7433649000013,,,,,,,,,,,,,,,,,,,,,,263.7113740000059,263.71141780001926,263.7415677999961,263.7433649000013,263.7433649000013,263.7433649000013,263.7433649000013,266.74427120000473,266.74427120000473,267.7277809000225,1,1,1.3915084000036586,0.42505639998125844,None,267.7278494000202,267.7278709000093,None,267.72789400001056,267.7279110000236,None,,,,,,,,,,,,,8,2,0,1,2025-06-12_13h57.51.429,rtmindeye,2024.2.4,59.94305410113286,2025-06-12 13h58.35.370073 -0400,
all_stimuli/MST_pairs1/pair_16_20_56.png,48,0,48,48,0,,,,1,0,0,2,1,"[9, 21, 31, 45, 56, 68, 69]",2,1,0.89132470000186,0.3889659999986179,None,None,None,,,,,,,,,,,0,0,0,0,0,48,48,48,267.7446024000237,,,,,,,,,,,,,,,,,,,,,,267.7280643999984,267.7281086000148,267.7360865000228,267.7446024000237,267.7446024000237,267.7446024000237,267.7446024000237,270.7440035000036,270.7440035000036,271.7275891000172,2,1,0.89132470000186,0.3889659999986179,None,271.72765450002044,271.72767520000343,None,271.72769820000394,271.72771500001545,None,271.7441631999973,271.7441631999973,,,,,,,,,,,8,2,0,1,2025-06-12_13h57.51.429,rtmindeye,2024.2.4,59.94305410113286,2025-06-12 13h58.35.370073 -0400,
all_stimuli/special515/special_5034.jpg,49,0,49,49,0,,,,0,0,0,2,1,"[9, 21, 31, 45, 56, 68, 69]",1,1,0.8866208999825176,0.41509200001019053,None,None,None,,,,,,,,,,,0,0,0,0,0,49,49,49,271.7441631999973,,,,,,,,,,,,,,,,,,,,,,271.72786020001513,271.7278981000127,271.7408936000138,271.7441631999973,271.7441631999973,271.7441631999973,271.7441631999973,274.7444646000222,274.7444646000222,275.727741300012,1,1,0.8866208999825176,0.41509200001019053,None,275.7278052000038,275.72782620001817,None,275.72785470000235,275.72787150001386,None,275.7517493000196,275.7517493000196,,,,,,,,,,,8,2,0,1,2025-06-12_13h57.51.429,rtmindeye,2024.2.4,59.94305410113286,2025-06-12 13h58.35.370073 -0400,
all_stimuli/MST_pairs1/pair_16_20_0.png,50,0,50,50,0,,,,0,0,0,2,1,"[9, 21, 31, 45, 56, 68, 69]",2,0,0.8161853999772575,0.39587000000756234,None,None,None,,,,,,,,,,,0,0,0,0,0,50,50,50,275.7517493000196,,,,,,,,,,,,,,,,,,,,,,275.728019400005,275.7280679999967,275.74990290001733,275.7517493000196,275.7517493000196,275.7517493000196,275.7517493000196,278.76116860000184,278.76116860000184,279.74414200001047,2,0,0.8161853999772575,0.39587000000756234,None,279.7442108000105,279.7442319999973,None,279.7442555000016,279.7442729000177,None,,,,,,,,,,,,,8,2,0,1,2025-06-12_13h57.51.429,rtmindeye,2024.2.4,59.94305410113286,2025-06-12 13h58.35.370073 -0400,
all_stimuli/MST_pairs1/pair_46_w_pool2.jpg,51,0,51,51,0,,,,0,0,0,2,1,"[9, 21, 31, 45, 56, 68, 69]",1,1,0.8382601999910548,0.32201140001416206,None,None,None,,,,,,,,,,,0,0,0,0,0,51,51,51,279.7704875000054,,,,,,,,,,,,,,,,,,,,,,279.74442380000255,279.7444674000144,279.7688058000058,279.7704875000054,279.7704875000054,279.7704875000054,279.7704875000054,282.77724039999885,282.77724039999885,283.7610054000106,1,1,0.8382601999910548,0.32201140001416206,None,283.76107570002205,283.76109970000107,None,283.76112330000615,283.7611407000222,None,,,,,,,,,,,,,8,2,0,1,2025-06-12_13h57.51.429,rtmindeye,2024.2.4,59.94305410113286,2025-06-12 13h58.35.370073 -0400,
all_stimuli/special515/special_62228.jpg,52,0,52,52,0,,,,0,0,0,2,1,"[9, 21, 31, 45, 56, 68, 69]",1,1,0.9812601000012364,0.2882357000198681,None,None,None,,,,,,,,,,,0,0,0,0,0,52,52,52,283.7874615000037,,,,,,,,,,,,,,,,,,,,,,283.7612941999978,283.7614005000214,283.78539669999736,283.7874615000037,283.7874615000037,283.7874615000037,283.7874615000037,286.7943648000073,286.7943648000073,287.7773800000141,1,1,0.9812601000012364,0.2882357000198681,None,287.77745130000403,287.77747319999617,None,287.77749629999744,287.7775127000059,None,,,,,,,,,,,,,8,2,0,1,2025-06-12_13h57.51.429,rtmindeye,2024.2.4,59.94305410113286,2025-06-12 13h58.35.370073 -0400,
all_stimuli/MST_pairs1/pair_40_w_escalator2.jpg,53,0,53,53,0,,,,0,0,0,2,1,"[9, 21, 31, 45, 56, 68, 69]",1,1,0.8506851999845821,0.4600588000030257,None,None,None,,,,,,,,,,,0,0,0,0,0,53,53,53,287.7940075000224,,,,,,,,,,,,,,,,,,,,,,287.7776672000182,287.77771340002073,287.7913201000192,287.7940075000224,287.7940075000224,287.7940075000224,287.7940075000224,290.79442859999835,290.79442859999835,291.777531300002,1,1,0.8506851999845821,0.4600588000030257,None,291.77759790001437,291.7776187999989,None,291.77764250000473,291.77765930001624,None,291.8007914000191,291.8007914000191,,,,,,,,,,,8,2,0,1,2025-06-12_13h57.51.429,rtmindeye,2024.2.4,59.94305410113286,2025-06-12 13h58.35.370073 -0400,
all_stimuli/MST_pairs1/pair_20_nsd_41_2_cocoid_63715.png,54,0,54,54,0,,,,0,0,0,2,1,"[9, 21, 31, 45, 56, 68, 69]",1,1,0.9231867000053171,0.4148992999980692,None,None,None,,,,,,,,,,,0,0,0,0,0,54,54,54,291.8007914000191,,,,,,,,,,,,,,,,,,,,,,291.7778099999996,291.77784870000323,291.79881249999744,291.8007914000191,291.8007914000191,291.8007914000191,291.8007914000191,294.8108506000135,294.8108506000135,295.79423510000925,1,1,0.9231867000053171,0.4148992999980692,None,295.7943041000108,295.79432620000443,None,295.79434920000494,295.79436680002254,None,,,,,,,,,,,,,8,2,0,1,2025-06-12_13h57.51.429,rtmindeye,2024.2.4,59.94305410113286,2025-06-12 13h58.35.370073 -0400,
all_stimuli/shared1000_notspecial/notspecial_22155.png,55,0,55,55,0,,,,0,0,0,2,1,"[9, 21, 31, 45, 56, 68, 69]",1,1,0.9312650000210851,0.38583859999198467,None,None,None,,,,,,,,,,,0,0,0,0,0,55,55,55,295.81163440001546,,,,,,,,,,,,,,,,,,,,,,295.79451320000226,295.79456780001055,295.8100303999963,295.81163440001546,295.81163440001546,295.81163440001546,295.81163440001546,298.81059310000273,298.81059310000273,299.79436010000063,1,1,0.9312650000210851,0.38583859999198467,None,299.7944241000223,299.7944450000068,None,299.7944684000104,299.7944852000219,None,299.8111207000038,299.8111207000038,,,,,,,,,,,8,2,0,1,2025-06-12_13h57.51.429,rtmindeye,2024.2.4,59.94305410113286,2025-06-12 13h58.35.370073 -0400,
blank.jpg,56,1,56,56,0,,,,0,0,0,2,1,"[9, 21, 31, 45, 56, 68, 69]",None,0,,,None,None,None,,,,,,,,,,,0,0,0,0,0,56,56,56,299.8111207000038,,,,,,,,,,,,,,,,,,,,,,299.7946342000214,299.7946720000182,299.8026216000144,299.8111207000038,299.8111207000038,299.8111207000038,299.8111207000038,302.81077650000225,302.81077650000225,303.7944897999987,None,0,,,None,303.79454760000226,303.79456780001055,None,303.79459110001335,303.7946080999973,None,303.82922730001155,303.82922730001155,,,,,,,,,,,8,2,0,1,2025-06-12_13h57.51.429,rtmindeye,2024.2.4,59.94305410113286,2025-06-12 13h58.35.370073 -0400,
all_stimuli/special515/special_11617.jpg,57,0,57,57,0,,,,0,0,0,2,1,"[9, 21, 31, 45, 56, 68, 69]",1,1,1.1905710000137333,0.37591810000594705,None,None,None,,,,,,,,,,,0,0,0,0,0,57,57,57,303.82922730001155,,,,,,,,,,,,,,,,,,,,,,303.79475310002454,303.7947910000221,303.82733600001666,303.82922730001155,303.82922730001155,303.82922730001155,303.82922730001155,306.84432270002435,306.84432270002435,307.810736000014,1,1,1.1905710000137333,0.37591810000594705,None,307.8108053000178,307.81082720000995,None,307.810850400012,307.8108676999982,None,,,,,,,,,,,,,8,2,0,1,2025-06-12_13h57.51.429,rtmindeye,2024.2.4,59.94305410113286,2025-06-12 13h58.35.370073 -0400,
all_stimuli/MST_pairs1/pair_14_18_22.png,58,0,58,58,0,,,,1,0,0,2,1,"[9, 21, 31, 45, 56, 68, 69]",2,1,1.1254214000073262,0.38013939998927526,None,None,None,,,,,,,,,,,0,0,0,0,0,58,58,58,307.82726540000294,,,,,,,,,,,,,,,,,,,,,,307.81102620001184,307.8110702999984,307.82462410000153,307.82726540000294,307.82726540000294,307.82726540000294,307.82726540000294,310.82754950001254,310.82754950001254,311.8109927000187,2,1,1.1254214000073262,0.38013939998927526,None,311.8110571000143,311.8110780999996,None,311.81110120000085,311.8111182000139,None,311.8272616000031,311.8272616000031,,,,,,,,,,,8,2,0,1,2025-06-12_13h57.51.429,rtmindeye,2024.2.4,59.94305410113286,2025-06-12 13h58.35.370073 -0400,
all_stimuli/shared1000_notspecial/notspecial_63081.png,59,0,59,59,0,,,,0,0,0,2,1,"[9, 21, 31, 45, 56, 68, 69]",1,1,0.9426627999928314,0.4199474999913946,None,None,None,,,,,,,,,,,0,0,0,0,0,59,59,59,311.8272616000031,,,,,,,,,,,,,,,,,,,,,,311.81126600000425,311.8113042000041,311.8256358000217,311.8272616000031,311.8272616000031,311.8272616000031,311.8272616000031,314.82759090000764,314.82759090000764,315.810870300018,1,1,0.9426627999928314,0.4199474999913946,None,315.8109347000136,315.81095549999736,None,315.8109789000009,315.81099560001167,None,315.82733840000583,315.82733840000583,,,,,,,,,,,8,2,0,1,2025-06-12_13h57.51.429,rtmindeye,2024.2.4,59.94305410113286,2025-06-12 13h58.35.370073 -0400,
all_stimuli/MST_pairs1/pair_42_w_icerink2.jpg,60,0,60,60,0,,,,0,0,0,2,1,"[9, 21, 31, 45, 56, 68, 69]",1,1,1.3173498999967705,0.4000252000114415,None,None,None,,,,,,,,,,,0,0,0,0,0,60,60,60,315.82733840000583,,,,,,,,,,,,,,,,,,,,,,315.81114230002277,315.8111807000241,315.82445380001445,315.82733840000583,315.82733840000583,315.82733840000583,315.82733840000583,318.8272646999976,318.8272646999976,319.8109935000248,1,1,1.3173498999967705,0.4000252000114415,None,319.8110576000181,319.8110783000011,None,319.81110170000466,319.81111830001464,None,319.84605459999875,319.84605459999875,,,,,,,,,,,8,2,0,1,2025-06-12_13h57.51.429,rtmindeye,2024.2.4,59.94305410113286,2025-06-12 13h58.35.370073 -0400,
all_stimuli/MST_pairs1/pair_46_w_pool1.jpg,61,0,61,61,0,,,,0,0,0,2,1,"[9, 21, 31, 45, 56, 68, 69]",2,0,2.1277795000059996,0.38894770000479184,None,None,None,,,,,,,,,,,0,0,0,0,0,61,61,61,319.84605459999875,,,,,,,,,,,,,,,,,,,,,,319.8112633000128,319.81130220001796,319.8444203000108,319.84605459999875,319.84605459999875,319.84605459999875,319.84605459999875,322.86104420002084,322.86104420002084,323.8275016999978,2,0,2.1277795000059996,0.38894770000479184,None,323.8275693000178,323.8275902000023,None,323.8276130000013,323.82763020001585,None,,,,,,,,,,,,,8,2,0,1,2025-06-12_13h57.51.429,rtmindeye,2024.2.4,59.94305410113286,2025-06-12 13h58.35.370073 -0400,
all_stimuli/special515/special_40840.jpg,62,0,62,62,0,,,,0,0,0,2,1,"[9, 21, 31, 45, 56, 68, 69]",1,1,1.455701600003522,0.35899770000833087,None,None,None,,,,,,,,,,,0,0,0,0,0,62,62,62,323.84504400001606,,,,,,,,,,,,,,,,,,,,,,323.8277804000245,323.8278233000019,323.84325230002287,323.84504400001606,323.84504400001606,323.84504400001606,323.84504400001606,326.8443262000219,326.8443262000219,327.82753730000695,1,1,1.455701600003522,0.35899770000833087,None,327.82760040002177,327.8276207000017,None,327.82764339999994,327.8276603000122,None,327.84409940001206,327.84409940001206,,,,,,,,,,,8,2,0,1,2025-06-12_13h57.51.429,rtmindeye,2024.2.4,59.94305410113286,2025-06-12 13h58.35.370073 -0400,
all_stimuli/special515/special_29837.jpg,63,0,63,63,0,,,,0,0,0,2,1,"[9, 21, 31, 45, 56, 68, 69]",1,1,1.2665542000031564,0.35308919998351485,None,None,None,,,,,,,,,,,0,0,0,0,0,63,63,63,327.84409940001206,,,,,,,,,,,,,,,,,,,,,,327.82780460000504,327.8278424000018,327.8423770000227,327.84409940001206,327.84409940001206,327.84409940001206,327.84409940001206,330.84401530001196,330.84401530001196,331.8275809000188,1,1,1.2665542000031564,0.35308919998351485,None,331.827643800003,331.8276642000128,None,331.82768740001484,331.82770439999877,None,331.84380760000204,331.84380760000204,,,,,,,,,,,8,2,0,1,2025-06-12_13h57.51.429,rtmindeye,2024.2.4,59.94305410113286,2025-06-12 13h58.35.370073 -0400,
all_stimuli/shared1000_notspecial/notspecial_4768.png,64,0,64,64,0,,,,0,0,0,2,1,"[9, 21, 31, 45, 56, 68, 69]",1,1,0.9640217999985907,0.40882730000885203,None,None,None,,,,,,,,,,,0,0,0,0,0,64,64,64,331.84380760000204,,,,,,,,,,,,,,,,,,,,,,331.82785140001215,331.8278903000173,331.84221380000236,331.84380760000204,331.84380760000204,331.84380760000204,331.84380760000204,334.84431080002105,334.84431080002105,335.827660800016,1,1,0.9640217999985907,0.40882730000885203,None,335.82772410000325,335.8277449000161,None,335.82776810001815,335.8277844999975,None,335.875003299996,335.875003299996,,,,,,,,,,,8,2,0,1,2025-06-12_13h57.51.429,rtmindeye,2024.2.4,59.94305410113286,2025-06-12 13h58.35.370073 -0400,
all_stimuli/MST_pairs1/pair_20_nsd_41_1_cocoid_15472.png,65,0,65,65,0,,,,0,0,0,2,1,"[9, 21, 31, 45, 56, 68, 69]",2,0,2.230795700015733,0.36099259997718036,None,None,None,,,,,,,,,,,0,0,0,0,0,65,65,65,335.875003299996,,,,,,,,,,,,,,,,,,,,,,335.82794070002274,335.8279801000026,335.8730378000182,335.875003299996,335.875003299996,335.875003299996,335.875003299996,338.8773202000011,338.8773202000011,339.84423580000293,2,0,2.230795700015733,0.36099259997718036,None,339.8443062000151,339.84432790000574,None,339.8443520000146,339.84436950000236,None,,,,,,,,,,,,,8,2,0,1,2025-06-12_13h57.51.429,rtmindeye,2024.2.4,59.94305410113286,2025-06-12 13h58.35.370073 -0400,
all_stimuli/shared1000_notspecial/notspecial_53157.png,66,0,66,66,0,,,,0,0,0,2,1,"[9, 21, 31, 45, 56, 68, 69]",1,1,1.2696521999896504,0.40005270001711324,None,None,None,,,,,,,,,,,0,0,0,0,0,66,66,66,339.8620839000214,,,,,,,,,,,,,,,,,,,,,,339.8445225000032,339.84456640001736,339.8602749000129,339.8620839000214,339.8620839000214,339.8620839000214,339.8620839000214,342.8776168000186,342.8776168000186,343.86051250001765,1,1,1.2696521999896504,0.40005270001711324,None,343.86058080001385,343.86060250000446,None,343.8606257000065,343.86064310002257,None,,,,,,,,,,,,,8,2,0,1,2025-06-12_13h57.51.429,rtmindeye,2024.2.4,59.94305410113286,2025-06-12 13h58.35.370073 -0400,
all_stimuli/special515/special_38641.jpg,67,0,67,67,0,,,,1,0,0,2,1,"[9, 21, 31, 45, 56, 68, 69]",1,0,2.0393341000017244,0.3309821999864653,None,None,None,,,,,,,,,,,0,0,0,0,0,67,67,67,343.87742620002246,,,,,,,,,,,,,,,,,,,,,,343.8607905000099,343.86083489999874,343.87244520001695,343.87742620002246,343.87742620002246,343.87742620002246,343.87742620002246,346.8772605000122,346.8772605000122,347.86093730002176,1,0,2.0393341000017244,0.3309821999864653,None,347.86100150001585,347.86102170002414,None,347.8610446000239,347.861061100004,None,347.87762490002206,347.87762490002206,,,,,,,,,,,8,2,0,1,2025-06-12_13h57.51.429,rtmindeye,2024.2.4,59.94305410113286,2025-06-12 13h58.35.370073 -0400,
blank.jpg,68,1,68,68,0,,,,0,0,0,2,1,"[9, 21, 31, 45, 56, 68, 69]",None,0,,,None,None,None,,,,,,,,,,,0,0,0,0,0,68,68,68,347.87762490002206,,,,,,,,,,,,,,,,,,,,,,347.86121230002027,347.8612507000216,347.86839980000514,347.87762490002206,347.87762490002206,347.87762490002206,347.87762490002206,350.8774219000188,350.8774219000188,351.86065760001657,None,0,,,None,351.8607150000171,351.86073529999703,None,351.8607590000029,351.86077560001286,None,351.8776085000136,351.8776085000136,,,,,,,,,,,8,2,0,1,2025-06-12_13h57.51.429,rtmindeye,2024.2.4,59.94305410113286,2025-06-12 13h58.35.370073 -0400,
blank.jpg,69,1,69,69,0,,,,0,1,0,2,0,"[9, 21, 31, 45, 56, 68, 69]",None,0,,,None,3,equal,6.649419699999271,None,27.6186863000039,None,,,,,,,0,0,0,0,0,69,69,69,351.8776085000136,,,,,,,,,,,,,,,,,,,,,,351.86091840002337,351.86095570001635,351.86685360001866,351.8776085000136,351.8776085000136,351.8776085000136,351.8776085000136,354.8775411999959,354.8775411999959,355.86082430000533,None,0,,,None,355.86744120001094,362.52734670002246,3,362.5274038000207,390.1771499000024,equal,355.8774589000095,355.8774589000095,355.8774589000095,355.8774589000095,6.649419699999271,None,362.5440269999963,362.5440269999963,27.6186863000039,None,,,8,2,0,1,2025-06-12_13h57.51.429,rtmindeye,2024.2.4,59.94305410113286,2025-06-12 13h58.35.370073 -0400,
,,,0,0,0,,,,,,,,,,,,,,,,,,,,,,,,,,,0,0,0,0,,,,,,,,,,,,,,,,,,,,,,,,,,,,,,,,,,,,,,,,,,,,,,,,,,,,,,,,,,,,8,2,0,1,2025-06-12_13h57.51.429,rtmindeye,2024.2.4,59.94305410113286,2025-06-12 13h58.35.370073 -0400,
all_stimuli/special515/special_71450.jpg,0,0,0,0,0,,,,0,0,1,2,1,"[9, 21, 31, 45, 56, 68, 69]",1,1,1.317371600016486,0.3298837000038475,None,None,None,,,,,,,,,,,1,0,1,0,0,0,0,0,390.23442560000694,,,,,,,,,,,,,,,,,,,,,,390.2186670000083,390.2187634000147,390.2321998999978,390.23442560000694,390.23442560000694,390.23442560000694,390.23442560000694,393.24384710000595,393.24384710000595,394.2272576999967,1,1,1.317371600016486,0.3298837000038475,None,394.22732850001194,394.22735180001473,None,394.22737680000137,394.2273953999975,None,,,,,,,,,,,,,8,2,0,1,2025-06-12_13h57.51.429,rtmindeye,2024.2.4,59.94305410113286,2025-06-12 13h58.35.370073 -0400,
all_stimuli/special515/special_38246.jpg,1,0,1,1,0,,,,0,0,1,2,1,"[9, 21, 31, 45, 56, 68, 69]",1,1,1.6701551000005566,0.3379226000106428,None,None,None,,,,,,,,,,,1,0,1,0,0,1,1,1,394.2456242000044,,,,,,,,,,,,,,,,,,,,,,394.227549800009,394.2275933000201,394.2435994000116,394.2456242000044,394.2456242000044,394.2456242000044,394.2456242000044,397.2603982000146,397.2603982000146,398.24423490001936,1,1,1.6701551000005566,0.3379226000106428,None,398.2443046999979,398.24432680002064,None,398.24435029999586,398.24436820001574,None,,,,,,,,,,,,,8,2,0,1,2025-06-12_13h57.51.429,rtmindeye,2024.2.4,59.94305410113286,2025-06-12 13h58.35.370073 -0400,
all_stimuli/special515/special_10046.jpg,2,0,2,2,0,,,,0,0,1,2,1,"[9, 21, 31, 45, 56, 68, 69]",1,1,1.1960906999884173,0.41682569999829866,None,None,None,,,,,,,,,,,1,0,1,0,0,2,2,2,398.2607442000008,,,,,,,,,,,,,,,,,,,,,,398.2445194000029,398.24457340000663,398.2589144000085,398.2607442000008,398.2607442000008,398.2607442000008,398.2607442000008,401.26047980002477,401.26047980002477,402.2443479000067,1,1,1.1960906999884173,0.41682569999829866,None,402.2444116999977,402.24443210000754,None,402.2444555000111,402.2444728999981,None,402.26813989999937,402.26813989999937,,,,,,,,,,,8,2,0,1,2025-06-12_13h57.51.429,rtmindeye,2024.2.4,59.94305410113286,2025-06-12 13h58.35.370073 -0400,
all_stimuli/MST_pairs1/pair_38_w_arch2.jpg,3,0,3,3,0,,,,0,0,1,2,1,"[9, 21, 31, 45, 56, 68, 69]",1,1,0.9954777000239119,0.38212109997402877,None,None,None,,,,,,,,,,,1,0,1,0,0,3,3,3,402.26813989999937,,,,,,,,,,,,,,,,,,,,,,402.24462020001374,402.24465920001967,402.26643570000306,402.26813989999937,402.26813989999937,402.26813989999937,402.26813989999937,405.2772728000127,405.2772728000127,406.26074320002226,1,1,0.9954777000239119,0.38212109997402877,None,406.26081540001906,406.26083790001576,None,406.2608626000001,406.2608807000215,None,,,,,,,,,,,,,8,2,0,1,2025-06-12_13h57.51.429,rtmindeye,2024.2.4,59.94305410113286,2025-06-12 13h58.35.370073 -0400,
all_stimuli/special515/special_30395.jpg,4,0,4,4,0,,,,0,0,1,2,1,"[9, 21, 31, 45, 56, 68, 69]",1,1,1.0881236999994144,0.35806259998935275,None,None,None,,,,,,,,,,,1,0,1,0,0,4,4,4,406.27751830001944,,,,,,,,,,,,,,,,,,,,,,406.2610484000179,406.26109200000064,406.2757637000177,406.27751830001944,406.27751830001944,406.27751830001944,406.27751830001944,409.2772408000019,409.2772408000019,410.26088470002287,1,1,1.0881236999994144,0.35806259998935275,None,410.26094790000934,410.2609694999992,None,410.26099320000503,410.26101020001806,None,410.27728020001086,410.27728020001086,,,,,,,,,,,8,2,0,1,2025-06-12_13h57.51.429,rtmindeye,2024.2.4,59.94305410113286,2025-06-12 13h58.35.370073 -0400,
all_stimuli/special515/special_38494.jpg,5,0,5,5,0,,,,1,0,1,2,1,"[9, 21, 31, 45, 56, 68, 69]",2,1,1.4085473000013735,0.35200139999506064,None,None,None,,,,,,,,,,,1,0,1,0,0,5,5,5,410.27728020001086,,,,,,,,,,,,,,,,,,,,,,410.26115770000615,410.2611964000098,410.2723767000134,410.27728020001086,410.27728020001086,410.27728020001086,410.27728020001086,413.27736040001037,413.27736040001037,414.2610379999969,2,1,1.4085473000013735,0.35200139999506064,None,414.2611015000148,414.2611223999993,None,414.26114580000285,414.2611632000189,None,414.2815009000187,414.2815009000187,,,,,,,,,,,8,2,0,1,2025-06-12_13h57.51.429,rtmindeye,2024.2.4,59.94305410113286,2025-06-12 13h58.35.370073 -0400,
all_stimuli/MST_pairs1/pair_28_nsd_547_1_cocoid_60932.png,6,0,6,6,0,,,,1,0,1,2,1,"[9, 21, 31, 45, 56, 68, 69]",2,1,0.9092761999927461,0.4059236999892164,None,None,None,,,,,,,,,,,1,0,1,0,0,6,6,6,414.2815009000187,,,,,,,,,,,,,,,,,,,,,,414.26131290002377,414.2613521000021,414.2796730000118,414.2815009000187,414.2815009000187,414.2815009000187,414.2815009000187,417.2938381000131,417.2938381000131,418.2768449000141,2,1,0.9092761999927461,0.4059236999892164,None,418.27691780001624,418.2769402000122,None,418.2769631000119,418.27698090000194,None,,,,,,,,,,,,,8,2,0,1,2025-06-12_13h57.51.429,rtmindeye,2024.2.4,59.94305410113286,2025-06-12 13h58.35.370073 -0400,
all_stimuli/special515/special_61133.jpg,7,0,7,7,0,,,,0,0,1,2,1,"[9, 21, 31, 45, 56, 68, 69]",2,0,1.4672284999978729,0.4112621000094805,None,None,None,,,,,,,,,,,1,0,1,0,0,7,7,7,418.2944015999965,,,,,,,,,,,,,,,,,,,,,,418.2771365000226,418.27718010000535,418.29260179999983,418.2944015999965,418.2944015999965,418.2944015999965,418.2944015999965,421.2937948000035,421.2937948000035,422.2774310000241,2,0,1.4672284999978729,0.4112621000094805,None,422.2775006000011,422.27752340000006,None,422.2775460999983,422.27756380001665,None,,,,,,,,,,,,,8,2,0,1,2025-06-12_13h57.51.429,rtmindeye,2024.2.4,59.94305410113286,2025-06-12 13h58.35.370073 -0400,
all_stimuli/shared1000_notspecial/notspecial_16635.png,8,0,8,8,0,,,,0,0,1,2,1,"[9, 21, 31, 45, 56, 68, 69]",1,1,0.7562067999970168,0.47010919998865575,None,None,None,,,,,,,,,,,1,0,1,0,0,8,8,8,422.31542840000475,,,,,,,,,,,,,,,,,,,,,,422.2777129000169,422.2777560999966,422.31378419999965,422.31542840000475,422.31542840000475,422.31542840000475,422.31542840000475,425.3273480000207,425.3273480000207,426.2936821000185,1,1,0.7562067999970168,0.47010919998865575,None,426.2937521999993,426.29377430002205,None,426.2937972000218,426.29381520001334,None,,,,,,,,,,,,,8,2,0,1,2025-06-12_13h57.51.429,rtmindeye,2024.2.4,59.94305410113286,2025-06-12 13h58.35.370073 -0400,
blank.jpg,9,1,9,9,0,,,,0,0,1,2,1,"[9, 21, 31, 45, 56, 68, 69]",None,0,,,None,None,None,,,,,,,,,,,1,0,1,0,0,9,9,9,426.31097390002105,,,,,,,,,,,,,,,,,,,,,,426.29396650000126,426.29401000001235,426.3028723000025,426.31097390002105,426.31097390002105,426.31097390002105,426.31097390002105,429.31075530001544,429.31075530001544,430.29407780000474,None,0,,,None,430.294138199999,430.29415950001567,None,430.29418200001237,430.2941988000239,None,430.3172117000213,430.3172117000213,,,,,,,,,,,8,2,0,1,2025-06-12_13h57.51.429,rtmindeye,2024.2.4,59.94305410113286,2025-06-12 13h58.35.370073 -0400,
all_stimuli/MST_pairs1/pair_18_nsd_6_1_cocoid_13417.png,10,0,10,10,0,,,,0,0,1,2,1,"[9, 21, 31, 45, 56, 68, 69]",1,1,1.2375321999716107,0.5598006000218447,None,None,None,,,,,,,,,,,1,0,1,0,0,10,10,10,430.3172117000213,,,,,,,,,,,,,,,,,,,,,,430.29434660001425,430.294384000008,430.31543360001524,430.3172117000213,430.3172117000213,430.3172117000213,430.3172117000213,433.32727619999787,433.32727619999787,434.31037030002335,1,1,1.2375321999716107,0.5598006000218447,None,434.310444200004,434.3104663999984,None,434.3104900000035,434.31050800002413,None,,,,,,,,,,,,,8,2,0,1,2025-06-12_13h57.51.429,rtmindeye,2024.2.4,59.94305410113286,2025-06-12 13h58.35.370073 -0400,
all_stimuli/shared1000_notspecial/notspecial_21703.png,11,0,11,11,0,,,,0,0,1,2,1,"[9, 21, 31, 45, 56, 68, 69]",1,1,1.1330447000218555,0.4740868999797385,None,None,None,,,,,,,,,,,1,0,1,0,0,11,11,11,434.36158210001304,,,,,,,,,,,,,,,,,,,,,,434.3106605000212,434.310704500007,434.3599274000153,434.36158210001304,434.36158210001304,434.36158210001304,434.36158210001304,437.3773291000107,437.3773291000107,438.3273432000133,1,1,1.1330447000218555,0.4740868999797385,None,438.3274122000148,438.32743480001227,None,438.3274578000128,438.3274754000013,None,,,,,,,,,,,,,8,2,0,1,2025-06-12_13h57.51.429,rtmindeye,2024.2.4,59.94305410113286,2025-06-12 13h58.35.370073 -0400,
all_stimuli/special515/special_24530.jpg,12,0,12,12,0,,,,0,0,1,2,1,"[9, 21, 31, 45, 56, 68, 69]",1,1,0.85583470002166,0.5958802999812178,None,None,None,,,,,,,,,,,1,0,1,0,0,12,12,12,438.34494340000674,,,,,,,,,,,,,,,,,,,,,,438.32762550000916,438.3276689000195,438.34311549999984,438.34494340000674,438.34494340000674,438.34494340000674,438.34494340000674,441.3437740000081,441.3437740000081,442.3275552999985,1,1,0.85583470002166,0.5958802999812178,None,442.3276249000046,442.3276467999967,None,442.3276709000056,442.32768870002474,None,442.3651449000172,442.3651449000172,,,,,,,,,,,8,2,0,1,2025-06-12_13h57.51.429,rtmindeye,2024.2.4,59.94305410113286,2025-06-12 13h58.35.370073 -0400,
all_stimuli/shared1000_notspecial/notspecial_6222.png,13,0,13,13,0,,,,0,0,1,2,1,"[9, 21, 31, 45, 56, 68, 69]",1,1,0.9325487999885809,0.5118960000108927,None,None,None,,,,,,,,,,,1,0,1,0,0,13,13,13,442.3651449000172,,,,,,,,,,,,,,,,,,,,,,442.3278428000049,442.32788190001156,442.3634272000054,442.3651449000172,442.3651449000172,442.3651449000172,442.3651449000172,445.3772874000133,445.3772874000133,446.3440405000001,1,1,0.9325487999885809,0.5118960000108927,None,446.34411080001155,446.34413330000825,None,446.34415680001257,446.3441749000049,None,,,,,,,,,,,,,8,2,0,1,2025-06-12_13h57.51.429,rtmindeye,2024.2.4,59.94305410113286,2025-06-12 13h58.35.370073 -0400,
all_stimuli/MST_pairs1/pair_44_w_log_cabin2.jpg,14,0,14,14,0,,,,0,0,1,2,1,"[9, 21, 31, 45, 56, 68, 69]",1,1,1.468760799994925,0.4451485000026878,None,None,None,,,,,,,,,,,1,0,1,0,0,14,14,14,446.360822800023,,,,,,,,,,,,,,,,,,,,,,446.3443272000004,446.34438480000244,446.3591228000005,446.360822800023,446.360822800023,446.360822800023,446.360822800023,449.36056290002307,449.36056290002307,450.3441590000002,1,1,1.468760799994925,0.4451485000026878,None,450.34422460000496,450.34424510001554,None,450.34426760001224,450.3442851,None,450.38438000000315,450.38438000000315,,,,,,,,,,,8,2,0,1,2025-06-12_13h57.51.429,rtmindeye,2024.2.4,59.94305410113286,2025-06-12 13h58.35.370073 -0400,
all_stimuli/special515/special_28068.jpg,15,0,15,15,0,,,,0,0,1,2,1,"[9, 21, 31, 45, 56, 68, 69]",1,1,1.1574468000035267,0.4718820000125561,None,None,None,,,,,,,,,,,1,0,1,0,0,15,15,15,450.38438000000315,,,,,,,,,,,,,,,,,,,,,,450.3444346000033,450.3444734000077,450.38258210002095,450.38438000000315,450.38438000000315,450.38438000000315,450.38438000000315,453.39389340000344,453.39389340000344,454.3606174000015,1,1,1.1574468000035267,0.4718820000125561,None,454.3606875000114,454.3607103000104,None,454.36073340001167,454.3607512000017,None,,,,,,,,,,,,,8,2,0,1,2025-06-12_13h57.51.429,rtmindeye,2024.2.4,59.94305410113286,2025-06-12 13h58.35.370073 -0400,
all_stimuli/shared1000_notspecial/notspecial_60978.png,16,0,16,16,0,,,,0,0,1,2,1,"[9, 21, 31, 45, 56, 68, 69]",1,1,0.9380731000273954,0.4201059999759309,None,None,None,,,,,,,,,,,1,0,1,0,0,16,16,16,454.3895073000167,,,,,,,,,,,,,,,,,,,,,,454.3609026000195,454.36094660000526,454.3878763000248,454.3895073000167,454.3895073000167,454.3895073000167,454.3895073000167,457.39370860002236,457.39370860002236,458.3775006000069,1,1,0.9380731000273954,0.4201059999759309,None,458.3775713000214,458.37759340001503,None,458.37761690001935,458.37763470000937,None,,,,,,,,,,,,,8,2,0,1,2025-06-12_13h57.51.429,rtmindeye,2024.2.4,59.94305410113286,2025-06-12 13h58.35.370073 -0400,
all_stimuli/MST_pairs1/pair_2_4_22.png,17,0,17,17,0,,,,0,0,1,2,1,"[9, 21, 31, 45, 56, 68, 69]",1,1,2.0537358000001404,0.3929830999986734,None,None,None,,,,,,,,,,,1,0,1,0,0,17,17,17,458.4301201000053,,,,,,,,,,,,,,,,,,,,,,458.37779769999906,458.37784500001,458.4284713000234,458.4301201000053,458.4301201000053,458.4301201000053,458.4301201000053,461.44375870001386,461.44375870001386,462.3939709000115,1,1,2.0537358000001404,0.3929830999986734,None,462.39403980001225,462.39406230000895,None,462.39408530000946,462.3941029999987,None,,,,,,,,,,,,,8,2,0,1,2025-06-12_13h57.51.429,rtmindeye,2024.2.4,59.94305410113286,2025-06-12 13h58.35.370073 -0400,
all_stimuli/shared1000_notspecial/notspecial_46160.png,18,0,18,18,0,,,,0,0,1,2,1,"[9, 21, 31, 45, 56, 68, 69]",1,1,1.0978539999923669,0.46215619999566115,None,None,None,,,,,,,,,,,1,0,1,0,0,18,18,18,462.4417829000158,,,,,,,,,,,,,,,,,,,,,,462.3942505000159,462.39429409999866,462.44014430002426,462.4417829000158,462.4417829000158,462.4417829000158,462.4417829000158,465.4437019000179,465.4437019000179,466.41070229999605,1,1,1.0978539999923669,0.46215619999566115,None,466.41077320001204,466.41079600001103,None,466.41082000001916,466.4108377000084,None,,,,,,,,,,,,,8,2,0,1,2025-06-12_13h57.51.429,rtmindeye,2024.2.4,59.94305410113286,2025-06-12 13h58.35.370073 -0400,
all_stimuli/special515/special_64880.jpg,19,0,19,19,0,,,,0,0,1,2,1,"[9, 21, 31, 45, 56, 68, 69]",1,1,1.162640399998054,0.38402950001182035,None,None,None,,,,,,,,,,,1,0,1,0,0,19,19,19,466.42714900002466,,,,,,,,,,,,,,,,,,,,,,466.41099160001613,466.4110348999966,466.4246402000135,466.42714900002466,466.42714900002466,466.42714900002466,466.42714900002466,469.427305899997,469.427305899997,470.4105746000132,1,1,1.162640399998054,0.38402950001182035,None,470.41063990001567,470.4106602999964,None,470.4106838000007,470.4107006000122,None,470.4333220999979,470.4333220999979,,,,,,,,,,,8,2,0,1,2025-06-12_13h57.51.429,rtmindeye,2024.2.4,59.94305410113286,2025-06-12 13h58.35.370073 -0400,
all_stimuli/MST_pairs1/pair_36_nsd_949_1_cocoid_43196.png,20,0,20,20,0,,,,0,0,1,2,1,"[9, 21, 31, 45, 56, 68, 69]",1,1,1.4643291999818757,0.4751762000087183,None,None,None,,,,,,,,,,,1,0,1,0,0,20,20,20,470.4333220999979,,,,,,,,,,,,,,,,,,,,,,470.4108483000018,470.4108864000009,470.43136210000375,470.4333220999979,470.4333220999979,470.4333220999979,470.4333220999979,473.4437971000152,473.4437971000152,474.4272292999958,1,1,1.4643291999818757,0.4751762000087183,None,474.42729829999735,474.4273209000239,None,474.4273439999961,474.4273618000152,None,,,,,,,,,,,,,8,2,0,1,2025-06-12_13h57.51.429,rtmindeye,2024.2.4,59.94305410113286,2025-06-12 13h58.35.370073 -0400,
blank.jpg,21,1,21,21,0,,,,0,0,1,2,1,"[9, 21, 31, 45, 56, 68, 69]",None,0,,,None,None,None,,,,,,,,,,,1,0,1,0,0,21,21,21,474.44391709999763,,,,,,,,,,,,,,,,,,,,,,474.4275086999987,474.4275523000106,474.4358120000106,474.44391709999763,474.44391709999763,474.44391709999763,474.44391709999763,477.4437061000208,477.4437061000208,478.4273908000032,None,0,,,None,478.4274505000212,478.42747110000346,None,478.42749420000473,478.4275114000193,None,478.4437819000159,478.4437819000159,,,,,,,,,,,8,2,0,1,2025-06-12_13h57.51.429,rtmindeye,2024.2.4,59.94305410113286,2025-06-12 13h58.35.370073 -0400,
all_stimuli/special515/special_30632.jpg,22,0,22,22,0,,,,1,0,1,2,1,"[9, 21, 31, 45, 56, 68, 69]",2,1,0.9220629000046756,0.477731799997855,None,None,None,,,,,,,,,,,1,0,1,0,0,22,22,22,478.4437819000159,,,,,,,,,,,,,,,,,,,,,,478.4276580000005,478.42769910002244,478.4401339000033,478.4437819000159,478.4437819000159,478.4437819000159,478.4437819000159,481.44401620002463,481.44401620002463,482.4273468000174,2,1,0.9220629000046756,0.477731799997855,None,482.4274177000043,482.4274387000187,None,482.42746210002224,482.42747990001226,None,482.4474106999987,482.4474106999987,,,,,,,,,,,8,2,0,1,2025-06-12_13h57.51.429,rtmindeye,2024.2.4,59.94305410113286,2025-06-12 13h58.35.370073 -0400,
all_stimuli/MST_pairs1/pair_20_nsd_41_2_cocoid_63715.png,23,0,23,23,0,,,,1,0,1,2,1,"[9, 21, 31, 45, 56, 68, 69]",2,1,1.272284300008323,0.42208319998462684,None,None,None,,,,,,,,,,,1,0,1,0,0,23,23,23,482.4474106999987,,,,,,,,,,,,,,,,,,,,,,482.42763079999713,482.42767010000534,482.445632100018,482.4474106999987,482.4474106999987,482.4474106999987,482.4474106999987,485.46041420000256,485.46041420000256,486.44431780002196,2,1,1.272284300008323,0.42208319998462684,None,486.44438820000505,486.4444111000048,None,486.44443450000836,486.44445180002367,None,,,,,,,,,,,,,8,2,0,1,2025-06-12_13h57.51.429,rtmindeye,2024.2.4,59.94305410113286,2025-06-12 13h58.35.370073 -0400,
all_stimuli/MST_pairs1/pair_22_nsd_115_2_cocoid_65194.png,24,0,24,24,0,,,,0,0,1,2,1,"[9, 21, 31, 45, 56, 68, 69]",1,1,1.9368840999959502,0.3940827999904286,None,None,None,,,,,,,,,,,1,0,1,0,0,24,24,24,486.50979290000396,,,,,,,,,,,,,,,,,,,,,,486.44460660000914,486.4446501000202,486.5062025000225,486.50979290000396,486.50979290000396,486.50979290000396,486.50979290000396,489.51049490002333,489.51049490002333,490.46054770000046,1,1,1.9368840999959502,0.3940827999904286,None,490.4606190000195,490.4606418000185,None,490.4606657999975,490.46068360001664,None,,,,,,,,,,,,,8,2,0,1,2025-06-12_13h57.51.429,rtmindeye,2024.2.4,59.94305410113286,2025-06-12 13h58.35.370073 -0400,
all_stimuli/shared1000_notspecial/notspecial_26292.png,25,0,25,25,0,,,,0,0,1,2,1,"[9, 21, 31, 45, 56, 68, 69]",1,1,1.2994158000219613,0.3737816999782808,None,None,None,,,,,,,,,,,1,0,1,0,0,25,25,25,490.4774716999964,,,,,,,,,,,,,,,,,,,,,,490.4608482000185,490.46089159999974,490.4758539000177,490.4774716999964,490.4774716999964,490.4774716999964,490.4774716999964,493.4771289000055,493.4771289000055,494.46045380001306,1,1,1.2994158000219613,0.3737816999782808,None,494.46051950001856,494.4605406000046,None,494.46056320000207,494.46058080001967,None,494.47708650000277,494.47708650000277,,,,,,,,,,,8,2,0,1,2025-06-12_13h57.51.429,rtmindeye,2024.2.4,59.94305410113286,2025-06-12 13h58.35.370073 -0400,
all_stimuli/special515/special_6489.jpg,26,0,26,26,0,,,,1,0,1,2,1,"[9, 21, 31, 45, 56, 68, 69]",1,0,1.1476619000022765,0.44399759999942034,None,None,None,,,,,,,,,,,1,0,1,0,0,26,26,26,494.47708650000277,,,,,,,,,,,,,,,,,,,,,,494.46073059999617,494.4607696000021,494.4730746000132,494.47708650000277,494.47708650000277,494.47708650000277,494.47708650000277,497.47715720001725,497.47715720001725,498.46062530000927,1,0,1.1476619000022765,0.44399759999942034,None,498.4606897000049,498.46071070001926,None,498.4607339000213,498.4607509000052,None,498.48909139999887,498.48909139999887,,,,,,,,,,,8,2,0,1,2025-06-12_13h57.51.429,rtmindeye,2024.2.4,59.94305410113286,2025-06-12 13h58.35.370073 -0400,
all_stimuli/special515/special_55678.jpg,27,0,27,27,0,,,,0,0,1,2,1,"[9, 21, 31, 45, 56, 68, 69]",1,1,1.3966924000123981,0.460855499986792,None,None,None,,,,,,,,,,,1,0,1,0,0,27,27,27,498.48909139999887,,,,,,,,,,,,,,,,,,,,,,498.4608972000133,498.4609391000122,498.4873426000122,498.48909139999887,498.48909139999887,498.48909139999887,498.48909139999887,501.49388950000866,501.49388950000866,502.4772075000219,1,1,1.3966924000123981,0.460855499986792,None,502.4772766000242,502.4772994000232,None,502.477323900006,502.47734169999603,None,,,,,,,,,,,,,8,2,0,1,2025-06-12_13h57.51.429,rtmindeye,2024.2.4,59.94305410113286,2025-06-12 13h58.35.370073 -0400,
all_stimuli/special515/special_40909.jpg,28,0,28,28,0,,,,0,0,1,2,1,"[9, 21, 31, 45, 56, 68, 69]",1,1,1.1855995999940205,0.4218471999920439,None,None,None,,,,,,,,,,,1,0,1,0,0,28,28,28,502.5022466000228,,,,,,,,,,,,,,,,,,,,,,502.47749970000586,502.47754290001467,502.5003687000135,502.5022466000228,502.5022466000228,502.5022466000228,502.5022466000228,505.51021150001907,505.51021150001907,506.4938672000135,1,1,1.1855995999940205,0.4218471999920439,None,506.49393610001425,506.49395760000334,None,506.4939805000031,506.49399820002145,None,,,,,,,,,,,,,8,2,0,1,2025-06-12_13h57.51.429,rtmindeye,2024.2.4,59.94305410113286,2025-06-12 13h58.35.370073 -0400,
all_stimuli/special515/special_70360.jpg,29,0,29,29,0,,,,0,0,1,2,1,"[9, 21, 31, 45, 56, 68, 69]",1,1,1.1756462999910582,0.48012049999670126,None,None,None,,,,,,,,,,,1,0,1,0,0,29,29,29,506.5200322000019,,,,,,,,,,,,,,,,,,,,,,506.4941512000223,506.4941952000081,506.51817930000834,506.5200322000019,506.5200322000019,506.5200322000019,506.5200322000019,509.52731669999775,509.52731669999775,510.5103543000005,1,1,1.1756462999910582,0.48012049999670126,None,510.5104256000195,510.5104477000132,None,510.5104709000152,510.5104883000022,None,,,,,,,,,,,,,8,2,0,1,2025-06-12_13h57.51.429,rtmindeye,2024.2.4,59.94305410113286,2025-06-12 13h58.35.370073 -0400,
all_stimuli/MST_pairs1/pair_42_w_icerink1.jpg,30,0,30,30,0,,,,0,0,1,2,1,"[9, 21, 31, 45, 56, 68, 69]",2,0,0.9947944000014104,0.42784009999013506,None,None,None,,,,,,,,,,,1,0,1,0,0,30,30,30,510.527061700006,,,,,,,,,,,,,,,,,,,,,,510.5106394000177,510.5106831000012,510.52536540001165,510.527061700006,510.527061700006,510.527061700006,510.527061700006,513.5273262000119,513.5273262000119,514.5105323000171,2,0,0.9947944000014104,0.42784009999013506,None,514.5105967000127,514.510617699998,None,514.5106403999962,514.5106573000085,None,514.5273102000065,514.5273102000065,,,,,,,,,,,8,2,0,1,2025-06-12_13h57.51.429,rtmindeye,2024.2.4,59.94305410113286,2025-06-12 13h58.35.370073 -0400,
blank.jpg,31,1,31,31,0,,,,0,0,1,2,1,"[9, 21, 31, 45, 56, 68, 69]",None,0,,,None,None,None,,,,,,,,,,,1,0,1,0,0,31,31,31,514.5273102000065,,,,,,,,,,,,,,,,,,,,,,514.5108047999965,514.5108432999987,514.518209700007,514.5273102000065,514.5273102000065,514.5273102000065,514.5273102000065,517.5272200000181,517.5272200000181,518.5105765000044,None,0,,,None,518.5106353000156,518.5106562000001,None,518.5106792000006,518.5106959000113,None,518.5273256000073,518.5273256000073,,,,,,,,,,,8,2,0,1,2025-06-12_13h57.51.429,rtmindeye,2024.2.4,59.94305410113286,2025-06-12 13h58.35.370073 -0400,
all_stimuli/special515/special_30430.jpg,32,0,32,32,0,,,,1,0,1,2,1,"[9, 21, 31, 45, 56, 68, 69]",2,1,1.1974014999868814,0.4558782000094652,None,None,None,,,,,,,,,,,1,0,1,0,0,32,32,32,518.5273256000073,,,,,,,,,,,,,,,,,,,,,,518.5108397000004,518.5108783000032,518.5226837000228,518.5273256000073,518.5273256000073,518.5273256000073,518.5273256000073,521.5272751000011,521.5272751000011,522.510459800018,2,1,1.1974014999868814,0.4558782000094652,None,522.5105241000128,522.5105446000234,None,522.5105678999971,522.5105859000178,None,522.528149300022,522.528149300022,,,,,,,,,,,8,2,0,1,2025-06-12_13h57.51.429,rtmindeye,2024.2.4,59.94305410113286,2025-06-12 13h58.35.370073 -0400,
all_stimuli/shared1000_notspecial/notspecial_43746.png,33,0,33,33,0,,,,0,0,1,2,1,"[9, 21, 31, 45, 56, 68, 69]",1,1,1.080585300020175,0.41498410000349395,None,None,None,,,,,,,,,,,1,0,1,0,0,33,33,33,522.528149300022,,,,,,,,,,,,,,,,,,,,,,522.5107631999999,522.5108033000142,522.5264884000062,522.528149300022,522.528149300022,522.528149300022,522.528149300022,525.5271283000184,525.5271283000184,526.5272030000051,1,1,1.080585300020175,0.41498410000349395,None,526.5272732000158,526.5272950000071,None,526.527319100016,526.527336900006,None,,,,,,,,,,,,,8,2,0,1,2025-06-12_13h57.51.429,rtmindeye,2024.2.4,59.94305410113286,2025-06-12 13h58.35.370073 -0400,
all_stimuli/MST_pairs1/pair_34_nsd_875_1_cocoid_67762.png,34,0,34,34,0,,,,0,0,1,2,1,"[9, 21, 31, 45, 56, 68, 69]",1,1,1.0684245000011288,0.4417324000096414,None,None,None,,,,,,,,,,,1,0,1,0,0,34,34,34,526.5833681000222,,,,,,,,,,,,,,,,,,,,,,526.5274946000136,526.5275385999994,526.581636900024,526.5833681000222,526.5833681000222,526.5833681000222,526.5833681000222,529.5938535000023,529.5938535000023,530.5438378000108,1,1,1.0684245000011288,0.4417324000096414,None,530.5439080000215,530.5439303000167,None,530.543954599998,530.5439723000163,None,,,,,,,,,,,,,8,2,0,1,2025-06-12_13h57.51.429,rtmindeye,2024.2.4,59.94305410113286,2025-06-12 13h58.35.370073 -0400,
all_stimuli/MST_pairs1/pair_12_16_78.png,35,0,35,35,0,,,,1,0,1,2,1,"[9, 21, 31, 45, 56, 68, 69]",2,1,1.855713500001002,0.33909500000299886,None,None,None,,,,,,,,,,,1,0,1,0,0,35,35,35,530.5599831000145,,,,,,,,,,,,,,,,,,,,,,530.5441251000157,530.5441687999992,530.5576603000227,530.5599831000145,530.5599831000145,530.5599831000145,530.5599831000145,533.5603962000168,533.5603962000168,534.5439328000066,2,1,1.855713500001002,0.33909500000299886,None,534.5440021000104,534.5440227000217,None,534.544046199997,534.54406320001,None,534.5602425000106,534.5602425000106,,,,,,,,,,,8,2,0,1,2025-06-12_13h57.51.429,rtmindeye,2024.2.4,59.94305410113286,2025-06-12 13h58.35.370073 -0400,
all_stimuli/special515/special_4249.jpg,36,0,36,36,0,,,,1,0,1,2,1,"[9, 21, 31, 45, 56, 68, 69]",2,1,1.228398900013417,0.4831178999738768,None,None,None,,,,,,,,,,,1,0,1,0,0,36,36,36,534.5602425000106,,,,,,,,,,,,,,,,,,,,,,534.5442099000211,534.5442516000185,534.5563153999974,534.5602425000106,534.5602425000106,534.5602425000106,534.5602425000106,537.5604997000191,537.5604997000191,538.5437122000149,2,1,1.228398900013417,0.4831178999738768,None,538.5437778000196,538.5437989000056,None,538.5438222000084,538.5438393000222,None,538.5602452000021,538.5602452000021,,,,,,,,,,,8,2,0,1,2025-06-12_13h57.51.429,rtmindeye,2024.2.4,59.94305410113286,2025-06-12 13h58.35.370073 -0400,
all_stimuli/MST_pairs1/pair_42_w_icerink2.jpg,37,0,37,37,0,,,,1,0,1,2,1,"[9, 21, 31, 45, 56, 68, 69]",2,1,1.4044022999878507,0.33094770001480356,None,None,None,,,,,,,,,,,1,0,1,0,0,37,37,37,538.5602452000021,,,,,,,,,,,,,,,,,,,,,,538.5439950000145,538.5440332000144,538.5551209000114,538.5602452000021,538.5602452000021,538.5602452000021,538.5602452000021,541.5602329999965,541.5602329999965,542.5437712999992,2,1,1.4044022999878507,0.33094770001480356,None,542.5438357000239,542.54385680001,None,542.5438806000166,542.5438980000035,None,542.5599157999968,542.5599157999968,,,,,,,,,,,8,2,0,1,2025-06-12_13h57.51.429,rtmindeye,2024.2.4,59.94305410113286,2025-06-12 13h58.35.370073 -0400,
all_stimuli/shared1000_notspecial/notspecial_70038.png,38,0,38,38,0,,,,0,0,1,2,1,"[9, 21, 31, 45, 56, 68, 69]",1,1,1.3978190000052564,0.3708413999993354,None,None,None,,,,,,,,,,,1,0,1,0,0,38,38,38,542.5599157999968,,,,,,,,,,,,,,,,,,,,,,542.5440507000021,542.5440927000018,542.5580660999985,542.5599157999968,542.5599157999968,542.5599157999968,542.5599157999968,545.560361300013,545.560361300013,546.5437197000138,1,1,1.3978190000052564,0.3708413999993354,None,546.5437889000168,546.5438100000028,None,546.5438331000041,546.5438502000179,None,546.5929587999999,546.5929587999999,,,,,,,,,,,8,2,0,1,2025-06-12_13h57.51.429,rtmindeye,2024.2.4,59.94305410113286,2025-06-12 13h58.35.370073 -0400,
all_stimuli/special515/special_53155.jpg,39,0,39,39,0,,,,0,0,1,2,1,"[9, 21, 31, 45, 56, 68, 69]",1,1,0.8328065000241622,0.4548175999952946,None,None,None,,,,,,,,,,,1,0,1,0,0,39,39,39,546.5929587999999,,,,,,,,,,,,,,,,,,,,,,546.5439961000229,546.5440347999975,546.5911940000078,546.5929587999999,546.5929587999999,546.5929587999999,546.5929587999999,549.5938913999998,549.5938913999998,550.5603617000161,1,1,0.8328065000241622,0.4548175999952946,None,550.5604323000007,550.5604545999959,None,550.5604779999994,550.5604951000132,None,,,,,,,,,,,,,8,2,0,1,2025-06-12_13h57.51.429,rtmindeye,2024.2.4,59.94305410113286,2025-06-12 13h58.35.370073 -0400,
all_stimuli/special515/special_24530.jpg,40,0,40,40,0,,,,1,0,1,2,1,"[9, 21, 31, 45, 56, 68, 69]",2,1,0.7279017000109889,1.0508570999954827,None,None,None,,,,,,,,,,,1,0,1,0,0,40,40,40,550.5769325000001,,,,,,,,,,,,,,,,,,,,,,550.5606495999964,550.560692900006,550.5728001000243,550.5769325000001,550.5769325000001,550.5769325000001,550.5769325000001,553.5770897000039,553.5770897000039,554.560493099998,2,1,0.7279017000109889,1.0508570999954827,None,554.5605577000242,554.5605792000133,None,554.5606022000138,554.5606197000016,None,554.5766596000176,554.5766596000176,,,,,,,,,,,8,2,0,1,2025-06-12_13h57.51.429,rtmindeye,2024.2.4,59.94305410113286,2025-06-12 13h58.35.370073 -0400,
all_stimuli/special515/special_32232.jpg,41,0,41,41,0,,,,0,0,1,2,1,"[9, 21, 31, 45, 56, 68, 69]",1,1,1.8970316000049934,0.3819550999905914,None,None,None,,,,,,,,,,,1,0,1,0,0,41,41,41,554.5766596000176,,,,,,,,,,,,,,,,,,,,,,554.5607738000108,554.5608138000243,554.5746413000161,554.5766596000176,554.5766596000176,554.5766596000176,554.5766596000176,557.5769781999988,557.5769781999988,558.5604951000132,1,1,1.8970316000049934,0.3819550999905914,None,558.5605597000103,558.5605803000217,None,558.5606038999977,558.5606210000115,None,558.576816100016,558.576816100016,,,,,,,,,,,8,2,0,1,2025-06-12_13h57.51.429,rtmindeye,2024.2.4,59.94305410113286,2025-06-12 13h58.35.370073 -0400,
all_stimuli/special515/special_41814.jpg,42,0,42,42,0,,,,0,0,1,2,1,"[9, 21, 31, 45, 56, 68, 69]",1,1,1.154704300017329,0.4581973000022117,None,None,None,,,,,,,,,,,1,0,1,0,0,42,42,42,558.576816100016,,,,,,,,,,,,,,,,,,,,,,558.5607730000047,558.5608115000068,558.574363599997,558.576816100016,558.576816100016,558.576816100016,558.576816100016,561.5769031000091,561.5769031000091,562.560398600006,1,1,1.154704300017329,0.4581973000022117,None,562.5604635000054,562.5604850000236,None,562.5605080999958,562.5605255000119,None,562.576543800009,562.576543800009,,,,,,,,,,,8,2,0,1,2025-06-12_13h57.51.429,rtmindeye,2024.2.4,59.94305410113286,2025-06-12 13h58.35.370073 -0400,
all_stimuli/shared1000_notspecial/notspecial_23883.png,43,0,43,43,0,,,,0,0,1,2,1,"[9, 21, 31, 45, 56, 68, 69]",1,1,1.1152073999983259,0.39494810000178404,None,None,None,,,,,,,,,,,1,0,1,0,0,43,43,43,562.576543800009,,,,,,,,,,,,,,,,,,,,,,562.5606757000205,562.5607131000143,562.5747200000042,562.576543800009,562.576543800009,562.576543800009,562.576543800009,565.5767708000203,565.5767708000203,566.5603787,1,1,1.1152073999983259,0.39494810000178404,None,566.5604419000156,566.5604629000009,None,566.5604855999991,566.5605029000144,None,566.5927426000126,566.5927426000126,,,,,,,,,,,8,2,0,1,2025-06-12_13h57.51.429,rtmindeye,2024.2.4,59.94305410113286,2025-06-12 13h58.35.370073 -0400,
all_stimuli/shared1000_notspecial/notspecial_4436.png,44,0,44,44,0,,,,0,0,1,2,1,"[9, 21, 31, 45, 56, 68, 69]",1,1,0.8858336000121199,0.8740450000041164,None,None,None,,,,,,,,,,,1,0,1,0,0,44,44,44,566.5927426000126,,,,,,,,,,,,,,,,,,,,,,566.5606513000093,566.5606892000069,566.5911516000051,566.5927426000126,566.5927426000126,566.5927426000126,566.5927426000126,569.5935927000246,569.5935927000246,570.5769237000204,1,1,0.8858336000121199,0.8740450000041164,None,570.5769948000088,570.5770172000048,None,570.5770409000106,570.5770588000014,None,,,,,,,,,,,,,8,2,0,1,2025-06-12_13h57.51.429,rtmindeye,2024.2.4,59.94305410113286,2025-06-12 13h58.35.370073 -0400,
blank.jpg,45,1,45,45,0,,,,0,0,1,2,1,"[9, 21, 31, 45, 56, 68, 69]",None,0,,,None,None,None,,,,,,,,,,,1,0,1,0,0,45,45,45,570.5937717000197,,,,,,,,,,,,,,,,,,,,,,570.5772109000245,570.5772585000086,570.5864333000209,570.5937717000197,570.5937717000197,570.5937717000197,570.5937717000197,573.5937918999989,573.5937918999989,574.5771239000023,None,0,,,None,574.577185400005,574.5772068000224,None,574.5772296000214,574.5772472000099,None,574.5934029000055,574.5934029000055,,,,,,,,,,,8,2,0,1,2025-06-12_13h57.51.429,rtmindeye,2024.2.4,59.94305410113286,2025-06-12 13h58.35.370073 -0400,
all_stimuli/special515/special_61133.jpg,46,0,46,46,0,,,,1,0,1,2,1,"[9, 21, 31, 45, 56, 68, 69]",2,1,0.9463066000025719,0.4038081000035163,None,None,None,,,,,,,,,,,1,0,1,0,0,46,46,46,574.5934029000055,,,,,,,,,,,,,,,,,,,,,,574.5774095000234,574.5774493000063,574.5906036000233,574.5934029000055,574.5934029000055,574.5934029000055,574.5934029000055,577.5935827000067,577.5935827000067,578.5770811999973,2,1,0.9463066000025719,0.4038081000035163,None,578.5771439000091,578.5771648000227,None,578.5771880000248,578.5772055000125,None,578.628889900021,578.628889900021,,,,,,,,,,,8,2,0,1,2025-06-12_13h57.51.429,rtmindeye,2024.2.4,59.94305410113286,2025-06-12 13h58.35.370073 -0400,
all_stimuli/MST_pairs1/pair_24_nsd_158_2_cocoid_3673.png,47,0,47,47,0,,,,0,0,1,2,1,"[9, 21, 31, 45, 56, 68, 69]",1,1,1.4198118000058457,0.44294790001004003,None,None,None,,,,,,,,,,,1,0,1,0,0,47,47,47,578.628889900021,,,,,,,,,,,,,,,,,,,,,,578.5773540000082,578.5774029000022,578.6270474000194,578.628889900021,578.628889900021,578.628889900021,578.628889900021,581.6434809000057,581.6434809000057,582.593758300005,1,1,1.4198118000058457,0.44294790001004003,None,582.5938274000073,582.5938514000154,None,582.5938751000213,582.5938927000097,None,,,,,,,,,,,,,8,2,0,1,2025-06-12_13h57.51.429,rtmindeye,2024.2.4,59.94305410113286,2025-06-12 13h58.35.370073 -0400,
all_stimuli/MST_pairs1/pair_34_nsd_875_2_cocoid_72398.png,48,0,48,48,0,,,,0,0,1,2,1,"[9, 21, 31, 45, 56, 68, 69]",1,1,1.343811700004153,0.4391415999853052,None,None,None,,,,,,,,,,,1,0,1,0,0,48,48,48,582.6197265000083,,,,,,,,,,,,,,,,,,,,,,582.5940432000207,582.5940873000072,582.6178501000104,582.6197265000083,582.6197265000083,582.6197265000083,582.6197265000083,585.6270717000007,585.6270717000007,586.6101880000206,1,1,1.343811700004153,0.4391415999853052,None,586.6102581000014,586.6102811000019,None,586.610304700007,586.6103223999962,None,,,,,,,,,,,,,8,2,0,1,2025-06-12_13h57.51.429,rtmindeye,2024.2.4,59.94305410113286,2025-06-12 13h58.35.370073 -0400,
all_stimuli/shared1000_notspecial/notspecial_51965.png,49,0,49,49,0,,,,0,0,1,2,1,"[9, 21, 31, 45, 56, 68, 69]",1,1,0.8434397999953944,0.48809679999249056,None,None,None,,,,,,,,,,,1,0,1,0,0,49,49,49,586.6670549999981,,,,,,,,,,,,,,,,,,,,,,586.6104782000184,586.6105221000034,586.6650399000209,586.6670549999981,586.6670549999981,586.6670549999981,586.6670549999981,589.676683800004,589.676683800004,590.6270129000186,1,1,0.8434397999953944,0.48809679999249056,None,590.6270875000046,590.6271111000096,None,590.6271369000024,590.6271550000238,None,,,,,,,,,,,,,8,2,0,1,2025-06-12_13h57.51.429,rtmindeye,2024.2.4,59.94305410113286,2025-06-12 13h58.35.370073 -0400,
all_stimuli/MST_pairs1/pair_30_nsd_676_1_cocoid_48729.png,50,0,50,50,0,,,,0,0,1,2,1,"[9, 21, 31, 45, 56, 68, 69]",1,1,1.6975131999934092,0.3689836999983527,None,None,None,,,,,,,,,,,1,0,1,0,0,50,50,50,590.6871316000179,,,,,,,,,,,,,,,,,,,,,,590.6275011000107,590.6275481000193,590.685155300016,590.6871316000179,590.6871316000179,590.6871316000179,590.6871316000179,593.693488000019,593.693488000019,594.6436871000042,1,1,1.6975131999934092,0.3689836999983527,None,594.6437573000148,594.643779200007,None,594.6438027000113,594.6438198999967,None,,,,,,,,,,,,,8,2,0,1,2025-06-12_13h57.51.429,rtmindeye,2024.2.4,59.94305410113286,2025-06-12 13h58.35.370073 -0400,
all_stimuli/shared1000_notspecial/notspecial_52328.png,51,0,51,51,0,,,,0,0,1,2,1,"[9, 21, 31, 45, 56, 68, 69]",1,1,1.333070000022417,0.44402469997294247,None,None,None,,,,,,,,,,,1,0,1,0,0,51,51,51,594.6715949000209,,,,,,,,,,,,,,,,,,,,,,594.6439695000008,594.6440129000111,594.6699858000211,594.6715949000209,594.6715949000209,594.6715949000209,594.6715949000209,597.676886900008,597.676886900008,598.6603303000156,1,1,1.333070000022417,0.44402469997294247,None,598.6604013000033,598.660424200003,None,598.6604479000089,598.6604653999966,None,,,,,,,,,,,,,8,2,0,1,2025-06-12_13h57.51.429,rtmindeye,2024.2.4,59.94305410113286,2025-06-12 13h58.35.370073 -0400,
all_stimuli/MST_pairs1/pair_4_6_44.png,52,0,52,52,0,,,,0,0,1,2,1,"[9, 21, 31, 45, 56, 68, 69]",1,1,0.9567455000069458,0.36797789999400266,None,None,None,,,,,,,,,,,1,0,1,0,0,52,52,52,598.7119568000198,,,,,,,,,,,,,,,,,,,,,,598.6606206000142,598.6606649000023,598.7097187000036,598.7119568000198,598.7119568000198,598.7119568000198,598.7119568000198,601.726824900019,601.726824900019,602.6772244000167,1,1,0.9567455000069458,0.36797789999400266,None,602.6772952000028,602.6773181000026,None,602.67734200001,602.6773598,None,,,,,,,,,,,,,8,2,0,1,2025-06-12_13h57.51.429,rtmindeye,2024.2.4,59.94305410113286,2025-06-12 13h58.35.370073 -0400,
all_stimuli/MST_pairs1/pair_48_w_runway1.jpg,53,0,53,53,0,,,,0,0,1,2,1,"[9, 21, 31, 45, 56, 68, 69]",1,1,0.9990543000167236,0.544161300000269,None,None,None,,,,,,,,,,,1,0,1,0,0,53,53,53,602.6934406000073,,,,,,,,,,,,,,,,,,,,,,602.6775257000118,602.6775692000228,602.6904645000177,602.6934406000073,602.6934406000073,602.6934406000073,602.6934406000073,605.6935762000212,605.6935762000212,606.6770209000097,1,1,0.9990543000167236,0.544161300000269,None,606.6770849000022,606.6771063000197,None,606.6771295000217,606.6771471000102,None,606.6938696000143,606.6938696000143,,,,,,,,,,,8,2,0,1,2025-06-12_13h57.51.429,rtmindeye,2024.2.4,59.94305410113286,2025-06-12 13h58.35.370073 -0400,
all_stimuli/special515/special_40840.jpg,54,0,54,54,0,,,,1,0,1,2,1,"[9, 21, 31, 45, 56, 68, 69]",2,1,1.8127577000122983,0.5509848999790847,None,None,None,,,,,,,,,,,1,0,1,0,0,54,54,54,606.6938696000143,,,,,,,,,,,,,,,,,,,,,,606.6772988000012,606.6773378000071,606.6921042000176,606.6938696000143,606.6938696000143,606.6938696000143,606.6938696000143,609.6935760000197,609.6935760000197,610.6771125000087,2,1,1.8127577000122983,0.5509848999790847,None,610.6771768000035,610.6771978000179,None,610.6772208000184,610.6772382000054,None,610.7284149000188,610.7284149000188,,,,,,,,,,,8,2,0,1,2025-06-12_13h57.51.429,rtmindeye,2024.2.4,59.94305410113286,2025-06-12 13h58.35.370073 -0400,
all_stimuli/shared1000_notspecial/notspecial_12487.png,55,0,55,55,0,,,,0,0,1,2,1,"[9, 21, 31, 45, 56, 68, 69]",1,1,1.4312218999839388,0.5848033000074793,None,None,None,,,,,,,,,,,1,0,1,0,0,55,55,55,610.7284149000188,,,,,,,,,,,,,,,,,,,,,,610.6773973000236,610.677436900005,610.7264667999989,610.7284149000188,610.7284149000188,610.7284149000188,610.7284149000188,613.7436554000014,613.7436554000014,614.6934769000218,1,1,1.4312218999839388,0.5848033000074793,None,614.6935480000102,614.6935699000023,None,614.6935932000051,614.693610700022,None,,,,,,,,,,,,,8,2,0,1,2025-06-12_13h57.51.429,rtmindeye,2024.2.4,59.94305410113286,2025-06-12 13h58.35.370073 -0400,
blank.jpg,56,1,56,56,0,,,,0,0,1,2,1,"[9, 21, 31, 45, 56, 68, 69]",None,0,,,None,None,None,,,,,,,,,,,1,0,1,0,0,56,56,56,614.7102232000034,,,,,,,,,,,,,,,,,,,,,,614.6937660000112,614.6938087000162,614.701048900024,614.7102232000034,614.7102232000034,614.7102232000034,614.7102232000034,617.7102053000126,617.7102053000126,618.6937187000003,None,0,,,None,618.6937776000123,618.6937985999975,None,618.6938217999996,618.6938391000149,None,618.7098860999977,618.7098860999977,,,,,,,,,,,8,2,0,1,2025-06-12_13h57.51.429,rtmindeye,2024.2.4,59.94305410113286,2025-06-12 13h58.35.370073 -0400,
all_stimuli/MST_pairs1/pair_16_20_0.png,57,0,57,57,0,,,,1,0,1,2,1,"[9, 21, 31, 45, 56, 68, 69]",2,1,0.9398337000166066,0.3669919999956619,None,None,None,,,,,,,,,,,1,0,1,0,0,57,57,57,618.7098860999977,,,,,,,,,,,,,,,,,,,,,,618.6939849000191,618.6940271000203,618.7080905000039,618.7098860999977,618.7098860999977,618.7098860999977,618.7098860999977,621.7102107999963,621.7102107999963,622.6937547000125,2,1,0.9398337000166066,0.3669919999956619,None,622.6938198000134,622.693841100001,None,622.6938651000091,622.6938825999969,None,622.710515600018,622.710515600018,,,,,,,,,,,8,2,0,1,2025-06-12_13h57.51.429,rtmindeye,2024.2.4,59.94305410113286,2025-06-12 13h58.35.370073 -0400,
all_stimuli/shared1000_notspecial/notspecial_12685.png,58,0,58,58,0,,,,0,0,1,2,1,"[9, 21, 31, 45, 56, 68, 69]",1,1,1.1820263999979943,0.40006119999452494,None,None,None,,,,,,,,,,,1,0,1,0,0,58,58,58,622.710515600018,,,,,,,,,,,,,,,,,,,,,,622.6940295000095,622.6940683000139,622.7087096000032,622.710515600018,622.710515600018,622.710515600018,622.710515600018,625.7103095000202,625.7103095000202,626.6935248000082,1,1,1.1820263999979943,0.40006119999452494,None,626.6935889000015,626.6936100000166,None,626.6936334000202,626.6936502000026,None,626.71861120002,626.71861120002,,,,,,,,,,,8,2,0,1,2025-06-12_13h57.51.429,rtmindeye,2024.2.4,59.94305410113286,2025-06-12 13h58.35.370073 -0400,
all_stimuli/MST_pairs1/pair_36_nsd_949_2_cocoid_60031.png,59,0,59,59,0,,,,0,0,1,2,1,"[9, 21, 31, 45, 56, 68, 69]",1,1,2.0139532000175677,0.40211929997894913,None,None,None,,,,,,,,,,,1,0,1,0,0,59,59,59,626.71861120002,,,,,,,,,,,,,,,,,,,,,,626.6938224000041,626.6938626000192,626.7166280000238,626.71861120002,626.71861120002,626.71861120002,626.71861120002,629.7268573000038,629.7268573000038,630.7102372000227,1,1,2.0139532000175677,0.40211929997894913,None,630.7103126000147,630.7103354000137,None,630.710358100012,630.7103751999966,None,,,,,,,,,,,,,8,2,0,1,2025-06-12_13h57.51.429,rtmindeye,2024.2.4,59.94305410113286,2025-06-12 13h58.35.370073 -0400,
all_stimuli/shared1000_notspecial/notspecial_34068.png,60,0,60,60,0,,,,0,0,1,2,1,"[9, 21, 31, 45, 56, 68, 69]",1,1,1.544946300011361,0.4879353000142146,None,None,None,,,,,,,,,,,1,0,1,0,0,60,60,60,630.7397812000127,,,,,,,,,,,,,,,,,,,,,,630.7105282999983,630.7105721000116,630.7381600000081,630.7397812000127,630.7397812000127,630.7397812000127,630.7397812000127,633.7435969000217,633.7435969000217,634.7269607000053,1,1,1.544946300011361,0.4879353000142146,None,634.7270311000175,634.7270533000119,None,634.7270775000216,634.7270955000131,None,,,,,,,,,,,,,8,2,0,1,2025-06-12_13h57.51.429,rtmindeye,2024.2.4,59.94305410113286,2025-06-12 13h58.35.370073 -0400,
all_stimuli/special515/special_11159.jpg,61,0,61,61,0,,,,0,0,1,2,1,"[9, 21, 31, 45, 56, 68, 69]",1,1,1.120931700017536,0.4029265999852214,None,None,None,,,,,,,,,,,1,0,1,0,0,61,61,61,634.7467399000016,,,,,,,,,,,,,,,,,,,,,,634.7272473000048,634.7272908000159,634.74503250001,634.7467399000016,634.7467399000016,634.7467399000016,634.7467399000016,637.7599389000097,637.7599389000097,638.7435120000155,1,1,1.120931700017536,0.4029265999852214,None,638.7435802000109,638.7436023000046,None,638.7436253000051,638.7436431999959,None,,,,,,,,,,,,,8,2,0,1,2025-06-12_13h57.51.429,rtmindeye,2024.2.4,59.94305410113286,2025-06-12 13h58.35.370073 -0400,
all_stimuli/MST_pairs1/pair_34_nsd_875_2_cocoid_72398.png,62,0,62,62,0,,,,1,0,1,2,1,"[9, 21, 31, 45, 56, 68, 69]",2,1,0.8788792999985162,0.38117909998982213,None,None,None,,,,,,,,,,,1,0,1,0,0,62,62,62,638.765642000013,,,,,,,,,,,,,,,,,,,,,,638.743801500008,638.7438454000221,638.7637048000179,638.765642000013,638.765642000013,638.765642000013,638.765642000013,641.7768548000022,641.7768548000022,642.7601323999988,2,1,0.8788792999985162,0.38117909998982213,None,642.7602026000095,642.7602258000115,None,642.7602495000174,642.7602672000066,None,,,,,,,,,,,,,8,2,0,1,2025-06-12_13h57.51.429,rtmindeye,2024.2.4,59.94305410113286,2025-06-12 13h58.35.370073 -0400,
all_stimuli/special515/special_67742.jpg,63,0,63,63,0,,,,0,0,1,2,1,"[9, 21, 31, 45, 56, 68, 69]",1,1,2.4187908000021707,0.3669301000190899,None,None,None,,,,,,,,,,,1,0,1,0,0,63,63,63,642.7767460000177,,,,,,,,,,,,,,,,,,,,,,642.7604239000066,642.7604678000207,642.7749409000098,642.7767460000177,642.7767460000177,642.7767460000177,642.7767460000177,645.7769719000207,645.7769719000207,646.7604592000134,1,1,2.4187908000021707,0.3669301000190899,None,646.760523600009,646.7605449999974,None,646.7605677000247,646.7605849000101,None,646.7765353000141,646.7765353000141,,,,,,,,,,,8,2,0,1,2025-06-12_13h57.51.429,rtmindeye,2024.2.4,59.94305410113286,2025-06-12 13h58.35.370073 -0400,
all_stimuli/MST_pairs1/pair_48_w_runway2.jpg,64,0,64,64,0,,,,0,0,1,2,1,"[9, 21, 31, 45, 56, 68, 69]",2,0,0.8179108999902382,0.36704790001385845,None,None,None,,,,,,,,,,,1,0,1,0,0,64,64,64,646.7765353000141,,,,,,,,,,,,,,,,,,,,,,646.7607447000046,646.7607845000166,646.7731824000075,646.7765353000141,646.7765353000141,646.7765353000141,646.7765353000141,649.7768455000187,649.7768455000187,650.7602903000079,2,0,0.8179108999902382,0.36704790001385845,None,650.7603552000073,650.7603760000202,None,650.7603997999977,650.760417100013,None,650.7766533000104,650.7766533000104,,,,,,,,,,,8,2,0,1,2025-06-12_13h57.51.429,rtmindeye,2024.2.4,59.94305410113286,2025-06-12 13h58.35.370073 -0400,
all_stimuli/MST_pairs1/pair_40_w_escalator1.jpg,65,0,65,65,0,,,,0,0,1,2,1,"[9, 21, 31, 45, 56, 68, 69]",1,1,2.261893200018676,0.31304379997891374,None,None,None,,,,,,,,,,,1,0,1,0,0,65,65,65,650.7766533000104,,,,,,,,,,,,,,,,,,,,,,650.7605673000216,650.7606088000175,650.7728847000108,650.7766533000104,650.7766533000104,650.7766533000104,650.7766533000104,653.776742600021,653.776742600021,654.7603883999982,1,1,2.261893200018676,0.31304379997891374,None,654.7604538000014,654.760474300012,None,654.7604977000155,654.760514900001,None,654.7767592000018,654.7767592000018,,,,,,,,,,,8,2,0,1,2025-06-12_13h57.51.429,rtmindeye,2024.2.4,59.94305410113286,2025-06-12 13h58.35.370073 -0400,
all_stimuli/special515/special_62228.jpg,66,0,66,66,0,,,,1,0,1,2,1,"[9, 21, 31, 45, 56, 68, 69]",2,1,1.235754099994665,0.4070458000060171,None,None,None,,,,,,,,,,,1,0,1,0,0,66,66,66,654.7767592000018,,,,,,,,,,,,,,,,,,,,,,654.7606614000106,654.7607027000049,654.7720081000007,654.7767592000018,654.7767592000018,654.7767592000018,654.7767592000018,657.7764846000064,657.7764846000064,658.7603745000088,2,1,1.235754099994665,0.4070458000060171,None,658.7604389000044,658.7604605000233,None,658.7604843000008,658.7605018000177,None,658.8170332000009,658.8170332000009,,,,,,,,,,,8,2,0,1,2025-06-12_13h57.51.429,rtmindeye,2024.2.4,59.94305410113286,2025-06-12 13h58.35.370073 -0400,
all_stimuli/MST_pairs1/pair_26_nsd_483_2_cocoid_8054.png,67,0,67,67,0,,,,0,0,1,2,1,"[9, 21, 31, 45, 56, 68, 69]",1,1,0.9736495999968611,0.35283720001461916,None,None,None,,,,,,,,,,,1,0,1,0,0,67,67,67,658.8170332000009,,,,,,,,,,,,,,,,,,,,,,658.7606453000044,658.7606839000073,658.815227300016,658.8170332000009,658.8170332000009,658.8170332000009,658.8170332000009,661.8267859000189,661.8267859000189,662.7767568000127,1,1,0.9736495999968611,0.35283720001461916,None,662.7768272999965,662.776850299997,None,662.7768735999998,662.7768915000197,None,,,,,,,,,,,,,8,2,0,1,2025-06-12_13h57.51.429,rtmindeye,2024.2.4,59.94305410113286,2025-06-12 13h58.35.370073 -0400,
blank.jpg,68,1,68,68,0,,,,0,0,1,2,1,"[9, 21, 31, 45, 56, 68, 69]",None,0,,,None,None,None,,,,,,,,,,,1,0,1,0,0,68,68,68,662.7937574000098,,,,,,,,,,,,,,,,,,,,,,662.7770434000122,662.7770871000248,662.7848847999994,662.7937574000098,662.7937574000098,662.7937574000098,662.7937574000098,665.7934275000007,665.7934275000007,666.7769019000116,None,0,,,None,666.7769609999959,666.7769814000058,None,666.7770049000101,666.7770233000047,None,666.7934945000161,666.7934945000161,,,,,,,,,,,8,2,0,1,2025-06-12_13h57.51.429,rtmindeye,2024.2.4,59.94305410113286,2025-06-12 13h58.35.370073 -0400,
blank.jpg,69,1,69,69,0,,,,0,1,1,2,0,"[9, 21, 31, 45, 56, 68, 69]",None,0,,,None,1,equal,7.8782392000139225,None,31.262067400006345,None,,,,,,,1,0,1,0,0,69,69,69,666.7934945000161,,,,,,,,,,,,,,,,,,,,,,666.7771705000196,666.7772199000174,666.7833709999977,666.7934945000161,666.7934945000161,666.7934945000161,666.7934945000161,669.793328300002,669.793328300002,670.7769099000143,None,0,,,None,670.7820152000058,678.6769577000232,1,678.6770140000153,709.9602055000141,equal,670.7933878000185,670.7933878000185,670.7933878000185,670.7933878000185,7.8782392000139225,None,678.6935078999959,678.6935078999959,31.262067400006345,None,,,8,2,0,1,2025-06-12_13h57.51.429,rtmindeye,2024.2.4,59.94305410113286,2025-06-12 13h58.35.370073 -0400,
,,,1,0,1,,,,,,,,,,,,,,,,,,,,,,,,,,,1,0,1,0,,,,,,,,,,,,,,,,,,,,,,,,,,,,,,,,,,,,,,,,,,,,,,,,,,,,,,,,,,,,8,2,0,1,2025-06-12_13h57.51.429,rtmindeye,2024.2.4,59.94305410113286,2025-06-12 13h58.35.370073 -0400,
