current_image,trial_index,is_blank_trial,thisN,thisTrialN,thisRepN,press_if_repeat_2.keys,press_if_repeat_2.corr,all_keys_pressed_2.keys,is_repeat,is_new_run,run_num,sess_num,is_not_last_trial,all_blanks_list,press_if_repeat.keys,press_if_repeat.corr,press_if_repeat.rt,press_if_repeat.duration,all_keys_pressed.keys,key_resp_5.keys,key_resp_4.keys,key_resp_5.rt,key_resp_5.duration,key_resp_4.rt,key_resp_4.duration,practice.thisRepN,practice.thisTrialN,practice.thisN,practice.thisIndex,loop_runs.thisRepN,loop_runs.thisTrialN,loop_runs.thisN,loop_runs.thisIndex,loop_all_images.thisRepN,loop_all_images.thisTrialN,loop_all_images.thisN,loop_all_images.thisIndex,thisRow.t,notes,set_up.started,set_up.stopped,practice_continue.started,practice_continue.stopped,key_resp_6.keys,practice_trial.started,practice_trial.stopped,practice.press_if_repeat_2.keys,practice.press_if_repeat_2.corr,practice.all_keys_pressed_2.keys,testing_continue.started,testing_continue.stopped,key_resp_7.keys,waiting_fmri.started,key_resp_2.started,text_3.started,waiting_fmri.stopped,key_resp_2.keys,key_resp_2.rt,key_resp_2.duration,set_skips_and_correct_key.started,set_skips_and_correct_key.stopped,trial.started,image.started,press_if_repeat.started,polygon.started,all_keys_pressed.started,image.stopped,press_if_repeat.stopped,trial.stopped,loop_all_images.press_if_repeat.keys,loop_all_images.press_if_repeat.corr,loop_all_images.press_if_repeat.rt,loop_all_images.press_if_repeat.duration,loop_all_images.all_keys_pressed.keys,run_wait2_2.started,run_wait2_2.stopped,loop_all_images.key_resp_5.keys,waiting_fmri_2.started,waiting_fmri_2.stopped,loop_all_images.key_resp_4.keys,polygon.stopped,all_keys_pressed.stopped,key_resp_5.started,text_5.started,loop_all_images.key_resp_5.rt,loop_all_images.key_resp_5.duration,key_resp_4.started,text_4.started,loop_all_images.key_resp_4.rt,loop_all_images.key_resp_4.duration,participant,session (1 2 or 3),starting_run,skip_practice,date,expName,psychopyVersion,frameRate,expStart,
,,,,,,,,,,,,,,,,,,,,,,,,,,,,,,,,,,,,,,,,0.0016259001567959785,0.0016898999456316233,,,,,,,,,,,,,,,,,,,,,,,,,,,,,,,,,,,,,,,,,,,,,,,,,,5,4,0,1,2025-04-17_10h00.38.526,rtmindeye,2024.2.4,60.01277067511409,2025-04-17 10h00.49.527935 -0400,
,,,,,,,,,,,,,,,,,,,,,,,,,,,,,,,,,,,,,,,,,,0.006246200064197183,0.006275100167840719,None,,,,,,,,,,,,,,,,,,,,,,,,,,,,,,,,,,,,,,,,,,,,,,,5,4,0,1,2025-04-17_10h00.38.526,rtmindeye,2024.2.4,60.01277067511409,2025-04-17 10h00.49.527935 -0400,
practice_images/w_kitchen2.jpg,0,0,0,0,0,None,0,None,,,,,,,,,,,,,,,,,,0,0,0,0,,,,,,,,,0.10858660005033016,,,,,,,0.030693500069901347,0.030737500172108412,None,0,None,,,,,,,,,,,,,,,,,,,,,,,,,,,,,,,,,,,,,,,,,,5,4,0,1,2025-04-17_10h00.38.526,rtmindeye,2024.2.4,60.01277067511409,2025-04-17 10h00.49.527935 -0400,
practice_images/w_boardwalk2.jpg,1,0,1,1,0,None,0,None,,,,,,,,,,,,,,,,,,0,1,1,1,,,,,,,,,0.10858660005033016,,,,,,,0.03901319997385144,0.03905090014450252,None,0,None,,,,,,,,,,,,,,,,,,,,,,,,,,,,,,,,,,,,,,,,,,5,4,0,1,2025-04-17_10h00.38.526,rtmindeye,2024.2.4,60.01277067511409,2025-04-17 10h00.49.527935 -0400,
practice_images/w_monument2.jpg,2,0,2,2,0,None,0,None,,,,,,,,,,,,,,,,,,0,2,2,2,,,,,,,,,0.10858660005033016,,,,,,,0.04655169998295605,0.04658770002424717,None,0,None,,,,,,,,,,,,,,,,,,,,,,,,,,,,,,,,,,,,,,,,,,5,4,0,1,2025-04-17_10h00.38.526,rtmindeye,2024.2.4,60.01277067511409,2025-04-17 10h00.49.527935 -0400,
practice_images/w_auditorium2.jpg,3,0,3,3,0,None,0,None,,,,,,,,,,,,,,,,,,0,3,3,3,,,,,,,,,0.10858660005033016,,,,,,,0.055171099957078695,0.05520609999075532,None,0,None,,,,,,,,,,,,,,,,,,,,,,,,,,,,,,,,,,,,,,,,,,5,4,0,1,2025-04-17_10h00.38.526,rtmindeye,2024.2.4,60.01277067511409,2025-04-17 10h00.49.527935 -0400,
practice_images/w_kitchen2.jpg,4,0,4,4,0,None,0,None,,,,,,,,,,,,,,,,,,0,4,4,4,,,,,,,,,0.10858660005033016,,,,,,,0.059306500013917685,0.05933950003236532,None,0,None,,,,,,,,,,,,,,,,,,,,,,,,,,,,,,,,,,,,,,,,,,5,4,0,1,2025-04-17_10h00.38.526,rtmindeye,2024.2.4,60.01277067511409,2025-04-17 10h00.49.527935 -0400,
practice_images/w_auditorium1.jpg,5,0,5,5,0,None,0,None,,,,,,,,,,,,,,,,,,0,5,5,5,,,,,,,,,0.10858660005033016,,,,,,,0.06787360017187893,0.0679063000716269,None,0,None,,,,,,,,,,,,,,,,,,,,,,,,,,,,,,,,,,,,,,,,,,5,4,0,1,2025-04-17_10h00.38.526,rtmindeye,2024.2.4,60.01277067511409,2025-04-17 10h00.49.527935 -0400,
practice_images/w_bedroom2.jpg,6,0,6,6,0,None,0,None,,,,,,,,,,,,,,,,,,0,6,6,6,,,,,,,,,0.10858660005033016,,,,,,,0.07655620016157627,0.07658890006132424,None,0,None,,,,,,,,,,,,,,,,,,,,,,,,,,,,,,,,,,,,,,,,,,5,4,0,1,2025-04-17_10h00.38.526,rtmindeye,2024.2.4,60.01277067511409,2025-04-17 10h00.49.527935 -0400,
practice_images/w_kitchen1.jpg,7,0,7,7,0,None,0,None,,,,,,,,,,,,,,,,,,0,7,7,7,,,,,,,,,0.10858660005033016,,,,,,,0.08597750007174909,0.08601139998063445,None,0,None,,,,,,,,,,,,,,,,,,,,,,,,,,,,,,,,,,,,,,,,,,5,4,0,1,2025-04-17_10h00.38.526,rtmindeye,2024.2.4,60.01277067511409,2025-04-17 10h00.49.527935 -0400,
practice_images/w_bedroom1.jpg,8,0,8,8,0,None,0,None,,,,,,,,,,,,,,,,,,0,8,8,8,,,,,,,,,0.10858660005033016,,,,,,,0.09586160001344979,0.09590800013393164,None,0,None,,,,,,,,,,,,,,,,,,,,,,,,,,,,,,,,,,,,,,,,,,5,4,0,1,2025-04-17_10h00.38.526,rtmindeye,2024.2.4,60.01277067511409,2025-04-17 10h00.49.527935 -0400,
practice_images/w_monument2.jpg,9,0,9,9,0,None,0,None,,,,,,,,,,,,,,,,,,0,9,9,9,,,,,,,,,0.10858660005033016,,,,,,,0.10017820005305111,0.10022420017048717,None,0,None,,,,,,,,,,,,,,,,,,,,,,,,,,,,,,,,,,,,,,,,,,5,4,0,1,2025-04-17_10h00.38.526,rtmindeye,2024.2.4,60.01277067511409,2025-04-17 10h00.49.527935 -0400,
,,,,,,,,,,,,,,,,,,,,,,,,,,,,,,,,,,,,,,,,,,,,,,,,,,0.10622790013439953,0.10625379998236895,None,,,,,,,,,,,,,,,,,,,,,,,,,,,,,,,,,,,,,,,5,4,0,1,2025-04-17_10h00.38.526,rtmindeye,2024.2.4,60.01277067511409,2025-04-17 10h00.49.527935 -0400,
,,,,,,,,,,,,,,,,,,,,,,,,,,,,,,,,,,,,,,,,,,,,,,,,,,,,,0.10627690004184842,0.10858660005033016,0.10858660005033016,147.45016480004415,equal,147.31386190000921,None,,,,,,,,,,,,,,,,,,,,,,,,,,,,,,,,5,4,0,1,2025-04-17_10h00.38.526,rtmindeye,2024.2.4,60.01277067511409,2025-04-17 10h00.49.527935 -0400,
all_stimuli/special515/special_13613.jpg,0,0,0,0,0,,,,0,0,0,4,1,"[9, 21, 31, 45, 56, 68, 69]",1,1,0.7490187000948936,0.6650318999309093,None,None,None,,,,,,,,,0,0,0,0,0,0,0,0,147.51948769995943,,,,,,,,,,,,,,,,,,,,,,147.47786170011386,147.47790950001217,147.50749110011384,147.51948769995943,147.51948769995943,147.51948769995943,147.51948769995943,150.52088740002364,150.52088740002364,151.48742630006745,1,1,0.7490187000948936,0.6650318999309093,None,151.48749900003895,151.48752430011518,None,151.48754720017314,151.4875650999602,None,,,,,,,,,,,5,4,0,1,2025-04-17_10h00.38.526,rtmindeye,2024.2.4,60.01277067511409,2025-04-17 10h00.49.527935 -0400,
all_stimuli/shared1000_notspecial/notspecial_31049.png,1,0,1,1,0,,,,0,0,0,4,1,"[9, 21, 31, 45, 56, 68, 69]",1,1,0.9743180999066681,0.11911500012502074,None,None,None,,,,,,,,,0,0,0,0,0,1,1,1,151.55111510003917,,,,,,,,,,,,,,,,,,,,,,151.48771340004168,151.48775830003433,151.54758729995228,151.55111510003917,151.55111510003917,151.55111510003917,151.55111510003917,154.55418530013412,154.55418530013412,155.50403130007908,1,1,0.9743180999066681,0.11911500012502074,None,155.50410330016166,155.50412599998526,None,155.5041495000478,155.50416700006463,None,,,,,,,,,,,5,4,0,1,2025-04-17_10h00.38.526,rtmindeye,2024.2.4,60.01277067511409,2025-04-17 10h00.49.527935 -0400,
all_stimuli/special515/special_28096.jpg,2,0,2,2,0,,,,0,0,0,4,1,"[9, 21, 31, 45, 56, 68, 69]",1,1,0.5520440998952836,0.11183009995147586,None,None,None,,,,,,,,,0,0,0,0,0,2,2,2,155.53060550009832,,,,,,,,,,,,,,,,,,,,,,155.50432569999248,155.50437630014494,155.52794590010308,155.53060550009832,155.53060550009832,155.53060550009832,155.53060550009832,158.53756200009957,158.53756200009957,159.52082890016027,1,1,0.5520440998952836,0.11183009995147586,None,159.52089769998565,159.52091900003143,None,159.52094239997678,159.52096049999818,None,,,,,,,,,,,5,4,0,1,2025-04-17_10h00.38.526,rtmindeye,2024.2.4,60.01277067511409,2025-04-17 10h00.49.527935 -0400,
all_stimuli/shared1000_notspecial/notspecial_68471.png,3,0,3,3,0,,,,0,0,0,4,1,"[9, 21, 31, 45, 56, 68, 69]",1,1,0.6486019999720156,0.10087570012547076,None,None,None,,,,,,,,,0,0,0,0,0,3,3,3,159.56501780007966,,,,,,,,,,,,,,,,,,,,,,159.52110960008577,159.52115390007384,159.56334640015848,159.56501780007966,159.56501780007966,159.56501780007966,159.56501780007966,162.57087650010362,162.57087650010362,163.5374386999756,1,1,0.6486019999720156,0.10087570012547076,None,163.53750720014796,163.53752829995938,None,163.53755160002038,163.53756910003722,None,,,,,,,,,,,5,4,0,1,2025-04-17_10h00.38.526,rtmindeye,2024.2.4,60.01277067511409,2025-04-17 10h00.49.527935 -0400,
all_stimuli/special515/special_15506.jpg,4,0,4,4,0,,,,0,0,0,4,1,"[9, 21, 31, 45, 56, 68, 69]",1,1,0.7425381999928504,0.10512250009924173,None,None,None,,,,,,,,,0,0,0,0,0,4,4,4,163.5658226001542,,,,,,,,,,,,,,,,,,,,,,163.5377174001187,163.53776199999265,163.56385969999246,163.5658226001542,163.5658226001542,163.5658226001542,163.5658226001542,166.57081950013526,166.57081950013526,167.55436519999057,1,1,0.7425381999928504,0.10512250009924173,None,167.55443360004574,167.55445499997586,None,167.55447840015404,167.5544953001663,None,,,,,,,,,,,5,4,0,1,2025-04-17_10h00.38.526,rtmindeye,2024.2.4,60.01277067511409,2025-04-17 10h00.49.527935 -0400,
all_stimuli/MST_pairs1/pair_24_nsd_158_1_cocoid_2285.png,5,0,5,5,0,,,,0,0,0,4,1,"[9, 21, 31, 45, 56, 68, 69]",1,1,0.8531661001034081,0.0999159999191761,None,None,None,,,,,,,,,0,0,0,0,0,5,5,5,167.87441020016558,,,,,,,,,,,,,,,,,,,,,,167.55464310012758,167.55468709999695,167.87030109995976,167.87441020016558,167.87441020016558,167.87441020016558,167.87441020016558,170.88749480014667,170.88749480014667,171.57091450016014,1,1,0.8531661001034081,0.0999159999191761,None,171.57098400010727,171.57100560003892,None,171.57102930010296,171.57104690000415,None,,,,,,,,,,,5,4,0,1,2025-04-17_10h00.38.526,rtmindeye,2024.2.4,60.01277067511409,2025-04-17 10h00.49.527935 -0400,
all_stimuli/MST_pairs1/pair_10_14_89.png,6,0,6,6,0,,,,0,0,0,4,1,"[9, 21, 31, 45, 56, 68, 69]",1,1,0.8037089998833835,0.11600950011052191,None,None,None,,,,,,,,,0,0,0,0,0,6,6,6,171.59671370009892,,,,,,,,,,,,,,,,,,,,,,171.57119700009935,171.57124130008742,171.59503530012444,171.59671370009892,171.59671370009892,171.59671370009892,171.59671370009892,174.60412050015293,174.60412050015293,175.58728020009585,1,1,0.8037089998833835,0.11600950011052191,None,175.58736020000651,175.58738230005838,None,175.587406600127,175.5874236000236,None,,,,,,,,,,,5,4,0,1,2025-04-17_10h00.38.526,rtmindeye,2024.2.4,60.01277067511409,2025-04-17 10h00.49.527935 -0400,
all_stimuli/special515/special_62015.jpg,7,0,7,7,0,,,,0,0,0,4,1,"[9, 21, 31, 45, 56, 68, 69]",1,1,0.8563239998184144,0.09302100003696978,None,None,None,,,,,,,,,0,0,0,0,0,7,7,7,175.6201843000017,,,,,,,,,,,,,,,,,,,,,,175.58758660010062,175.58764489996247,175.6181101000402,175.6201843000017,175.6201843000017,175.6201843000017,175.6201843000017,178.6209720999468,178.6209720999468,179.6041264999658,1,1,0.8563239998184144,0.09302100003696978,None,179.60419780015945,179.60422009998,None,179.60424360004254,179.60426070005633,None,,,,,,,,,,,5,4,0,1,2025-04-17_10h00.38.526,rtmindeye,2024.2.4,60.01277067511409,2025-04-17 10h00.49.527935 -0400,
all_stimuli/special515/special_47687.jpg,8,0,8,8,0,,,,0,0,0,4,1,"[9, 21, 31, 45, 56, 68, 69]",1,1,0.7537253999616951,0.10691890004090965,None,None,None,,,,,,,,,0,0,0,0,0,8,8,8,179.62676650006324,,,,,,,,,,,,,,,,,,,,,,179.60440990002826,179.60445490013808,179.62501309998333,179.62676650006324,179.62676650006324,179.62676650006324,179.62676650006324,182.63731370004825,182.63731370004825,183.62104060011916,1,1,0.7537253999616951,0.10691890004090965,None,183.6211067000404,183.62112780008465,None,183.62115080002695,183.6211683000438,None,,,,,,,,,,,5,4,0,1,2025-04-17_10h00.38.526,rtmindeye,2024.2.4,60.01277067511409,2025-04-17 10h00.49.527935 -0400,
blank.jpg,9,1,9,9,0,,,,0,0,0,4,1,"[9, 21, 31, 45, 56, 68, 69]",None,0,,,None,None,None,,,,,,,,,0,0,0,0,0,9,9,9,183.63729150011204,,,,,,,,,,,,,,,,,,,,,,183.62131740013137,183.62136160000227,183.63350520003587,183.63729150011204,183.63729150011204,183.63729150011204,183.63729150011204,186.63747130008414,186.63747130008414,187.62106500007212,None,0,,,None,187.62112320004962,187.62114330008626,None,187.62116710003465,187.62118450016715,None,187.6495296000503,187.6495296000503,,,,,,,,,5,4,0,1,2025-04-17_10h00.38.526,rtmindeye,2024.2.4,60.01277067511409,2025-04-17 10h00.49.527935 -0400,
all_stimuli/special515/special_4249.jpg,10,0,10,10,0,,,,0,0,0,4,1,"[9, 21, 31, 45, 56, 68, 69]",1,1,0.8139508001040667,0.1138855000026524,None,None,None,,,,,,,,,0,0,0,0,0,10,10,10,187.6495296000503,,,,,,,,,,,,,,,,,,,,,,187.6213336000219,187.62137340009212,187.6478347000666,187.6495296000503,187.6495296000503,187.6495296000503,187.6495296000503,190.65423620003276,190.65423620003276,191.6373018999584,1,1,0.8139508001040667,0.1138855000026524,None,191.6373713000212,191.63739240006544,None,191.63741610012949,191.6374342001509,None,,,,,,,,,,,5,4,0,1,2025-04-17_10h00.38.526,rtmindeye,2024.2.4,60.01277067511409,2025-04-17 10h00.49.527935 -0400,
all_stimuli/special515/special_54361.jpg,11,0,11,11,0,,,,0,0,0,4,1,"[9, 21, 31, 45, 56, 68, 69]",1,1,0.820146800018847,0.17577919992618263,None,None,None,,,,,,,,,0,0,0,0,0,11,11,11,191.65843489998952,,,,,,,,,,,,,,,,,,,,,,191.63758830004372,191.63763230014592,191.65670659998432,191.65843489998952,191.65843489998952,191.65843489998952,191.65843489998952,194.6705700000748,194.6705700000748,195.65390509995632,1,1,0.820146800018847,0.17577919992618263,None,195.65397830004804,195.6540004000999,None,195.6540252000559,195.65404350007884,None,,,,,,,,,,,5,4,0,1,2025-04-17_10h00.38.526,rtmindeye,2024.2.4,60.01277067511409,2025-04-17 10h00.49.527935 -0400,
all_stimuli/special515/special_6489.jpg,12,0,12,12,0,,,,0,0,0,4,1,"[9, 21, 31, 45, 56, 68, 69]",1,1,0.9562530000694096,0.13612550008110702,None,None,None,,,,,,,,,0,0,0,0,0,12,12,12,195.6921936001163,,,,,,,,,,,,,,,,,,,,,,195.65420340001583,195.65425070002675,195.69041389995255,195.6921936001163,195.6921936001163,195.6921936001163,195.6921936001163,198.70405560010113,198.70405560010113,199.67089750012383,1,1,0.9562530000694096,0.13612550008110702,None,199.6709660999477,199.67098739999346,None,199.6710104001686,199.67103009996936,None,,,,,,,,,,,5,4,0,1,2025-04-17_10h00.38.526,rtmindeye,2024.2.4,60.01277067511409,2025-04-17 10h00.49.527935 -0400,
all_stimuli/special515/special_38641.jpg,13,0,13,13,0,,,,0,0,0,4,1,"[9, 21, 31, 45, 56, 68, 69]",1,1,1.0336229000240564,0.13494799984619021,None,None,None,,,,,,,,,0,0,0,0,0,13,13,13,199.70581439998932,,,,,,,,,,,,,,,,,,,,,,199.67118229996413,199.67122650006786,199.70395550015382,199.70581439998932,199.70581439998932,199.70581439998932,199.70581439998932,202.7208209000528,202.7208209000528,203.68729960010387,1,1,1.0336229000240564,0.13494799984619021,None,203.6873684001621,203.6873898000922,None,203.68741510016844,203.6874351000879,None,,,,,,,,,,,5,4,0,1,2025-04-17_10h00.38.526,rtmindeye,2024.2.4,60.01277067511409,2025-04-17 10h00.49.527935 -0400,
all_stimuli/shared1000_notspecial/notspecial_67168.png,14,0,14,14,0,,,,0,0,0,4,1,"[9, 21, 31, 45, 56, 68, 69]",1,1,0.763980999821797,0.14287590002641082,None,None,None,,,,,,,,,0,0,0,0,0,14,14,14,203.71149830007926,,,,,,,,,,,,,,,,,,,,,,203.6875871999655,203.68763180007227,203.70971650001593,203.71149830007926,203.71149830007926,203.71149830007926,203.71149830007926,206.72092780005187,206.72092780005187,207.70423210016452,1,1,0.763980999821797,0.14287590002641082,None,207.704300200101,207.70432150014676,None,207.7043453999795,207.7043635000009,None,,,,,,,,,,,5,4,0,1,2025-04-17_10h00.38.526,rtmindeye,2024.2.4,60.01277067511409,2025-04-17 10h00.49.527935 -0400,
all_stimuli/shared1000_notspecial/notspecial_59079.png,15,0,15,15,0,,,,0,0,0,4,1,"[9, 21, 31, 45, 56, 68, 69]",1,1,0.8276394000276923,0.08409260003827512,None,None,None,,,,,,,,,0,0,0,0,0,15,15,15,207.7328473001253,,,,,,,,,,,,,,,,,,,,,,207.70451289997436,207.7045567999594,207.7310941000469,207.7328473001253,207.7328473001253,207.7328473001253,207.7328473001253,210.73740690015256,210.73740690015256,211.7208066000603,1,1,0.8276394000276923,0.08409260003827512,None,211.72087730001658,211.72089829994366,None,211.7209213001188,211.72093880013563,None,,,,,,,,,,,5,4,0,1,2025-04-17_10h00.38.526,rtmindeye,2024.2.4,60.01277067511409,2025-04-17 10h00.49.527935 -0400,
all_stimuli/MST_pairs1/pair_2_4_89.png,16,0,16,16,0,,,,0,0,0,4,1,"[9, 21, 31, 45, 56, 68, 69]",1,1,0.6411646998021752,0.16795200016349554,None,None,None,,,,,,,,,0,0,0,0,0,16,16,16,211.76623010006733,,,,,,,,,,,,,,,,,,,,,,211.7210959000513,211.72114100004546,211.7645099000074,211.76623010006733,211.76623010006733,211.76623010006733,211.76623010006733,214.77079600002617,214.77079600002617,215.73722909996286,1,1,0.6411646998021752,0.16795200016349554,None,215.7373085001018,215.73733030003496,None,215.73735389998183,215.73737139999866,None,,,,,,,,,,,5,4,0,1,2025-04-17_10h00.38.526,rtmindeye,2024.2.4,60.01277067511409,2025-04-17 10h00.49.527935 -0400,
all_stimuli/shared1000_notspecial/notspecial_26127.png,17,0,17,17,0,,,,0,0,0,4,1,"[9, 21, 31, 45, 56, 68, 69]",1,1,0.9367440000642091,0.11607369990088046,None,None,None,,,,,,,,,0,0,0,0,0,17,17,17,215.76571390009485,,,,,,,,,,,,,,,,,,,,,,215.73753369995393,215.73758910014294,215.76380420010537,215.76571390009485,215.76571390009485,215.76571390009485,215.76571390009485,218.77086260006763,218.77086260006763,219.7540372000076,1,1,0.9367440000642091,0.11607369990088046,None,219.75410549994558,219.75412599998526,None,219.75414910004474,219.754166000057,None,,,,,,,,,,,5,4,0,1,2025-04-17_10h00.38.526,rtmindeye,2024.2.4,60.01277067511409,2025-04-17 10h00.49.527935 -0400,
all_stimuli/shared1000_notspecial/notspecial_20223.png,18,0,18,18,0,,,,0,0,0,4,1,"[9, 21, 31, 45, 56, 68, 69]",1,1,0.9893355998210609,0.11970770009793341,None,None,None,,,,,,,,,0,0,0,0,0,18,18,18,219.77928659995086,,,,,,,,,,,,,,,,,,,,,,219.75431550014764,219.7543596001342,219.77750089997426,219.77928659995086,219.77928659995086,219.77928659995086,219.77928659995086,222.78739330009557,222.78739330009557,223.7709481001366,1,1,0.9893355998210609,0.11970770009793341,None,223.7710156000685,223.7710363001097,None,223.77105980017222,223.7710770999547,None,,,,,,,,,,,5,4,0,1,2025-04-17_10h00.38.526,rtmindeye,2024.2.4,60.01277067511409,2025-04-17 10h00.49.527935 -0400,
all_stimuli/special515/special_62015.jpg,19,0,19,19,0,,,,1,0,0,4,1,"[9, 21, 31, 45, 56, 68, 69]",2,1,0.8657263000495732,0.25818359991535544,None,None,None,,,,,,,,,0,0,0,0,0,19,19,19,223.7876953999512,,,,,,,,,,,,,,,,,,,,,,223.7712288000621,223.7712725000456,223.78010289999656,223.7876953999512,223.7876953999512,223.7876953999512,223.7876953999512,226.787286600098,226.787286600098,227.77105980017222,2,1,0.8657263000495732,0.25818359991535544,None,227.77112379996106,227.77114440011792,None,227.7711678999476,227.77118519996293,None,227.7954748000484,227.7954748000484,,,,,,,,,5,4,0,1,2025-04-17_10h00.38.526,rtmindeye,2024.2.4,60.01277067511409,2025-04-17 10h00.49.527935 -0400,
all_stimuli/special515/special_10244.jpg,20,0,20,20,0,,,,0,0,0,4,1,"[9, 21, 31, 45, 56, 68, 69]",1,1,0.7758813998661935,0.24118339992128313,None,None,None,,,,,,,,,0,0,0,0,0,20,20,20,227.7954748000484,,,,,,,,,,,,,,,,,,,,,,227.77133759995922,227.77137720002793,227.79360360000283,227.7954748000484,227.7954748000484,227.7954748000484,227.7954748000484,230.80407089996152,230.80407089996152,231.78734940011054,1,1,0.7758813998661935,0.24118339992128313,None,231.78741840017028,231.78744000010192,None,231.7874644000549,231.78748179995455,None,,,,,,,,,,,5,4,0,1,2025-04-17_10h00.38.526,rtmindeye,2024.2.4,60.01277067511409,2025-04-17 10h00.49.527935 -0400,
blank.jpg,21,1,21,21,0,,,,0,0,0,4,1,"[9, 21, 31, 45, 56, 68, 69]",None,0,,,None,None,None,,,,,,,,,0,0,0,0,0,21,21,21,231.80424440000206,,,,,,,,,,,,,,,,,,,,,,231.7877697001677,231.78781790006906,231.7950603000354,231.80424440000206,231.80424440000206,231.80424440000206,231.80424440000206,234.80397520004772,234.80397520004772,235.787382400129,None,0,,,None,235.7874429000076,235.7874631001614,None,235.78748599998653,235.78750310000032,None,235.81040260009468,235.81040260009468,,,,,,,,,5,4,0,1,2025-04-17_10h00.38.526,rtmindeye,2024.2.4,60.01277067511409,2025-04-17 10h00.49.527935 -0400,
all_stimuli/special515/special_28524.jpg,22,0,22,22,0,,,,0,0,0,4,1,"[9, 21, 31, 45, 56, 68, 69]",1,1,0.5921024999115616,0.14497300004586577,None,None,None,,,,,,,,,0,0,0,0,0,22,22,22,235.81040260009468,,,,,,,,,,,,,,,,,,,,,,235.7876726000104,235.78771320008673,235.8085388999898,235.81040260009468,235.81040260009468,235.81040260009468,235.81040260009468,238.8208703000564,238.8208703000564,239.80411530006677,1,1,0.5921024999115616,0.14497300004586577,None,239.80418450012803,239.80420579994097,None,239.8042296001222,239.80424760002643,None,,,,,,,,,,,5,4,0,1,2025-04-17_10h00.38.526,rtmindeye,2024.2.4,60.01277067511409,2025-04-17 10h00.49.527935 -0400,
all_stimuli/special515/special_30430.jpg,23,0,23,23,0,,,,0,0,0,4,1,"[9, 21, 31, 45, 56, 68, 69]",1,1,1.132542199920863,0.13396030012518167,None,None,None,,,,,,,,,0,0,0,0,0,23,23,23,239.82793750008568,,,,,,,,,,,,,,,,,,,,,,239.8043990000151,239.80444400012493,239.82616950012743,239.82793750008568,239.82793750008568,239.82793750008568,239.82793750008568,242.83732970012352,242.83732970012352,243.82079500006512,1,1,1.132542199920863,0.13396030012518167,None,243.82086480013095,243.82088729995303,None,243.82091060001403,243.820927800145,None,,,,,,,,,,,5,4,0,1,2025-04-17_10h00.38.526,rtmindeye,2024.2.4,60.01277067511409,2025-04-17 10h00.49.527935 -0400,
all_stimuli/MST_pairs1/pair_10_14_33.png,24,0,24,24,0,,,,0,0,0,4,1,"[9, 21, 31, 45, 56, 68, 69]",1,1,1.3080543999094516,0.1349119001533836,None,None,None,,,,,,,,,0,0,0,0,0,24,24,24,243.83850260009058,,,,,,,,,,,,,,,,,,,,,,243.82108570006676,243.821130100172,243.83683259994723,243.83850260009058,243.83850260009058,243.83850260009058,243.83850260009058,246.853731200099,246.853731200099,247.8210460001137,1,1,1.3080543999094516,0.1349119001533836,None,247.82110960013233,247.8211298000533,None,247.82115299999714,247.82116960012354,None,247.83817430003546,247.83817430003546,,,,,,,,,5,4,0,1,2025-04-17_10h00.38.526,rtmindeye,2024.2.4,60.01277067511409,2025-04-17 10h00.49.527935 -0400,
all_stimuli/shared1000_notspecial/notspecial_10907.png,25,0,25,25,0,,,,0,0,0,4,1,"[9, 21, 31, 45, 56, 68, 69]",1,1,0.9492047000676394,0.22505379980430007,None,None,None,,,,,,,,,0,0,0,0,0,25,25,25,247.83817430003546,,,,,,,,,,,,,,,,,,,,,,247.82132560014725,247.82136470009573,247.83654480008408,247.83817430003546,247.83817430003546,247.83817430003546,247.83817430003546,250.83724809996784,250.83724809996784,251.82080810004845,1,1,0.9492047000676394,0.22505379980430007,None,251.82087659998797,251.82089810003527,None,251.82092100009322,251.82093779998831,None,251.8785803001374,251.8785803001374,,,,,,,,,5,4,0,1,2025-04-17_10h00.38.526,rtmindeye,2024.2.4,60.01277067511409,2025-04-17 10h00.49.527935 -0400,
all_stimuli/special515/special_22587.jpg,26,0,26,26,0,,,,0,0,0,4,1,"[9, 21, 31, 45, 56, 68, 69]",1,1,1.1498906000051647,0.18805679981596768,None,None,None,,,,,,,,,0,0,0,0,0,26,26,26,251.8785803001374,,,,,,,,,,,,,,,,,,,,,,251.82108639995568,251.82112580002286,251.8766648999881,251.8785803001374,251.8785803001374,251.8785803001374,251.8785803001374,254.8874260999728,254.8874260999728,255.8373362000566,1,1,1.1498906000051647,0.18805679981596768,None,255.83740850002505,255.83743080007844,None,255.83745450014248,255.83747200015932,None,,,,,,,,,,,5,4,0,1,2025-04-17_10h00.38.526,rtmindeye,2024.2.4,60.01277067511409,2025-04-17 10h00.49.527935 -0400,
all_stimuli/special515/special_3687.jpg,27,0,27,27,0,,,,0,0,0,4,1,"[9, 21, 31, 45, 56, 68, 69]",1,1,0.8649275999050587,0.13984770001843572,None,None,None,,,,,,,,,0,0,0,0,0,27,27,27,255.86556069995277,,,,,,,,,,,,,,,,,,,,,,255.83762810006738,255.83767250017263,255.86387849994935,255.86556069995277,255.86556069995277,255.86556069995277,255.86556069995277,258.8707886999473,258.8707886999473,259.85405030008405,1,1,0.8649275999050587,0.13984770001843572,None,259.85412040003575,259.8541421999689,None,259.8541656001471,259.8541829001624,None,,,,,,,,,,,5,4,0,1,2025-04-17_10h00.38.526,rtmindeye,2024.2.4,60.01277067511409,2025-04-17 10h00.49.527935 -0400,
all_stimuli/shared1000_notspecial/notspecial_58164.png,28,0,28,28,0,,,,0,0,0,4,1,"[9, 21, 31, 45, 56, 68, 69]",1,1,0.8372028998564929,0.18285889993421733,None,None,None,,,,,,,,,0,0,0,0,0,28,28,28,259.876370199956,,,,,,,,,,,,,,,,,,,,,,259.854339200072,259.85438379994594,259.8745744000189,259.876370199956,259.876370199956,259.876370199956,259.876370199956,262.88750119996257,262.88750119996257,263.8707270999439,1,1,0.8372028998564929,0.18285889993421733,None,263.8707957000006,263.8708170000464,None,263.8708409999963,263.87085800012574,None,,,,,,,,,,,5,4,0,1,2025-04-17_10h00.38.526,rtmindeye,2024.2.4,60.01277067511409,2025-04-17 10h00.49.527935 -0400,
all_stimuli/special515/special_38494.jpg,29,0,29,29,0,,,,0,0,0,4,1,"[9, 21, 31, 45, 56, 68, 69]",1,1,1.0033565000630915,0.2609913998749107,None,None,None,,,,,,,,,0,0,0,0,0,29,29,29,263.89511739998125,,,,,,,,,,,,,,,,,,,,,,263.87100960011594,263.87105740001425,263.8933749999851,263.89511739998125,263.89511739998125,263.89511739998125,263.89511739998125,266.9040173999965,266.9040173999965,267.8872875000816,1,1,1.0033565000630915,0.2609913998749107,None,267.8873568000272,267.88737839995883,None,267.8874024001416,267.88742030016147,None,,,,,,,,,,,5,4,0,1,2025-04-17_10h00.38.526,rtmindeye,2024.2.4,60.01277067511409,2025-04-17 10h00.49.527935 -0400,
all_stimuli/MST_pairs1/pair_12_16_22.png,30,0,30,30,0,,,,0,0,0,4,1,"[9, 21, 31, 45, 56, 68, 69]",1,1,1.0917905000969768,0.1489997000899166,None,None,None,,,,,,,,,0,0,0,0,0,30,30,30,267.9165890000295,,,,,,,,,,,,,,,,,,,,,,267.88757090014406,267.88761520013213,267.9149037001189,267.9165890000295,267.9165890000295,267.9165890000295,267.9165890000295,270.920775400009,270.920775400009,271.90404630010016,1,1,1.0917905000969768,0.1489997000899166,None,271.9041174000595,271.9041389001068,None,271.9041624001693,271.9041794000659,None,,,,,,,,,,,5,4,0,1,2025-04-17_10h00.38.526,rtmindeye,2024.2.4,60.01277067511409,2025-04-17 10h00.49.527935 -0400,
blank.jpg,31,1,31,31,0,,,,0,0,0,4,1,"[9, 21, 31, 45, 56, 68, 69]",None,0,,,None,None,None,,,,,,,,,0,0,0,0,0,31,31,31,271.92057269997895,,,,,,,,,,,,,,,,,,,,,,271.9043306000531,271.9043748001568,271.91058170003816,271.92057269997895,271.92057269997895,271.92057269997895,271.92057269997895,274.9207499001641,274.9207499001641,275.90413239994086,None,0,,,None,275.90419180016033,275.9042130999733,None,275.9042377001606,275.90425510006025,None,275.9282142999582,275.9282142999582,,,,,,,,,5,4,0,1,2025-04-17_10h00.38.526,rtmindeye,2024.2.4,60.01277067511409,2025-04-17 10h00.49.527935 -0400,
all_stimuli/special515/special_66489.jpg,32,0,32,32,0,,,,0,0,0,4,1,"[9, 21, 31, 45, 56, 68, 69]",1,1,0.7292088998947293,0.23393619991838932,None,None,None,,,,,,,,,0,0,0,0,0,32,32,32,275.9282142999582,,,,,,,,,,,,,,,,,,,,,,275.90440570004284,275.9044459001161,275.92637650016695,275.9282142999582,275.9282142999582,275.9282142999582,275.9282142999582,278.937316800002,278.937316800002,279.9201237000525,1,1,0.7292088998947293,0.23393619991838932,None,279.9201936000027,279.9202148001641,None,279.92023869999684,279.9202559001278,None,,,,,,,,,,,5,4,0,1,2025-04-17_10h00.38.526,rtmindeye,2024.2.4,60.01277067511409,2025-04-17 10h00.49.527935 -0400,
all_stimuli/MST_pairs1/pair_28_nsd_547_1_cocoid_60932.png,33,0,33,33,0,,,,0,0,0,4,1,"[9, 21, 31, 45, 56, 68, 69]",1,1,0.8854734001215547,0.12994469981640577,None,None,None,,,,,,,,,0,0,0,0,0,33,33,33,279.9739998001605,,,,,,,,,,,,,,,,,,,,,,279.9204180999659,279.920462399954,279.972125899978,279.9739998001605,279.9739998001605,279.9739998001605,279.9739998001605,282.98737170011736,282.98737170011736,283.92075720010325,1,1,0.8854734001215547,0.12994469981640577,None,283.9208270001691,283.9208488999866,None,283.9208722000476,283.9208891999442,None,,,,,,,,,,,5,4,0,1,2025-04-17_10h00.38.526,rtmindeye,2024.2.4,60.01277067511409,2025-04-17 10h00.49.527935 -0400,
all_stimuli/shared1000_notspecial/notspecial_46002.png,34,0,34,34,0,,,,0,0,0,4,1,"[9, 21, 31, 45, 56, 68, 69]",1,1,0.8257785998284817,0.18805340002290905,None,None,None,,,,,,,,,0,0,0,0,0,34,34,34,284.0496132001281,,,,,,,,,,,,,,,,,,,,,,283.92104850010946,283.92109349998645,284.0460334001109,284.0496132001281,284.0496132001281,284.0496132001281,284.0496132001281,287.05401129997335,287.05401129997335,287.9375291999895,1,1,0.8257785998284817,0.18805340002290905,None,287.93759850016795,287.9376197999809,None,287.9376441000495,287.93766160006635,None,,,,,,,,,,,5,4,0,1,2025-04-17_10h00.38.526,rtmindeye,2024.2.4,60.01277067511409,2025-04-17 10h00.49.527935 -0400,
all_stimuli/special515/special_30632.jpg,35,0,35,35,0,,,,0,0,0,4,1,"[9, 21, 31, 45, 56, 68, 69]",1,1,0.772354600019753,0.16704829991795123,None,None,None,,,,,,,,,0,0,0,0,0,35,35,35,287.95403150003403,,,,,,,,,,,,,,,,,,,,,,287.93781469995156,287.93785950005986,287.95026080007665,287.95403150003403,287.95403150003403,287.95403150003403,287.95403150003403,290.95392440003343,290.95392440003343,291.93755010003224,1,1,0.772354600019753,0.16704829991795123,None,291.93761350004934,291.93763420009054,None,291.937658400042,291.93767560017295,None,291.9637254001573,291.9637254001573,,,,,,,,,5,4,0,1,2025-04-17_10h00.38.526,rtmindeye,2024.2.4,60.01277067511409,2025-04-17 10h00.49.527935 -0400,
all_stimuli/special515/special_31936.jpg,36,0,36,36,0,,,,0,0,0,4,1,"[9, 21, 31, 45, 56, 68, 69]",1,1,0.8367534000426531,0.12085260008461773,None,None,None,,,,,,,,,0,0,0,0,0,36,36,36,291.9637254001573,,,,,,,,,,,,,,,,,,,,,,291.937827100046,291.9378661001101,291.96197850001045,291.9637254001573,291.9637254001573,291.9637254001573,291.9637254001573,294.9705699000042,294.9705699000042,295.95397200016305,1,1,0.8367534000426531,0.12085260008461773,None,295.95404260000214,295.9540642001666,None,295.95408840011805,295.9541056000162,None,,,,,,,,,,,5,4,0,1,2025-04-17_10h00.38.526,rtmindeye,2024.2.4,60.01277067511409,2025-04-17 10h00.49.527935 -0400,
all_stimuli/MST_pairs1/pair_8_12_56.png,37,0,37,37,0,,,,0,0,0,4,1,"[9, 21, 31, 45, 56, 68, 69]",1,1,0.8031144000124186,0.1790215999353677,None,None,None,,,,,,,,,0,0,0,0,0,37,37,37,295.99833029997535,,,,,,,,,,,,,,,,,,,,,,295.9542627001647,295.9543077000417,295.99665100011043,295.99833029997535,295.99833029997535,295.99833029997535,295.99833029997535,299.00405830005184,299.00405830005184,299.9707849000115,1,1,0.8031144000124186,0.1790215999353677,None,299.9708537000697,299.97087509999983,None,299.97089840006083,299.9709155000746,None,,,,,,,,,,,5,4,0,1,2025-04-17_10h00.38.526,rtmindeye,2024.2.4,60.01277067511409,2025-04-17 10h00.49.527935 -0400,
all_stimuli/special515/special_19074.jpg,38,0,38,38,0,,,,0,0,0,4,1,"[9, 21, 31, 45, 56, 68, 69]",1,1,0.8110333001241088,0.14404330006800592,None,None,None,,,,,,,,,0,0,0,0,0,38,38,38,299.9924054001458,,,,,,,,,,,,,,,,,,,,,,299.97107640001923,299.9711208001245,299.9906858999748,299.9924054001458,299.9924054001458,299.9924054001458,299.9924054001458,303.0039801001549,303.0039801001549,303.9872489001136,1,1,0.8110333001241088,0.14404330006800592,None,303.9873182999436,303.98734070011415,None,303.9873641000595,303.98738149995916,None,,,,,,,,,,,5,4,0,1,2025-04-17_10h00.38.526,rtmindeye,2024.2.4,60.01277067511409,2025-04-17 10h00.49.527935 -0400,
all_stimuli/shared1000_notspecial/notspecial_42648.png,39,0,39,39,0,,,,0,0,0,4,1,"[9, 21, 31, 45, 56, 68, 69]",1,1,0.8690182000864297,0.13502019993029535,None,None,None,,,,,,,,,0,0,0,0,0,39,39,39,304.01145450002514,,,,,,,,,,,,,,,,,,,,,,303.98754530004226,303.9875897001475,304.009798000101,304.01145450002514,304.01145450002514,304.01145450002514,304.01145450002514,307.0208676001057,307.0208676001057,308.00408520014025,1,1,0.8690182000864297,0.13502019993029535,None,308.0041577001102,308.00417940015905,None,308.004205300007,308.00422290014103,None,,,,,,,,,,,5,4,0,1,2025-04-17_10h00.38.526,rtmindeye,2024.2.4,60.01277067511409,2025-04-17 10h00.49.527935 -0400,
all_stimuli/MST_pairs1/pair_12_16_22.png,40,0,40,40,0,,,,1,0,0,4,1,"[9, 21, 31, 45, 56, 68, 69]",2,1,1.0029827000107616,0.18193339998833835,None,None,None,,,,,,,,,0,0,0,0,0,40,40,40,308.0204420001246,,,,,,,,,,,,,,,,,,,,,,308.0043746000156,308.0044185000006,308.015136500122,308.0204420001246,308.0204420001246,308.0204420001246,308.0204420001246,311.0205827001482,311.0205827001482,312.0041803000495,2,1,1.0029827000107616,0.18193339998833835,None,312.0042449000757,312.0042648999952,None,312.00428750016727,312.0043043999467,None,312.04268319997936,312.04268319997936,,,,,,,,,5,4,0,1,2025-04-17_10h00.38.526,rtmindeye,2024.2.4,60.01277067511409,2025-04-17 10h00.49.527935 -0400,
all_stimuli/shared1000_notspecial/notspecial_3951.png,41,0,41,41,0,,,,0,0,0,4,1,"[9, 21, 31, 45, 56, 68, 69]",1,1,0.8967118998989463,0.15902579994872212,None,None,None,,,,,,,,,0,0,0,0,0,41,41,41,312.04268319997936,,,,,,,,,,,,,,,,,,,,,,312.00445819995366,312.00449890014715,312.0410386000294,312.04268319997936,312.04268319997936,312.04268319997936,312.04268319997936,315.0541024999693,315.0541024999693,316.0202874999959,1,1,0.8967118998989463,0.15902579994872212,None,316.0203579000663,316.0203796001151,None,316.020403200062,316.02042059996165,None,,,,,,,,,,,5,4,0,1,2025-04-17_10h00.38.526,rtmindeye,2024.2.4,60.01277067511409,2025-04-17 10h00.49.527935 -0400,
all_stimuli/MST_pairs1/pair_12_16_78.png,42,0,42,42,0,,,,0,0,0,4,1,"[9, 21, 31, 45, 56, 68, 69]",1,1,1.4890619001816958,0.31509009981527925,None,None,None,,,,,,,,,0,0,0,0,0,42,42,42,316.0463563001249,,,,,,,,,,,,,,,,,,,,,,316.0205799001269,316.020624600118,316.04453580011614,316.0463563001249,316.0463563001249,316.0463563001249,316.0463563001249,319.05396870011464,319.05396870011464,320.0373150999658,1,1,1.4890619001816958,0.31509009981527925,None,320.0373859000392,320.0374068999663,None,320.0374304000288,320.0374476001598,None,,,,,,,,,,,5,4,0,1,2025-04-17_10h00.38.526,rtmindeye,2024.2.4,60.01277067511409,2025-04-17 10h00.49.527935 -0400,
all_stimuli/special515/special_11952.jpg,43,0,43,43,0,,,,0,0,0,4,1,"[9, 21, 31, 45, 56, 68, 69]",1,1,0.9149492001160979,0.14278859994374216,None,None,None,,,,,,,,,0,0,0,0,0,43,43,43,320.0626799999736,,,,,,,,,,,,,,,,,,,,,,320.0375987000298,320.037642700132,320.0607706999872,320.0626799999736,320.0626799999736,320.0626799999736,320.0626799999736,323.0705355000682,323.0705355000682,324.05373940011486,1,1,0.9149492001160979,0.14278859994374216,None,324.0538087999448,324.05383020010777,None,324.05385410017334,324.0538713000715,None,,,,,,,,,,,5,4,0,1,2025-04-17_10h00.38.526,rtmindeye,2024.2.4,60.01277067511409,2025-04-17 10h00.49.527935 -0400,
all_stimuli/MST_pairs1/pair_14_18_22.png,44,0,44,44,0,,,,0,0,0,4,1,"[9, 21, 31, 45, 56, 68, 69]",1,1,1.507678700145334,0.17510099988430738,None,None,None,,,,,,,,,0,0,0,0,0,44,44,44,324.0796127000358,,,,,,,,,,,,,,,,,,,,,,324.0540261999704,324.0540704000741,324.0777873999905,324.0796127000358,324.0796127000358,324.0796127000358,324.0796127000358,327.08703280007467,327.08703280007467,328.0708660001401,1,1,1.507678700145334,0.17510099988430738,None,328.0709367999807,328.070958300028,None,328.0709820999764,328.0709997001104,None,,,,,,,,,,,5,4,0,1,2025-04-17_10h00.38.526,rtmindeye,2024.2.4,60.01277067511409,2025-04-17 10h00.49.527935 -0400,
blank.jpg,45,1,45,45,0,,,,0,0,0,4,1,"[9, 21, 31, 45, 56, 68, 69]",None,0,,,None,None,None,,,,,,,,,0,0,0,0,0,45,45,45,328.0873326000292,,,,,,,,,,,,,,,,,,,,,,328.07116260007024,328.07120710005984,328.07796859997325,328.0873326000292,328.0873326000292,328.0873326000292,328.0873326000292,331.0872867000289,331.0872867000289,332.0704576000571,None,0,,,None,332.07051530014724,332.07053570006974,None,332.07055900013074,332.07057610014454,None,332.11022040015087,332.11022040015087,,,,,,,,,5,4,0,1,2025-04-17_10h00.38.526,rtmindeye,2024.2.4,60.01277067511409,2025-04-17 10h00.49.527935 -0400,
all_stimuli/MST_pairs1/pair_16_20_56.png,46,0,46,46,0,,,,0,0,0,4,1,"[9, 21, 31, 45, 56, 68, 69]",1,1,0.8832563001196831,0.19105319981463253,None,None,None,,,,,,,,,0,0,0,0,0,46,46,46,332.11022040015087,,,,,,,,,,,,,,,,,,,,,,332.0707219000906,332.0707607001532,332.108438400086,332.11022040015087,332.11022040015087,332.11022040015087,332.11022040015087,335.12045480008237,335.12045480008237,336.08733909996226,1,1,0.8832563001196831,0.19105319981463253,None,336.0874100001529,336.0874310999643,None,336.0874542000238,336.0874713000376,None,,,,,,,,,,,5,4,0,1,2025-04-17_10h00.38.526,rtmindeye,2024.2.4,60.01277067511409,2025-04-17 10h00.49.527935 -0400,
all_stimuli/special515/special_8933.jpg,47,0,47,47,0,,,,0,0,0,4,1,"[9, 21, 31, 45, 56, 68, 69]",1,1,1.0067950999364257,0.2391062001697719,None,None,None,,,,,,,,,0,0,0,0,0,47,47,47,336.1156123999972,,,,,,,,,,,,,,,,,,,,,,336.087648200104,336.0876961001195,336.11377039994113,336.1156123999972,336.1156123999972,336.1156123999972,336.1156123999972,339.120466100052,339.120466100052,340.1039950000122,1,1,1.0067950999364257,0.2391062001697719,None,340.1040650999639,340.10408700001426,None,340.10411090007983,340.10412820009515,None,,,,,,,,,,,5,4,0,1,2025-04-17_10h00.38.526,rtmindeye,2024.2.4,60.01277067511409,2025-04-17 10h00.49.527935 -0400,
all_stimuli/MST_pairs1/pair_16_20_56.png,48,0,48,48,0,,,,1,0,0,4,1,"[9, 21, 31, 45, 56, 68, 69]",2,1,0.8603021001908928,0.21388699999079108,None,None,None,,,,,,,,,0,0,0,0,0,48,48,48,340.12025870010257,,,,,,,,,,,,,,,,,,,,,,340.10428369999863,340.10432850010693,340.1109194001183,340.12025870010257,340.12025870010257,340.12025870010257,340.12025870010257,343.1204103000928,343.1204103000928,344.104093400063,2,1,0.8603021001908928,0.21388699999079108,None,344.1041578000877,344.104183500167,None,344.1042073999997,344.1042246001307,None,344.12421260005794,344.12421260005794,,,,,,,,,5,4,0,1,2025-04-17_10h00.38.526,rtmindeye,2024.2.4,60.01277067511409,2025-04-17 10h00.49.527935 -0400,
all_stimuli/special515/special_5034.jpg,49,0,49,49,0,,,,0,0,0,4,1,"[9, 21, 31, 45, 56, 68, 69]",1,1,0.6571800999809057,0.20894699986092746,None,None,None,,,,,,,,,0,0,0,0,0,49,49,49,344.12421260005794,,,,,,,,,,,,,,,,,,,,,,344.1043813000433,344.1044215001166,344.1219941000454,344.12421260005794,344.12421260005794,344.12421260005794,344.12421260005794,347.1373853001278,347.1373853001278,348.1204993999563,1,1,0.6571800999809057,0.20894699986092746,None,348.1205689001363,348.1205901000649,None,348.1206135000102,348.1206307001412,None,,,,,,,,,,,5,4,0,1,2025-04-17_10h00.38.526,rtmindeye,2024.2.4,60.01277067511409,2025-04-17 10h00.49.527935 -0400,
all_stimuli/MST_pairs1/pair_16_20_0.png,50,0,50,50,0,,,,0,0,0,4,1,"[9, 21, 31, 45, 56, 68, 69]",2,0,0.946421799948439,0.19983930001035333,None,None,None,,,,,,,,,0,0,0,0,0,50,50,50,348.14606820000336,,,,,,,,,,,,,,,,,,,,,,348.1207822000142,348.12082640011795,348.1443576000165,348.14606820000336,348.14606820000336,348.14606820000336,348.14606820000336,351.1538059001323,351.1538059001323,352.1372295001056,2,0,0.946421799948439,0.19983930001035333,None,352.13729870016687,352.13731970009394,None,352.13734370004386,352.137360899942,None,,,,,,,,,,,5,4,0,1,2025-04-17_10h00.38.526,rtmindeye,2024.2.4,60.01277067511409,2025-04-17 10h00.49.527935 -0400,
all_stimuli/MST_pairs1/pair_46_w_pool2.jpg,51,0,51,51,0,,,,0,0,0,4,1,"[9, 21, 31, 45, 56, 68, 69]",1,1,1.1534804999828339,0.256159899989143,None,None,None,,,,,,,,,0,0,0,0,0,51,51,51,352.1599582999479,,,,,,,,,,,,,,,,,,,,,,352.137512100162,352.13755640015006,352.15823399997316,352.1599582999479,352.1599582999479,352.1599582999479,352.1599582999479,355.17030779994093,355.17030779994093,356.15399769996293,1,1,1.1534804999828339,0.256159899989143,None,356.1540687000379,356.15409029996954,None,356.15411380003206,356.1541308001615,None,,,,,,,,,,,5,4,0,1,2025-04-17_10h00.38.526,rtmindeye,2024.2.4,60.01277067511409,2025-04-17 10h00.49.527935 -0400,
all_stimuli/special515/special_62228.jpg,52,0,52,52,0,,,,0,0,0,4,1,"[9, 21, 31, 45, 56, 68, 69]",1,1,0.8295503000263125,0.21499929996207356,None,None,None,,,,,,,,,0,0,0,0,0,52,52,52,356.17483040015213,,,,,,,,,,,,,,,,,,,,,,356.15429810015485,356.15434250002727,356.1730309999548,356.17483040015213,356.17483040015213,356.17483040015213,356.17483040015213,359.1871823000256,359.1871823000256,360.17029560008086,1,1,0.8295503000263125,0.21499929996207356,None,360.17036520014517,360.1703868000768,None,360.17041000002064,360.17042760015465,None,,,,,,,,,,,5,4,0,1,2025-04-17_10h00.38.526,rtmindeye,2024.2.4,60.01277067511409,2025-04-17 10h00.49.527935 -0400,
all_stimuli/MST_pairs1/pair_40_w_escalator2.jpg,53,0,53,53,0,,,,0,0,0,4,1,"[9, 21, 31, 45, 56, 68, 69]",1,1,0.8196421000175178,0.20689979987218976,None,None,None,,,,,,,,,0,0,0,0,0,53,53,53,360.19385470007546,,,,,,,,,,,,,,,,,,,,,,360.170581900049,360.1706259001512,360.1922122000251,360.19385470007546,360.19385470007546,360.19385470007546,360.19385470007546,363.20367780001834,363.20367780001834,364.18702380009927,1,1,0.8196421000175178,0.20689979987218976,None,364.1871015999932,364.1871228001546,None,364.18714649998583,364.1871635999996,None,,,,,,,,,,,5,4,0,1,2025-04-17_10h00.38.526,rtmindeye,2024.2.4,60.01277067511409,2025-04-17 10h00.49.527935 -0400,
all_stimuli/MST_pairs1/pair_20_nsd_41_2_cocoid_63715.png,54,0,54,54,0,,,,0,0,0,4,1,"[9, 21, 31, 45, 56, 68, 69]",1,1,0.8486405999865383,0.23965230002067983,None,None,None,,,,,,,,,0,0,0,0,0,54,54,54,364.26601220015436,,,,,,,,,,,,,,,,,,,,,,364.18731830012985,364.1873624001164,364.26242909999564,364.26601220015436,364.26601220015436,364.26601220015436,364.26601220015436,367.27030630013905,367.27030630013905,368.2040016001556,1,1,0.8486405999865383,0.23965230002067983,None,368.2040691000875,368.2040903000161,None,368.204113899963,368.2041311999783,None,,,,,,,,,,,5,4,0,1,2025-04-17_10h00.38.526,rtmindeye,2024.2.4,60.01277067511409,2025-04-17 10h00.49.527935 -0400,
all_stimuli/shared1000_notspecial/notspecial_22155.png,55,0,55,55,0,,,,0,0,0,4,1,"[9, 21, 31, 45, 56, 68, 69]",1,1,0.7238678000867367,0.24508300004526973,None,None,None,,,,,,,,,0,0,0,0,0,55,55,55,368.23355350014754,,,,,,,,,,,,,,,,,,,,,,368.20428419997916,368.20432820008136,368.23179540014826,368.23355350014754,368.23355350014754,368.23355350014754,368.23355350014754,371.2371696999762,371.2371696999762,372.2205529999919,1,1,0.7238678000867367,0.24508300004526973,None,372.2206225001719,372.2206437999848,None,372.2206667000428,372.22068360005505,None,,,,,,,,,,,5,4,0,1,2025-04-17_10h00.38.526,rtmindeye,2024.2.4,60.01277067511409,2025-04-17 10h00.49.527935 -0400,
blank.jpg,56,1,56,56,0,,,,0,0,0,4,1,"[9, 21, 31, 45, 56, 68, 69]",None,0,,,None,None,None,,,,,,,,,0,0,0,0,0,56,56,56,372.23751040012576,,,,,,,,,,,,,,,,,,,,,,372.2208384000696,372.2208825000562,372.22664260002784,372.23751040012576,372.23751040012576,372.23751040012576,372.23751040012576,375.2371074000839,375.2371074000839,376.2206499001477,None,0,,,None,376.2207086000126,376.22072910005227,None,376.2207524999976,376.22076950012706,None,376.2615009001456,376.2615009001456,,,,,,,,,5,4,0,1,2025-04-17_10h00.38.526,rtmindeye,2024.2.4,60.01277067511409,2025-04-17 10h00.49.527935 -0400,
all_stimuli/special515/special_11617.jpg,57,0,57,57,0,,,,0,0,0,4,1,"[9, 21, 31, 45, 56, 68, 69]",1,1,0.9849288000259548,0.19793549994938076,None,None,None,,,,,,,,,0,0,0,0,0,57,57,57,376.2615009001456,,,,,,,,,,,,,,,,,,,,,,376.2209221001249,376.2209610999562,376.2597380001098,376.2615009001456,376.2615009001456,376.2615009001456,376.2615009001456,379.2702277000062,379.2702277000062,380.2372763999738,1,1,0.9849288000259548,0.19793549994938076,None,380.2373450000305,380.237365799956,None,380.23738830001093,380.2374055001419,None,,,,,,,,,,,5,4,0,1,2025-04-17_10h00.38.526,rtmindeye,2024.2.4,60.01277067511409,2025-04-17 10h00.49.527935 -0400,
all_stimuli/MST_pairs1/pair_14_18_22.png,58,0,58,58,0,,,,1,0,0,4,1,"[9, 21, 31, 45, 56, 68, 69]",2,1,0.991611999925226,0.23800410004332662,None,None,None,,,,,,,,,0,0,0,0,0,58,58,58,380.2538356001023,,,,,,,,,,,,,,,,,,,,,,380.23755820002407,380.2376125000883,380.2476329000201,380.2538356001023,380.2538356001023,380.2538356001023,380.2538356001023,383.2538097000215,383.2538097000215,384.23726380011067,2,1,0.991611999925226,0.23800410004332662,None,384.2373286001384,384.2373492999468,None,384.23737230012193,384.2373892001342,None,384.28962750011124,384.28962750011124,,,,,,,,,5,4,0,1,2025-04-17_10h00.38.526,rtmindeye,2024.2.4,60.01277067511409,2025-04-17 10h00.49.527935 -0400,
all_stimuli/shared1000_notspecial/notspecial_63081.png,59,0,59,59,0,,,,0,0,0,4,1,"[9, 21, 31, 45, 56, 68, 69]",1,1,0.8147024000063539,0.31599130015820265,None,None,None,,,,,,,,,0,0,0,0,0,59,59,59,384.28962750011124,,,,,,,,,,,,,,,,,,,,,,384.2375394999981,384.2375783000607,384.2880371999927,384.28962750011124,384.28962750011124,384.28962750011124,384.28962750011124,387.30375310010277,387.30375310010277,388.25407040002756,1,1,0.8147024000063539,0.31599130015820265,None,388.25413969997317,388.254161400022,None,388.2541849000845,388.2542022999842,None,,,,,,,,,,,5,4,0,1,2025-04-17_10h00.38.526,rtmindeye,2024.2.4,60.01277067511409,2025-04-17 10h00.49.527935 -0400,
all_stimuli/MST_pairs1/pair_42_w_icerink2.jpg,60,0,60,60,0,,,,0,0,0,4,1,"[9, 21, 31, 45, 56, 68, 69]",1,1,0.7228819001466036,0.2129838999826461,None,None,None,,,,,,,,,0,0,0,0,0,60,60,60,388.2765804999508,,,,,,,,,,,,,,,,,,,,,,388.2543587000109,388.25440290011466,388.27500370005146,388.2765804999508,388.2765804999508,388.2765804999508,388.2765804999508,391.2871594000608,391.2871594000608,392.27029670006596,1,1,0.7228819001466036,0.2129838999826461,None,392.2703657001257,392.270387200173,None,392.2704098999966,392.27042680000886,None,,,,,,,,,,,5,4,0,1,2025-04-17_10h00.38.526,rtmindeye,2024.2.4,60.01277067511409,2025-04-17 10h00.49.527935 -0400,
all_stimuli/MST_pairs1/pair_46_w_pool1.jpg,61,0,61,61,0,,,,0,0,0,4,1,"[9, 21, 31, 45, 56, 68, 69]",2,0,0.910234599839896,0.211943699978292,None,None,None,,,,,,,,,0,0,0,0,0,61,61,61,392.29818530008197,,,,,,,,,,,,,,,,,,,,,,392.2705805001315,392.270624600118,392.29650470009074,392.29818530008197,392.29818530008197,392.29818530008197,392.29818530008197,395.3036857000552,395.3036857000552,396.2870120999869,2,0,0.910234599839896,0.211943699978292,None,396.2870818001684,396.28710280009545,None,396.28712690016255,396.2871443000622,None,,,,,,,,,,,5,4,0,1,2025-04-17_10h00.38.526,rtmindeye,2024.2.4,60.01277067511409,2025-04-17 10h00.49.527935 -0400,
all_stimuli/special515/special_40840.jpg,62,0,62,62,0,,,,0,0,0,4,1,"[9, 21, 31, 45, 56, 68, 69]",1,1,1.2173779997974634,0.2620093000587076,None,None,None,,,,,,,,,0,0,0,0,0,62,62,62,396.3069643001072,,,,,,,,,,,,,,,,,,,,,,396.28731090016663,396.28735540015623,396.3052102001384,396.3069643001072,396.3069643001072,396.3069643001072,396.3069643001072,399.320262900088,399.320262900088,400.303891699994,1,1,1.2173779997974634,0.2620093000587076,None,400.3039615000598,400.303983299993,None,400.30400670017116,400.3040237000678,None,,,,,,,,,,,5,4,0,1,2025-04-17_10h00.38.526,rtmindeye,2024.2.4,60.01277067511409,2025-04-17 10h00.49.527935 -0400,
all_stimuli/special515/special_29837.jpg,63,0,63,63,0,,,,0,0,0,4,1,"[9, 21, 31, 45, 56, 68, 69]",1,1,0.8574631998781115,0.22707389993593097,None,None,None,,,,,,,,,0,0,0,0,0,63,63,63,400.32701910007745,,,,,,,,,,,,,,,,,,,,,,400.304179900093,400.3042240999639,400.3252910999581,400.32701910007745,400.32701910007745,400.32701910007745,400.32701910007745,403.33700780011714,403.33700780011714,404.3205885000061,1,1,0.8574631998781115,0.22707389993593097,None,404.3206571000628,404.32067820010707,None,404.32070130016655,404.32071859994903,None,,,,,,,,,,,5,4,0,1,2025-04-17_10h00.38.526,rtmindeye,2024.2.4,60.01277067511409,2025-04-17 10h00.49.527935 -0400,
all_stimuli/shared1000_notspecial/notspecial_4768.png,64,0,64,64,0,,,,0,0,0,4,1,"[9, 21, 31, 45, 56, 68, 69]",1,1,0.7087467000819743,0.2779840000439435,None,None,None,,,,,,,,,0,0,0,0,0,64,64,64,404.3546109001618,,,,,,,,,,,,,,,,,,,,,,404.3208749999758,404.32091960008256,404.35297939996235,404.3546109001618,404.3546109001618,404.3546109001618,404.3546109001618,407.3535780000966,407.3535780000966,408.337003899971,1,1,0.7087467000819743,0.2779840000439435,None,408.3370744001586,408.3370952999685,None,408.33711850014515,408.3371359000448,None,,,,,,,,,,,5,4,0,1,2025-04-17_10h00.38.526,rtmindeye,2024.2.4,60.01277067511409,2025-04-17 10h00.49.527935 -0400,
all_stimuli/MST_pairs1/pair_20_nsd_41_1_cocoid_15472.png,65,0,65,65,0,,,,0,0,0,4,1,"[9, 21, 31, 45, 56, 68, 69]",1,1,0.7635367000475526,0.24286990007385612,None,None,None,,,,,,,,,0,0,0,0,0,65,65,65,408.38194640004076,,,,,,,,,,,,,,,,,,,,,,408.3372921999544,408.33733610017225,408.38012470002286,408.38194640004076,408.38194640004076,408.38194640004076,408.38194640004076,411.3870386001654,411.3870386001654,412.35340499994345,1,1,0.7635367000475526,0.24286990007385612,None,412.35347850015387,412.3535025001038,None,412.3535267000552,412.35354400007054,None,,,,,,,,,,,5,4,0,1,2025-04-17_10h00.38.526,rtmindeye,2024.2.4,60.01277067511409,2025-04-17 10h00.49.527935 -0400,
all_stimuli/shared1000_notspecial/notspecial_53157.png,66,0,66,66,0,,,,0,0,0,4,1,"[9, 21, 31, 45, 56, 68, 69]",1,1,0.7743688998743892,0.17609690013341606,None,None,None,,,,,,,,,0,0,0,0,0,66,66,66,412.3840028999839,,,,,,,,,,,,,,,,,,,,,,412.3537020001095,412.3537475001067,412.38200720003806,412.3840028999839,412.3840028999839,412.3840028999839,412.3840028999839,415.3869481999427,415.3869481999427,416.3538632001728,1,1,0.7743688998743892,0.17609690013341606,None,416.3539333001245,416.3539542001672,None,416.35397729999386,416.3539945001248,None,,,,,,,,,,,5,4,0,1,2025-04-17_10h00.38.526,rtmindeye,2024.2.4,60.01277067511409,2025-04-17 10h00.49.527935 -0400,
all_stimuli/special515/special_38641.jpg,67,0,67,67,0,,,,1,0,0,4,1,"[9, 21, 31, 45, 56, 68, 69]",1,0,1.6707077999599278,0.2250798000022769,None,None,None,,,,,,,,,0,0,0,0,0,67,67,67,416.3706442001276,,,,,,,,,,,,,,,,,,,,,,416.35415300005116,416.35419730003923,416.36269280011766,416.3706442001276,416.3706442001276,416.3706442001276,416.3706442001276,419.37038059998304,419.37038059998304,420.3538339000661,1,0,1.6707077999599278,0.2250798000022769,None,420.3538993000984,420.35392040014267,None,420.35394369997084,420.35396079998463,None,420.37047370010987,420.37047370010987,,,,,,,,,5,4,0,1,2025-04-17_10h00.38.526,rtmindeye,2024.2.4,60.01277067511409,2025-04-17 10h00.49.527935 -0400,
blank.jpg,68,1,68,68,0,,,,0,0,0,4,1,"[9, 21, 31, 45, 56, 68, 69]",None,0,,,None,None,None,,,,,,,,,0,0,0,0,0,68,68,68,420.37047370010987,,,,,,,,,,,,,,,,,,,,,,420.35411890014075,420.35415949998423,420.3601732000243,420.37047370010987,420.37047370010987,420.37047370010987,420.37047370010987,423.3703696001321,423.3703696001321,424.3538554001134,None,0,,,None,424.3539136000909,424.3539337001275,None,424.3539567999542,424.3539732999634,None,424.37052140012383,424.37052140012383,,,,,,,,,5,4,0,1,2025-04-17_10h00.38.526,rtmindeye,2024.2.4,60.01277067511409,2025-04-17 10h00.49.527935 -0400,
blank.jpg,69,1,69,69,0,,,,0,1,0,4,0,"[9, 21, 31, 45, 56, 68, 69]",None,0,,,None,1,equal,5.5043446000199765,None,30.33108500018716,None,,,,,0,0,0,0,0,69,69,69,424.37052140012383,,,,,,,,,,,,,,,,,,,,,,424.35412200004794,424.3541640001349,424.3592801000923,424.37052140012383,424.37052140012383,424.37052140012383,424.37052140012383,427.37045329995453,427.37045329995453,428.35396550013684,None,0,,,None,428.36660240008496,433.887070100056,1,433.88712620013393,464.2371114001144,equal,428.3700874000788,428.3700874000788,428.3700874000788,428.3700874000788,5.5043446000199765,None,433.9034184999764,433.9034184999764,30.33108500018716,None,5,4,0,1,2025-04-17_10h00.38.526,rtmindeye,2024.2.4,60.01277067511409,2025-04-17 10h00.49.527935 -0400,
,,,0,0,0,,,,,,,,,,,,,,,,,,,,,,,,,0,0,0,0,,,,,,,,,,,,,,,,,,,,,,,,,,,,,,,,,,,,,,,,,,,,,,,,,,,,,,,,,,5,4,0,1,2025-04-17_10h00.38.526,rtmindeye,2024.2.4,60.01277067511409,2025-04-17 10h00.49.527935 -0400,
all_stimuli/special515/special_71450.jpg,0,0,0,0,0,,,,0,0,1,4,1,"[9, 21, 31, 45, 56, 68, 69]",1,1,0.9922648998908699,0.16196860000491142,None,None,None,,,,,,,,,1,0,1,0,0,0,0,0,464.3922046001535,,,,,,,,,,,,,,,,,,,,,,464.3618048999924,464.36191510013305,464.3881995000411,464.3922046001535,464.3922046001535,464.3922046001535,464.3922046001535,467.40360440011136,467.40360440011136,468.3703223001212,1,1,0.9922648998908699,0.16196860000491142,None,468.3703960001003,468.3704193001613,None,468.37044420000166,468.37046240014024,None,,,,,,,,,,,5,4,0,1,2025-04-17_10h00.38.526,rtmindeye,2024.2.4,60.01277067511409,2025-04-17 10h00.49.527935 -0400,
all_stimuli/special515/special_38246.jpg,1,0,1,1,0,,,,0,0,1,4,1,"[9, 21, 31, 45, 56, 68, 69]",1,1,0.7899288998451084,0.23296090005896986,None,None,None,,,,,,,,,1,0,1,0,0,1,1,1,468.3973892000504,,,,,,,,,,,,,,,,,,,,,,468.3706153000239,468.3706588000059,468.39564110012725,468.3973892000504,468.3973892000504,468.3973892000504,468.3973892000504,471.4038140999619,471.4038140999619,472.3868575999513,1,1,0.7899288998451084,0.23296090005896986,None,472.38693040004,472.3869515999686,None,472.3869749000296,472.3869925001636,None,,,,,,,,,,,5,4,0,1,2025-04-17_10h00.38.526,rtmindeye,2024.2.4,60.01277067511409,2025-04-17 10h00.49.527935 -0400,
all_stimuli/special515/special_10046.jpg,2,0,2,2,0,,,,0,0,1,4,1,"[9, 21, 31, 45, 56, 68, 69]",1,1,0.8581006000749767,0.12305080005899072,None,None,None,,,,,,,,,1,0,1,0,0,2,2,2,472.420291100163,,,,,,,,,,,,,,,,,,,,,,472.38715100008994,472.38719550007954,472.4182478999719,472.420291100163,472.420291100163,472.420291100163,472.420291100163,475.42013390013017,475.42013390013017,476.4037238000892,1,1,0.8581006000749767,0.12305080005899072,None,476.403794700047,476.4038160999771,None,476.4038397001568,476.40385700017214,None,,,,,,,,,,,5,4,0,1,2025-04-17_10h00.38.526,rtmindeye,2024.2.4,60.01277067511409,2025-04-17 10h00.49.527935 -0400,
all_stimuli/MST_pairs1/pair_38_w_arch2.jpg,3,0,3,3,0,,,,0,0,1,4,1,"[9, 21, 31, 45, 56, 68, 69]",1,1,0.7251883998978883,0.14097260008566082,None,None,None,,,,,,,,,1,0,1,0,0,3,3,3,476.45722880004905,,,,,,,,,,,,,,,,,,,,,,476.40400850004517,476.4040522000287,476.45558360009454,476.45722880004905,476.45722880004905,476.45722880004905,476.45722880004905,479.4701112001203,479.4701112001203,480.42021639994346,1,1,0.7251883998978883,0.14097260008566082,None,480.4202872000169,480.4203079000581,None,480.4203309000004,480.4203480000142,None,,,,,,,,,,,5,4,0,1,2025-04-17_10h00.38.526,rtmindeye,2024.2.4,60.01277067511409,2025-04-17 10h00.49.527935 -0400,
all_stimuli/special515/special_30395.jpg,4,0,4,4,0,,,,0,0,1,4,1,"[9, 21, 31, 45, 56, 68, 69]",1,1,0.6190850001294166,0.16199839999899268,None,None,None,,,,,,,,,1,0,1,0,0,4,4,4,480.44733170000836,,,,,,,,,,,,,,,,,,,,,,480.42050630017184,480.42055050004274,480.44556080014445,480.44733170000836,480.44733170000836,480.44733170000836,480.44733170000836,483.45303490012884,483.45303490012884,484.4369513001293,1,1,0.6190850001294166,0.16199839999899268,None,484.43702149996534,484.43704240000807,None,484.4370657999534,484.4370830000844,None,,,,,,,,,,,5,4,0,1,2025-04-17_10h00.38.526,rtmindeye,2024.2.4,60.01277067511409,2025-04-17 10h00.49.527935 -0400,
all_stimuli/special515/special_38494.jpg,5,0,5,5,0,,,,1,0,1,4,1,"[9, 21, 31, 45, 56, 68, 69]",2,1,0.7797875001560897,0.1859116000123322,None,None,None,,,,,,,,,1,0,1,0,0,5,5,5,484.45363280014135,,,,,,,,,,,,,,,,,,,,,,484.437235499965,484.4372787999455,484.4449834001716,484.45363280014135,484.45363280014135,484.45363280014135,484.45363280014135,487.4533744000364,487.4533744000364,488.43706599995494,2,1,0.7797875001560897,0.1859116000123322,None,488.4371317999903,488.4371518001426,None,488.43717520008795,488.4371925999876,None,488.4550360001158,488.4550360001158,,,,,,,,,5,4,0,1,2025-04-17_10h00.38.526,rtmindeye,2024.2.4,60.01277067511409,2025-04-17 10h00.49.527935 -0400,
all_stimuli/MST_pairs1/pair_28_nsd_547_1_cocoid_60932.png,6,0,6,6,0,,,,1,0,1,4,1,"[9, 21, 31, 45, 56, 68, 69]",2,1,0.8973972999956459,0.1940625999122858,None,None,None,,,,,,,,,1,0,1,0,0,6,6,6,488.4550360001158,,,,,,,,,,,,,,,,,,,,,,488.43734490009956,488.43738450016826,488.45317820017226,488.4550360001158,488.4550360001158,488.4550360001158,488.4550360001158,491.47022280003875,491.47022280003875,492.4533532001078,2,1,0.8973972999956459,0.1940625999122858,None,492.45342499995604,492.4534461000003,None,492.4534696000628,492.4534869999625,None,,,,,,,,,,,5,4,0,1,2025-04-17_10h00.38.526,rtmindeye,2024.2.4,60.01277067511409,2025-04-17 10h00.49.527935 -0400,
all_stimuli/special515/special_61133.jpg,7,0,7,7,0,,,,0,0,1,4,1,"[9, 21, 31, 45, 56, 68, 69]",1,1,0.728796900017187,0.16190170007757843,None,None,None,,,,,,,,,1,0,1,0,0,7,7,7,492.4795711999759,,,,,,,,,,,,,,,,,,,,,,492.4536381000653,492.45368220005184,492.47775000007823,492.4795711999759,492.4795711999759,492.4795711999759,492.4795711999759,495.48687470005825,495.48687470005825,496.470307999989,1,1,0.728796900017187,0.16190170007757843,None,496.4703830999788,496.4704054000322,None,496.4704287000932,496.4704458999913,None,,,,,,,,,,,5,4,0,1,2025-04-17_10h00.38.526,rtmindeye,2024.2.4,60.01277067511409,2025-04-17 10h00.49.527935 -0400,
all_stimuli/shared1000_notspecial/notspecial_16635.png,8,0,8,8,0,,,,0,0,1,4,1,"[9, 21, 31, 45, 56, 68, 69]",1,1,1.2149267999920994,0.23806399991735816,None,None,None,,,,,,,,,1,0,1,0,0,8,8,8,496.4994610999711,,,,,,,,,,,,,,,,,,,,,,496.47060310002416,496.4706498000305,496.4976405999623,496.4994610999711,496.4994610999711,496.4994610999711,496.4994610999711,499.50331149995327,499.50331149995327,500.48682530014776,1,1,1.2149267999920994,0.23806399991735816,None,500.4868944999762,500.4869155001361,None,500.48693910008296,500.48695669998415,None,,,,,,,,,,,5,4,0,1,2025-04-17_10h00.38.526,rtmindeye,2024.2.4,60.01277067511409,2025-04-17 10h00.49.527935 -0400,
blank.jpg,9,1,9,9,0,,,,0,0,1,4,1,"[9, 21, 31, 45, 56, 68, 69]",None,0,,,None,None,None,,,,,,,,,1,0,1,0,0,9,9,9,500.5036695001181,,,,,,,,,,,,,,,,,,,,,,500.4871062999591,500.4871499000583,500.4946582999546,500.5036695001181,500.5036695001181,500.5036695001181,500.5036695001181,503.5035236000549,503.5035236000549,504.48690859996714,None,0,,,None,504.4869691999629,504.48698929999955,None,504.48701210017316,504.48702890006825,None,504.5321937999688,504.5321937999688,,,,,,,,,5,4,0,1,2025-04-17_10h00.38.526,rtmindeye,2024.2.4,60.01277067511409,2025-04-17 10h00.49.527935 -0400,
all_stimuli/MST_pairs1/pair_18_nsd_6_1_cocoid_13417.png,10,0,10,10,0,,,,0,0,1,4,1,"[9, 21, 31, 45, 56, 68, 69]",1,1,0.7100951999891549,0.1250048999208957,None,None,None,,,,,,,,,1,0,1,0,0,10,10,10,504.5321937999688,,,,,,,,,,,,,,,,,,,,,,504.48717640014365,504.4872181999963,504.5302785001695,504.5321937999688,504.5321937999688,504.5321937999688,504.5321937999688,507.5366222001612,507.5366222001612,508.50350540014915,1,1,0.7100951999891549,0.1250048999208957,None,508.5035745999776,508.50359620014206,None,508.5036198000889,508.5036367001012,None,,,,,,,,,,,5,4,0,1,2025-04-17_10h00.38.526,rtmindeye,2024.2.4,60.01277067511409,2025-04-17 10h00.49.527935 -0400,
all_stimuli/shared1000_notspecial/notspecial_21703.png,11,0,11,11,0,,,,0,0,1,4,1,"[9, 21, 31, 45, 56, 68, 69]",1,1,0.7885630999226123,0.16503209993243217,None,None,None,,,,,,,,,1,0,1,0,0,11,11,11,508.5318273999728,,,,,,,,,,,,,,,,,,,,,,508.50378790008835,508.50383140007034,508.53018600004725,508.5318273999728,508.5318273999728,508.5318273999728,508.5318273999728,511.5366634000093,511.5366634000093,512.5201360001229,1,1,0.7885630999226123,0.16503209993243217,None,512.520205900073,512.5202264999971,None,512.5202498000581,512.5202667999547,None,,,,,,,,,,,5,4,0,1,2025-04-17_10h00.38.526,rtmindeye,2024.2.4,60.01277067511409,2025-04-17 10h00.49.527935 -0400,
all_stimuli/special515/special_24530.jpg,12,0,12,12,0,,,,0,0,1,4,1,"[9, 21, 31, 45, 56, 68, 69]",1,1,0.8743262998759747,0.1509835000615567,None,None,None,,,,,,,,,1,0,1,0,0,12,12,12,512.5459645001683,,,,,,,,,,,,,,,,,,,,,,512.5204221999738,512.5204656999558,512.5440420999657,512.5459645001683,512.5459645001683,512.5459645001683,512.5459645001683,515.5534731000662,515.5534731000662,516.5368272999767,1,1,0.8743262998759747,0.1509835000615567,None,516.5368982001673,516.536920200102,None,516.5369437001646,516.5369607999455,None,,,,,,,,,,,5,4,0,1,2025-04-17_10h00.38.526,rtmindeye,2024.2.4,60.01277067511409,2025-04-17 10h00.49.527935 -0400,
all_stimuli/shared1000_notspecial/notspecial_6222.png,13,0,13,13,0,,,,0,0,1,4,1,"[9, 21, 31, 45, 56, 68, 69]",1,1,0.8222114001400769,0.15407179994508624,None,None,None,,,,,,,,,1,0,1,0,0,13,13,13,516.5672230001073,,,,,,,,,,,,,,,,,,,,,,516.5371153000742,516.5371592999436,516.565566000063,516.5672230001073,516.5672230001073,516.5672230001073,516.5672230001073,519.5700771000702,519.5700771000702,520.5533006000333,1,1,0.8222114001400769,0.15407179994508624,None,520.5533716999926,520.5533926000353,None,520.5534155999776,520.5534326999914,None,,,,,,,,,,,5,4,0,1,2025-04-17_10h00.38.526,rtmindeye,2024.2.4,60.01277067511409,2025-04-17 10h00.49.527935 -0400,
all_stimuli/MST_pairs1/pair_44_w_log_cabin2.jpg,14,0,14,14,0,,,,0,0,1,4,1,"[9, 21, 31, 45, 56, 68, 69]",1,1,0.7910341001115739,0.15495789982378483,None,None,None,,,,,,,,,1,0,1,0,0,14,14,14,520.6894599001389,,,,,,,,,,,,,,,,,,,,,,520.5535928001627,520.5536367001478,520.6859149001539,520.6894599001389,520.6894599001389,520.6894599001389,520.6894599001389,523.7034355001524,523.7034355001524,524.5696539999917,1,1,0.7910341001115739,0.15495789982378483,None,524.5697252999526,524.5697457999922,None,524.5697690001689,524.5697860999499,None,,,,,,,,,,,5,4,0,1,2025-04-17_10h00.38.526,rtmindeye,2024.2.4,60.01277067511409,2025-04-17 10h00.49.527935 -0400,
all_stimuli/special515/special_28068.jpg,15,0,15,15,0,,,,0,0,1,4,1,"[9, 21, 31, 45, 56, 68, 69]",1,1,0.7037009000778198,0.15913009992800653,None,None,None,,,,,,,,,1,0,1,0,0,15,15,15,524.5996284999419,,,,,,,,,,,,,,,,,,,,,,524.5699390000664,524.5699830001686,524.5976772001013,524.5996284999419,524.5996284999419,524.5996284999419,524.5996284999419,527.6035057001282,527.6035057001282,528.5702244001441,1,1,0.7037009000778198,0.15913009992800653,None,528.5702939000912,528.57031560014,None,528.5703390999697,528.5703565001022,None,,,,,,,,,,,5,4,0,1,2025-04-17_10h00.38.526,rtmindeye,2024.2.4,60.01277067511409,2025-04-17 10h00.49.527935 -0400,
all_stimuli/shared1000_notspecial/notspecial_60978.png,16,0,16,16,0,,,,0,0,1,4,1,"[9, 21, 31, 45, 56, 68, 69]",1,1,0.6743040999863297,0.14416530006565154,None,None,None,,,,,,,,,1,0,1,0,0,16,16,16,528.5969803000335,,,,,,,,,,,,,,,,,,,,,,528.5705107001122,528.5705542999785,528.5953167001717,528.5969803000335,528.5969803000335,528.5969803000335,528.5969803000335,531.603229700122,531.603229700122,532.5869857000653,1,1,0.6743040999863297,0.14416530006565154,None,532.5870590000413,532.5870807000902,None,532.5871048001572,532.587123000063,None,,,,,,,,,,,5,4,0,1,2025-04-17_10h00.38.526,rtmindeye,2024.2.4,60.01277067511409,2025-04-17 10h00.49.527935 -0400,
all_stimuli/MST_pairs1/pair_2_4_22.png,17,0,17,17,0,,,,0,0,1,4,1,"[9, 21, 31, 45, 56, 68, 69]",1,1,0.849922499852255,0.2650123001076281,None,None,None,,,,,,,,,1,0,1,0,0,17,17,17,532.6505263000727,,,,,,,,,,,,,,,,,,,,,,532.5872892001644,532.5873340000398,532.6468060000334,532.6505263000727,532.6505263000727,532.6505263000727,532.6505263000727,535.6532767000608,535.6532767000608,536.6034214000683,1,1,0.849922499852255,0.2650123001076281,None,536.6034933000337,536.6035142999608,None,536.6035373001359,536.6035549000371,None,,,,,,,,,,,5,4,0,1,2025-04-17_10h00.38.526,rtmindeye,2024.2.4,60.01277067511409,2025-04-17 10h00.49.527935 -0400,
all_stimuli/shared1000_notspecial/notspecial_46160.png,18,0,18,18,0,,,,0,0,1,4,1,"[9, 21, 31, 45, 56, 68, 69]",1,1,0.6000382001511753,0.15588949993252754,None,None,None,,,,,,,,,1,0,1,0,0,18,18,18,536.6333866999485,,,,,,,,,,,,,,,,,,,,,,536.6037143999711,536.6037584999576,536.6317509999499,536.6333866999485,536.6333866999485,536.6333866999485,536.6333866999485,539.6368581999559,539.6368581999559,540.6200886000879,1,1,0.6000382001511753,0.15588949993252754,None,540.6201610001735,540.6201826001052,None,540.6202063001692,540.6202235000674,None,,,,,,,,,,,5,4,0,1,2025-04-17_10h00.38.526,rtmindeye,2024.2.4,60.01277067511409,2025-04-17 10h00.49.527935 -0400,
all_stimuli/special515/special_64880.jpg,19,0,19,19,0,,,,0,0,1,4,1,"[9, 21, 31, 45, 56, 68, 69]",1,1,0.6228700999636203,0.13206289988011122,None,None,None,,,,,,,,,1,0,1,0,0,19,19,19,540.6435724999756,,,,,,,,,,,,,,,,,,,,,,540.6203839001246,540.6204282001127,540.641839100048,540.6435724999756,540.6435724999756,540.6435724999756,540.6435724999756,543.653500800021,543.653500800021,544.6369666999672,1,1,0.6228700999636203,0.13206289988011122,None,544.637036500033,544.6370580999646,None,544.6370814000256,544.6370984001551,None,,,,,,,,,,,5,4,0,1,2025-04-17_10h00.38.526,rtmindeye,2024.2.4,60.01277067511409,2025-04-17 10h00.49.527935 -0400,
all_stimuli/MST_pairs1/pair_36_nsd_949_1_cocoid_43196.png,20,0,20,20,0,,,,0,0,1,4,1,"[9, 21, 31, 45, 56, 68, 69]",1,1,0.8270578000228852,0.18395420000888407,None,None,None,,,,,,,,,1,0,1,0,0,20,20,20,544.6743471999653,,,,,,,,,,,,,,,,,,,,,,544.6372530001681,544.6372964000329,544.6725254999474,544.6743471999653,544.6743471999653,544.6743471999653,544.6743471999653,547.6866427001078,547.6866427001078,548.6532745000441,1,1,0.8270578000228852,0.18395420000888407,None,548.6533467001282,548.6533679000568,None,548.6533918001223,548.6534089001361,None,,,,,,,,,,,5,4,0,1,2025-04-17_10h00.38.526,rtmindeye,2024.2.4,60.01277067511409,2025-04-17 10h00.49.527935 -0400,
blank.jpg,21,1,21,21,0,,,,0,0,1,4,1,"[9, 21, 31, 45, 56, 68, 69]",None,0,,,None,None,None,,,,,,,,,1,0,1,0,0,21,21,21,548.6702060999814,,,,,,,,,,,,,,,,,,,,,,548.6535633001477,548.6536070001312,548.6602940000594,548.6702060999814,548.6702060999814,548.6702060999814,548.6702060999814,551.670074700145,551.670074700145,552.6535021001473,None,0,,,None,552.65356230014,552.6535831000656,None,552.6536055000033,552.6536222000141,None,552.6704256001394,552.6704256001394,,,,,,,,,5,4,0,1,2025-04-17_10h00.38.526,rtmindeye,2024.2.4,60.01277067511409,2025-04-17 10h00.49.527935 -0400,
all_stimuli/special515/special_30632.jpg,22,0,22,22,0,,,,1,0,1,4,1,"[9, 21, 31, 45, 56, 68, 69]",2,1,0.9112098000478,0.1907288997899741,None,None,None,,,,,,,,,1,0,1,0,0,22,22,22,552.6704256001394,,,,,,,,,,,,,,,,,,,,,,552.6537703999784,552.6538087001536,552.6618572999723,552.6704256001394,552.6704256001394,552.6704256001394,552.6704256001394,555.6701677001547,555.6701677001547,556.6536365000065,2,1,0.9112098000478,0.1907288997899741,None,556.6537038001698,556.6537244999781,None,556.6537475001533,556.6537644001655,None,556.6727700000629,556.6727700000629,,,,,,,,,5,4,0,1,2025-04-17_10h00.38.526,rtmindeye,2024.2.4,60.01277067511409,2025-04-17 10h00.49.527935 -0400,
all_stimuli/MST_pairs1/pair_20_nsd_41_2_cocoid_63715.png,23,0,23,23,0,,,,1,0,1,4,1,"[9, 21, 31, 45, 56, 68, 69]",2,1,0.9376936999615282,0.1720843999646604,None,None,None,,,,,,,,,1,0,1,0,0,23,23,23,556.6727700000629,,,,,,,,,,,,,,,,,,,,,,556.6539219000842,556.6539609001484,556.6709311001468,556.6727700000629,556.6727700000629,556.6727700000629,556.6727700000629,559.6866862000898,559.6866862000898,560.6699394001625,2,1,0.9376936999615282,0.1720843999646604,None,560.6700107001234,560.6700322001707,None,560.6700559000019,560.6700746000279,None,,,,,,,,,,,5,4,0,1,2025-04-17_10h00.38.526,rtmindeye,2024.2.4,60.01277067511409,2025-04-17 10h00.49.527935 -0400,
all_stimuli/MST_pairs1/pair_22_nsd_115_2_cocoid_65194.png,24,0,24,24,0,,,,0,0,1,4,1,"[9, 21, 31, 45, 56, 68, 69]",1,1,0.8099891000892967,0.30319379991851747,None,None,None,,,,,,,,,1,0,1,0,0,24,24,24,560.7453519001137,,,,,,,,,,,,,,,,,,,,,,560.6702336000744,560.6702791000716,560.741886400152,560.7453519001137,560.7453519001137,560.7453519001137,560.7453519001137,563.7533098000567,563.7533098000567,564.6867935999762,1,1,0.8099891000892967,0.30319379991851747,None,564.6868642000481,564.6868855000939,None,564.686909200158,564.6869262000546,None,,,,,,,,,,,5,4,0,1,2025-04-17_10h00.38.526,rtmindeye,2024.2.4,60.01277067511409,2025-04-17 10h00.49.527935 -0400,
all_stimuli/shared1000_notspecial/notspecial_26292.png,25,0,25,25,0,,,,0,0,1,4,1,"[9, 21, 31, 45, 56, 68, 69]",1,1,0.8173957001417875,0.1490225000306964,None,None,None,,,,,,,,,1,0,1,0,0,25,25,25,564.7280421999749,,,,,,,,,,,,,,,,,,,,,,564.68707980006,564.6871234001592,564.7262659999542,564.7280421999749,564.7280421999749,564.7280421999749,564.7280421999749,567.7368483000901,567.7368483000901,568.7032996001653,1,1,0.8173957001417875,0.1490225000306964,None,568.7033703001216,568.7033915000502,None,568.703414699994,568.7034317001235,None,,,,,,,,,,,5,4,0,1,2025-04-17_10h00.38.526,rtmindeye,2024.2.4,60.01277067511409,2025-04-17 10h00.49.527935 -0400,
all_stimuli/special515/special_6489.jpg,26,0,26,26,0,,,,1,0,1,4,1,"[9, 21, 31, 45, 56, 68, 69]",2,1,1.0630149999633431,0.18507360015064478,None,None,None,,,,,,,,,1,0,1,0,0,26,26,26,568.720395399956,,,,,,,,,,,,,,,,,,,,,,568.7035996001214,568.7036439999938,568.7120094001293,568.720395399956,568.720395399956,568.720395399956,568.720395399956,571.7200095001608,571.7200095001608,572.7035085000098,2,1,1.0630149999633431,0.18507360015064478,None,572.7035759999417,572.7035962000955,None,572.703619700158,572.7036364001688,None,572.7306900001131,572.7306900001131,,,,,,,,,5,4,0,1,2025-04-17_10h00.38.526,rtmindeye,2024.2.4,60.01277067511409,2025-04-17 10h00.49.527935 -0400,
all_stimuli/special515/special_55678.jpg,27,0,27,27,0,,,,0,0,1,4,1,"[9, 21, 31, 45, 56, 68, 69]",1,1,0.7456565999891609,0.1439278000034392,None,None,None,,,,,,,,,1,0,1,0,0,27,27,27,572.7306900001131,,,,,,,,,,,,,,,,,,,,,,572.703793700086,572.7038332000375,572.7289496001322,572.7306900001131,572.7306900001131,572.7306900001131,572.7306900001131,575.7368373000063,575.7368373000063,576.720026700059,1,1,0.7456565999891609,0.1439278000034392,None,576.7200984000228,576.7201197000686,None,576.7201432001311,576.7201605001464,None,,,,,,,,,,,5,4,0,1,2025-04-17_10h00.38.526,rtmindeye,2024.2.4,60.01277067511409,2025-04-17 10h00.49.527935 -0400,
all_stimuli/special515/special_40909.jpg,28,0,28,28,0,,,,0,0,1,4,1,"[9, 21, 31, 45, 56, 68, 69]",1,1,0.9935852999333292,0.16895590000785887,None,None,None,,,,,,,,,1,0,1,0,0,28,28,28,576.7427193000913,,,,,,,,,,,,,,,,,,,,,,576.7203184999526,576.7203625000548,576.7410438000225,576.7427193000913,576.7427193000913,576.7427193000913,576.7427193000913,579.7532612001523,579.7532612001523,580.7369164000265,1,1,0.9935852999333292,0.16895590000785887,None,580.7369882001076,580.7370090000331,None,580.7370325000957,580.737049800111,None,,,,,,,,,,,5,4,0,1,2025-04-17_10h00.38.526,rtmindeye,2024.2.4,60.01277067511409,2025-04-17 10h00.49.527935 -0400,
all_stimuli/special515/special_70360.jpg,29,0,29,29,0,,,,0,0,1,4,1,"[9, 21, 31, 45, 56, 68, 69]",1,1,1.222863100003451,0.16900460002943873,None,None,None,,,,,,,,,1,0,1,0,0,29,29,29,580.765507500153,,,,,,,,,,,,,,,,,,,,,,580.7372050001286,580.7372522000223,580.7636382000055,580.765507500153,580.765507500153,580.765507500153,580.765507500153,583.7699951999821,583.7699951999821,584.7533195000142,1,1,1.222863100003451,0.16900460002943873,None,584.753390399972,584.7534119000193,None,584.7534356999677,584.7534527999815,None,,,,,,,,,,,5,4,0,1,2025-04-17_10h00.38.526,rtmindeye,2024.2.4,60.01277067511409,2025-04-17 10h00.49.527935 -0400,
all_stimuli/MST_pairs1/pair_42_w_icerink1.jpg,30,0,30,30,0,,,,0,0,1,4,1,"[9, 21, 31, 45, 56, 68, 69]",2,0,1.1818808000534773,0.21799209993332624,None,None,None,,,,,,,,,1,0,1,0,0,30,30,30,584.8214726001024,,,,,,,,,,,,,,,,,,,,,,584.7536092000082,584.7536524001043,584.8180301999673,584.8214726001024,584.8214726001024,584.8214726001024,584.8214726001024,587.8368953999598,587.8368953999598,588.7697801000904,2,0,1.1818808000534773,0.21799209993332624,None,588.7698500000406,588.7698711999692,None,588.769895200152,588.7699128000531,None,,,,,,,,,,,5,4,0,1,2025-04-17_10h00.38.526,rtmindeye,2024.2.4,60.01277067511409,2025-04-17 10h00.49.527935 -0400,
blank.jpg,31,1,31,31,0,,,,0,0,1,4,1,"[9, 21, 31, 45, 56, 68, 69]",None,0,,,None,None,None,,,,,,,,,1,0,1,0,0,31,31,31,588.78633849998,,,,,,,,,,,,,,,,,,,,,,588.770065400051,588.7701090001501,588.7762384000234,588.78633849998,588.78633849998,588.78633849998,588.78633849998,591.7869708000217,591.7869708000217,592.7699527000077,None,0,,,None,592.7700118001085,592.7700320000295,None,592.7700549000874,592.770071899984,None,592.7868775001261,592.7868775001261,,,,,,,,,5,4,0,1,2025-04-17_10h00.38.526,rtmindeye,2024.2.4,60.01277067511409,2025-04-17 10h00.49.527935 -0400,
all_stimuli/special515/special_30430.jpg,32,0,32,32,0,,,,1,0,1,4,1,"[9, 21, 31, 45, 56, 68, 69]",2,1,0.8425761999096721,0.2129389001056552,None,None,None,,,,,,,,,1,0,1,0,0,32,32,32,592.7868775001261,,,,,,,,,,,,,,,,,,,,,,592.7702266001143,592.7702649000566,592.7796908000018,592.7868775001261,592.7868775001261,592.7868775001261,592.7868775001261,595.7863757000305,595.7863757000305,596.7700905001257,2,1,0.8425761999096721,0.2129389001056552,None,596.7701579001732,596.7701785000972,None,596.7702018001582,596.7702186000533,None,596.7974869001191,596.7974869001191,,,,,,,,,5,4,0,1,2025-04-17_10h00.38.526,rtmindeye,2024.2.4,60.01277067511409,2025-04-17 10h00.49.527935 -0400,
all_stimuli/shared1000_notspecial/notspecial_43746.png,33,0,33,33,0,,,,0,0,1,4,1,"[9, 21, 31, 45, 56, 68, 69]",1,1,0.7980085001327097,0.17182699986733496,None,None,None,,,,,,,,,1,0,1,0,0,33,33,33,596.7974869001191,,,,,,,,,,,,,,,,,,,,,,596.7703709001653,596.7704096001107,596.7958194999956,596.7974869001191,596.7974869001191,596.7974869001191,596.7974869001191,599.8033082000911,599.8033082000911,600.7867086001206,1,1,0.7980085001327097,0.17182699986733496,None,600.786781999981,600.7868035000283,None,600.7868272000924,600.7868449001107,None,,,,,,,,,,,5,4,0,1,2025-04-17_10h00.38.526,rtmindeye,2024.2.4,60.01277067511409,2025-04-17 10h00.49.527935 -0400,
all_stimuli/MST_pairs1/pair_34_nsd_875_1_cocoid_67762.png,34,0,34,34,0,,,,0,0,1,4,1,"[9, 21, 31, 45, 56, 68, 69]",1,1,0.8182906999718398,0.21512500010430813,None,None,None,,,,,,,,,1,0,1,0,0,34,34,34,600.9030575000215,,,,,,,,,,,,,,,,,,,,,,600.7870070000645,600.7870509000495,600.8996222999413,600.9030575000215,600.9030575000215,600.9030575000215,600.9030575000215,603.9034208001103,603.9034208001103,604.8035412000027,1,1,0.8182906999718398,0.21512500010430813,None,604.8036128999665,604.8036344000138,None,604.8036585000809,604.8036756000947,None,,,,,,,,,,,5,4,0,1,2025-04-17_10h00.38.526,rtmindeye,2024.2.4,60.01277067511409,2025-04-17 10h00.49.527935 -0400,
all_stimuli/MST_pairs1/pair_12_16_78.png,35,0,35,35,0,,,,1,0,1,4,1,"[9, 21, 31, 45, 56, 68, 69]",2,1,1.2533662000205368,0.21698420005850494,None,None,None,,,,,,,,,1,0,1,0,0,35,35,35,604.81996790017,,,,,,,,,,,,,,,,,,,,,,604.8038300001062,604.8038775001187,604.8150575000327,604.81996790017,604.81996790017,604.81996790017,604.81996790017,607.8203004000243,607.8203004000243,608.8034614999779,2,1,1.2533662000205368,0.21698420005850494,None,608.8035269000102,608.8035480000544,None,608.803571500117,608.8035889000166,None,608.8196527999826,608.8196527999826,,,,,,,,,5,4,0,1,2025-04-17_10h00.38.526,rtmindeye,2024.2.4,60.01277067511409,2025-04-17 10h00.49.527935 -0400,
all_stimuli/special515/special_4249.jpg,36,0,36,36,0,,,,1,0,1,4,1,"[9, 21, 31, 45, 56, 68, 69]",2,1,0.908700600033626,0.19406340015120804,None,None,None,,,,,,,,,1,0,1,0,0,36,36,36,608.8196527999826,,,,,,,,,,,,,,,,,,,,,,608.8037390999962,608.8037884000223,608.8123223001603,608.8196527999826,608.8196527999826,608.8196527999826,608.8196527999826,611.819930100115,611.819930100115,612.8034052001312,2,1,0.908700600033626,0.19406340015120804,None,612.8034712001681,612.8034918999765,None,612.8035160000436,612.8035333000589,None,612.8204298999626,612.8204298999626,,,,,,,,,5,4,0,1,2025-04-17_10h00.38.526,rtmindeye,2024.2.4,60.01277067511409,2025-04-17 10h00.49.527935 -0400,
all_stimuli/MST_pairs1/pair_42_w_icerink2.jpg,37,0,37,37,0,,,,1,0,1,4,1,"[9, 21, 31, 45, 56, 68, 69]",2,1,1.1389850000850856,0.21813159994781017,None,None,None,,,,,,,,,1,0,1,0,0,37,37,37,612.8204298999626,,,,,,,,,,,,,,,,,,,,,,612.8036853000522,612.8037231001072,612.8108643000014,612.8204298999626,612.8204298999626,612.8204298999626,612.8204298999626,615.8196785999462,615.8196785999462,616.8035399999935,2,1,1.1389850000850856,0.21813159994781017,None,616.8036061001476,616.8036259999499,None,616.8036491000094,616.8036660000216,None,616.8307491999585,616.8307491999585,,,,,,,,,5,4,0,1,2025-04-17_10h00.38.526,rtmindeye,2024.2.4,60.01277067511409,2025-04-17 10h00.49.527935 -0400,
all_stimuli/shared1000_notspecial/notspecial_70038.png,38,0,38,38,0,,,,0,0,1,4,1,"[9, 21, 31, 45, 56, 68, 69]",2,0,1.6277562000323087,0.24117020005360246,None,None,None,,,,,,,,,1,0,1,0,0,38,38,38,616.8307491999585,,,,,,,,,,,,,,,,,,,,,,616.8038212000392,616.8038600001018,616.8291464999784,616.8307491999585,616.8307491999585,616.8307491999585,616.8307491999585,619.8367288000882,619.8367288000882,620.8201052001677,2,0,1.6277562000323087,0.24117020005360246,None,620.820179700153,620.82020070008,None,620.8202247000299,620.820242300164,None,,,,,,,,,,,5,4,0,1,2025-04-17_10h00.38.526,rtmindeye,2024.2.4,60.01277067511409,2025-04-17 10h00.49.527935 -0400,
all_stimuli/special515/special_53155.jpg,39,0,39,39,0,,,,0,0,1,4,1,"[9, 21, 31, 45, 56, 68, 69]",1,1,0.9344475001562387,0.19904989982023835,None,None,None,,,,,,,,,1,0,1,0,0,39,39,39,620.8449983000755,,,,,,,,,,,,,,,,,,,,,,620.8203990000766,620.8204427999444,620.8432762001175,620.8449983000755,620.8449983000755,620.8449983000755,620.8449983000755,623.853364800103,623.853364800103,624.8365661001299,1,1,0.9344475001562387,0.19904989982023835,None,624.836636699969,624.8366583001334,None,624.8366817000788,624.8366988000926,None,,,,,,,,,,,5,4,0,1,2025-04-17_10h00.38.526,rtmindeye,2024.2.4,60.01277067511409,2025-04-17 10h00.49.527935 -0400,
all_stimuli/special515/special_24530.jpg,40,0,40,40,0,,,,1,0,1,4,1,"[9, 21, 31, 45, 56, 68, 69]",2,1,0.8479418000206351,0.19486070005223155,None,None,None,,,,,,,,,1,0,1,0,0,40,40,40,624.8535846001469,,,,,,,,,,,,,,,,,,,,,,624.836853899993,624.8368973000906,624.8450315000955,624.8535846001469,624.8535846001469,624.8535846001469,624.8535846001469,627.8529135000426,627.8529135000426,628.8367544000503,2,1,0.8479418000206351,0.19486070005223155,None,628.8368194000795,628.8368402000051,None,628.836863799952,628.836881400086,None,628.8696906000841,628.8696906000841,,,,,,,,,5,4,0,1,2025-04-17_10h00.38.526,rtmindeye,2024.2.4,60.01277067511409,2025-04-17 10h00.49.527935 -0400,
all_stimuli/special515/special_32232.jpg,41,0,41,41,0,,,,0,0,1,4,1,"[9, 21, 31, 45, 56, 68, 69]",1,1,1.065813799854368,0.23093830002471805,None,None,None,,,,,,,,,1,0,1,0,0,41,41,41,628.8696906000841,,,,,,,,,,,,,,,,,,,,,,628.8370342999697,628.8370733000338,628.8679690000135,628.8696906000841,628.8696906000841,628.8696906000841,628.8696906000841,631.8699360999744,631.8699360999744,632.85322550009,1,1,1.065813799854368,0.23093830002471805,None,632.8532954000402,632.8533173000906,None,632.8533412001561,632.8533588000573,None,,,,,,,,,,,5,4,0,1,2025-04-17_10h00.38.526,rtmindeye,2024.2.4,60.01277067511409,2025-04-17 10h00.49.527935 -0400,
all_stimuli/special515/special_41814.jpg,42,0,42,42,0,,,,0,0,1,4,1,"[9, 21, 31, 45, 56, 68, 69]",1,1,0.8085893001407385,0.19089319999329746,None,None,None,,,,,,,,,1,0,1,0,0,42,42,42,632.869862300111,,,,,,,,,,,,,,,,,,,,,,632.8535223000217,632.8535662000068,632.8647174001671,632.869862300111,632.869862300111,632.869862300111,632.869862300111,635.8695519000757,635.8695519000757,636.8533986001275,1,1,0.8085893001407385,0.19089319999329746,None,636.8534647000488,636.8534852000885,None,636.8535081001464,636.8535249000415,None,636.8871206000913,636.8871206000913,,,,,,,,,5,4,0,1,2025-04-17_10h00.38.526,rtmindeye,2024.2.4,60.01277067511409,2025-04-17 10h00.49.527935 -0400,
all_stimuli/shared1000_notspecial/notspecial_23883.png,43,0,43,43,0,,,,0,0,1,4,1,"[9, 21, 31, 45, 56, 68, 69]",1,1,0.740310600027442,0.2810750000644475,None,None,None,,,,,,,,,1,0,1,0,0,43,43,43,636.8871206000913,,,,,,,,,,,,,,,,,,,,,,636.8536751000211,636.8537137000822,636.8853379001375,636.8871206000913,636.8871206000913,636.8871206000913,636.8871206000913,639.886786499992,639.886786499992,640.8699652000796,1,1,0.740310600027442,0.2810750000644475,None,640.8700373000465,640.8700590999797,None,640.8700830000453,640.8701003999449,None,,,,,,,,,,,5,4,0,1,2025-04-17_10h00.38.526,rtmindeye,2024.2.4,60.01277067511409,2025-04-17 10h00.49.527935 -0400,
all_stimuli/shared1000_notspecial/notspecial_4436.png,44,0,44,44,0,,,,0,0,1,4,1,"[9, 21, 31, 45, 56, 68, 69]",1,1,0.8697114998940378,0.18805560003966093,None,None,None,,,,,,,,,1,0,1,0,0,44,44,44,640.9645992000587,,,,,,,,,,,,,,,,,,,,,,640.8702559000812,640.8702996999491,640.9610797001515,640.9645992000587,640.9645992000587,640.9645992000587,640.9645992000587,643.969881300116,643.969881300116,644.8868524001446,1,1,0.8697114998940378,0.18805560003966093,None,644.886921999976,644.8869426001329,None,644.8869668000843,644.8869841000997,None,,,,,,,,,,,5,4,0,1,2025-04-17_10h00.38.526,rtmindeye,2024.2.4,60.01277067511409,2025-04-17 10h00.49.527935 -0400,
blank.jpg,45,1,45,45,0,,,,0,0,1,4,1,"[9, 21, 31, 45, 56, 68, 69]",None,0,,,None,None,None,,,,,,,,,1,0,1,0,0,45,45,45,644.9032117000315,,,,,,,,,,,,,,,,,,,,,,644.8871440000366,644.8871882001404,644.893725000089,644.9032117000315,644.9032117000315,644.9032117000315,644.9032117000315,647.903239400126,647.903239400126,648.8864381001331,None,0,,,None,648.8864974000026,648.8865182001609,None,648.8865426001139,648.8865600000136,None,648.903115699999,648.903115699999,,,,,,,,,5,4,0,1,2025-04-17_10h00.38.526,rtmindeye,2024.2.4,60.01277067511409,2025-04-17 10h00.49.527935 -0400,
all_stimuli/special515/special_61133.jpg,46,0,46,46,0,,,,1,0,1,4,1,"[9, 21, 31, 45, 56, 68, 69]",2,1,1.3072712998837233,0.21998470020480454,None,None,None,,,,,,,,,1,0,1,0,0,46,46,46,648.903115699999,,,,,,,,,,,,,,,,,,,,,,648.8867091999855,648.8867473001592,648.894987600157,648.903115699999,648.903115699999,648.903115699999,648.903115699999,651.9029637000058,651.9029637000058,652.8866944001056,2,1,1.3072712998837233,0.21998470020480454,None,652.8867625000421,652.8867830000818,None,652.8868068000302,652.8868238001596,None,652.9342459000181,652.9342459000181,,,,,,,,,5,4,0,1,2025-04-17_10h00.38.526,rtmindeye,2024.2.4,60.01277067511409,2025-04-17 10h00.49.527935 -0400,
all_stimuli/MST_pairs1/pair_24_nsd_158_2_cocoid_3673.png,47,0,47,47,0,,,,0,0,1,4,1,"[9, 21, 31, 45, 56, 68, 69]",1,1,1.3342678998596966,0.26690750010311604,None,None,None,,,,,,,,,1,0,1,0,0,47,47,47,652.9342459000181,,,,,,,,,,,,,,,,,,,,,,652.886982300086,652.8870219001547,652.9324187000748,652.9342459000181,652.9342459000181,652.9342459000181,652.9342459000181,655.9363250001334,655.9363250001334,656.9030260001309,1,1,1.3342678998596966,0.26690750010311604,None,656.9030979999807,656.9031202001497,None,656.9031436999794,656.9031607999932,None,,,,,,,,,,,5,4,0,1,2025-04-17_10h00.38.526,rtmindeye,2024.2.4,60.01277067511409,2025-04-17 10h00.49.527935 -0400,
all_stimuli/MST_pairs1/pair_34_nsd_875_2_cocoid_72398.png,48,0,48,48,0,,,,0,0,1,4,1,"[9, 21, 31, 45, 56, 68, 69]",1,1,1.1552492999471724,0.2590103999245912,None,None,None,,,,,,,,,1,0,1,0,0,48,48,48,656.9711677001324,,,,,,,,,,,,,,,,,,,,,,656.9033189001493,656.9033627000172,656.9675406999886,656.9711677001324,656.9711677001324,656.9711677001324,656.9711677001324,659.9863371001557,659.9863371001557,660.9200732000172,1,1,1.1552492999471724,0.2590103999245912,None,660.9201619999949,660.9201838001609,None,660.9202078999951,660.9202259001322,None,,,,,,,,,,,5,4,0,1,2025-04-17_10h00.38.526,rtmindeye,2024.2.4,60.01277067511409,2025-04-17 10h00.49.527935 -0400,
all_stimuli/shared1000_notspecial/notspecial_51965.png,49,0,49,49,0,,,,0,0,1,4,1,"[9, 21, 31, 45, 56, 68, 69]",1,1,0.8490053000859916,0.190029599936679,None,None,None,,,,,,,,,1,0,1,0,0,49,49,49,660.952396000037,,,,,,,,,,,,,,,,,,,,,,660.9203846000601,660.9204291000497,660.9507504999638,660.952396000037,660.952396000037,660.952396000037,660.952396000037,663.9533157001715,663.9533157001715,664.9366117999889,1,1,0.8490053000859916,0.190029599936679,None,664.9366836999543,664.9367047001142,None,664.9367287999485,664.9367468000855,None,,,,,,,,,,,5,4,0,1,2025-04-17_10h00.38.526,rtmindeye,2024.2.4,60.01277067511409,2025-04-17 10h00.49.527935 -0400,
all_stimuli/MST_pairs1/pair_30_nsd_676_1_cocoid_48729.png,50,0,50,50,0,,,,0,0,1,4,1,"[9, 21, 31, 45, 56, 68, 69]",1,1,1.0252126001287252,0.2159801998641342,None,None,None,,,,,,,,,1,0,1,0,0,50,50,50,664.9961669000331,,,,,,,,,,,,,,,,,,,,,,664.9369127000682,664.9369567001704,664.994187500095,664.9961669000331,664.9961669000331,664.9961669000331,664.9961669000331,668.00308699999,668.00308699999,668.9533828999847,1,1,1.0252126001287252,0.2159801998641342,None,668.953453599941,668.9534750999883,None,668.9534977001604,668.9535149000585,None,,,,,,,,,,,5,4,0,1,2025-04-17_10h00.38.526,rtmindeye,2024.2.4,60.01277067511409,2025-04-17 10h00.49.527935 -0400,
all_stimuli/shared1000_notspecial/notspecial_52328.png,51,0,51,51,0,,,,0,0,1,4,1,"[9, 21, 31, 45, 56, 68, 69]",1,1,0.6991093000397086,0.18031980004161596,None,None,None,,,,,,,,,1,0,1,0,0,51,51,51,668.980293000117,,,,,,,,,,,,,,,,,,,,,,668.9536715999711,668.953725400148,668.9785271999426,668.980293000117,668.980293000117,668.980293000117,668.980293000117,671.9861777999904,671.9861777999904,672.9700456000865,1,1,0.6991093000397086,0.18031980004161596,None,672.970118700061,672.9701400999911,None,672.9701640000567,672.9701815000735,None,,,,,,,,,,,5,4,0,1,2025-04-17_10h00.38.526,rtmindeye,2024.2.4,60.01277067511409,2025-04-17 10h00.49.527935 -0400,
all_stimuli/MST_pairs1/pair_4_6_44.png,52,0,52,52,0,,,,0,0,1,4,1,"[9, 21, 31, 45, 56, 68, 69]",1,1,1.0020382998045534,0.22293010004796088,None,None,None,,,,,,,,,1,0,1,0,0,52,52,52,673.011370500084,,,,,,,,,,,,,,,,,,,,,,672.9703397999983,672.9703834999818,673.0097092001233,673.011370500084,673.011370500084,673.011370500084,673.011370500084,676.0195166000631,676.0195166000631,676.9866073001176,1,1,1.0020382998045534,0.22293010004796088,None,676.986679200083,676.9867007001303,None,676.9867249000818,676.9867420000955,None,,,,,,,,,,,5,4,0,1,2025-04-17_10h00.38.526,rtmindeye,2024.2.4,60.01277067511409,2025-04-17 10h00.49.527935 -0400,
all_stimuli/MST_pairs1/pair_48_w_runway1.jpg,53,0,53,53,0,,,,0,0,1,4,1,"[9, 21, 31, 45, 56, 68, 69]",1,1,0.757584200007841,0.2591299000196159,None,None,None,,,,,,,,,1,0,1,0,0,53,53,53,677.0137366000563,,,,,,,,,,,,,,,,,,,,,,676.9868989000097,676.9869425999932,677.012016300112,677.0137366000563,677.0137366000563,677.0137366000563,677.0137366000563,680.0198364001699,680.0198364001699,681.0031447000802,1,1,0.757584200007841,0.2591299000196159,None,681.0032153001521,681.0032369000837,None,681.0032605000306,681.0032777001616,None,,,,,,,,,,,5,4,0,1,2025-04-17_10h00.38.526,rtmindeye,2024.2.4,60.01277067511409,2025-04-17 10h00.49.527935 -0400,
all_stimuli/special515/special_40840.jpg,54,0,54,54,0,,,,1,0,1,4,1,"[9, 21, 31, 45, 56, 68, 69]",2,1,0.8572525000199676,0.20503919990733266,None,None,None,,,,,,,,,1,0,1,0,0,54,54,54,681.020138300024,,,,,,,,,,,,,,,,,,,,,,681.0034358000848,681.0034795000684,681.0120870000683,681.020138300024,681.020138300024,681.020138300024,681.020138300024,684.0197703000158,684.0197703000158,685.0033476999961,2,1,0.8572525000199676,0.20503919990733266,None,685.0034129000269,685.0034332999494,None,685.003456100123,685.0034726001322,None,685.0301332999952,685.0301332999952,,,,,,,,,5,4,0,1,2025-04-17_10h00.38.526,rtmindeye,2024.2.4,60.01277067511409,2025-04-17 10h00.49.527935 -0400,
all_stimuli/shared1000_notspecial/notspecial_12487.png,55,0,55,55,0,,,,0,0,1,4,1,"[9, 21, 31, 45, 56, 68, 69]",1,1,0.8241586000658572,0.2801626999862492,None,None,None,,,,,,,,,1,0,1,0,0,55,55,55,685.0301332999952,,,,,,,,,,,,,,,,,,,,,,685.0036228999961,685.0036607000511,685.0285585001111,685.0301332999952,685.0301332999952,685.0301332999952,685.0301332999952,688.0364294999745,688.0364294999745,689.0198562999722,1,1,0.8241586000658572,0.2801626999862492,None,689.0199263000395,689.0199476000853,None,689.0199709001463,689.0199885000475,None,,,,,,,,,,,5,4,0,1,2025-04-17_10h00.38.526,rtmindeye,2024.2.4,60.01277067511409,2025-04-17 10h00.49.527935 -0400,
blank.jpg,56,1,56,56,0,,,,0,0,1,4,1,"[9, 21, 31, 45, 56, 68, 69]",None,0,,,None,None,None,,,,,,,,,1,0,1,0,0,56,56,56,689.036838100059,,,,,,,,,,,,,,,,,,,,,,689.0201427999418,689.0201867001597,689.0265103001148,689.036838100059,689.036838100059,689.036838100059,689.036838100059,692.0365826999769,692.0365826999769,693.019943700172,None,0,,,None,693.0200030000415,693.0200231999625,None,693.0200462001376,693.0200631001499,None,693.0361373000778,693.0361373000778,,,,,,,,,5,4,0,1,2025-04-17_10h00.38.526,rtmindeye,2024.2.4,60.01277067511409,2025-04-17 10h00.49.527935 -0400,
all_stimuli/MST_pairs1/pair_16_20_0.png,57,0,57,57,0,,,,1,0,1,4,1,"[9, 21, 31, 45, 56, 68, 69]",2,1,0.8761383998207748,0.21516850008629262,None,None,None,,,,,,,,,1,0,1,0,0,57,57,57,693.0361373000778,,,,,,,,,,,,,,,,,,,,,,693.0202131001279,693.0202512000687,693.0329673001543,693.0361373000778,693.0361373000778,693.0361373000778,693.0361373000778,696.0363025001716,696.0363025001716,697.0200066000689,2,1,0.8761383998207748,0.21516850008629262,None,697.0200720999856,697.0200930000283,None,697.0201165000908,697.0201338001061,None,697.0488315999974,697.0488315999974,,,,,,,,,5,4,0,1,2025-04-17_10h00.38.526,rtmindeye,2024.2.4,60.01277067511409,2025-04-17 10h00.49.527935 -0400,
all_stimuli/shared1000_notspecial/notspecial_12685.png,58,0,58,58,0,,,,0,0,1,4,1,"[9, 21, 31, 45, 56, 68, 69]",1,1,0.7555158000905067,0.21306900004856288,None,None,None,,,,,,,,,1,0,1,0,0,58,58,58,697.0488315999974,,,,,,,,,,,,,,,,,,,,,,697.0202874999959,697.0203291000798,697.0470137000084,697.0488315999974,697.0488315999974,697.0488315999974,697.0488315999974,700.0530666001141,700.0530666001141,701.0365365000907,1,1,0.7555158000905067,0.21306900004856288,None,701.0366096999496,701.0366316,None,701.0366563000716,701.0366736999713,None,,,,,,,,,,,5,4,0,1,2025-04-17_10h00.38.526,rtmindeye,2024.2.4,60.01277067511409,2025-04-17 10h00.49.527935 -0400,
all_stimuli/MST_pairs1/pair_36_nsd_949_2_cocoid_60031.png,59,0,59,59,0,,,,0,0,1,4,1,"[9, 21, 31, 45, 56, 68, 69]",1,1,0.8986257999204099,0.20096040004864335,None,None,None,,,,,,,,,1,0,1,0,0,59,59,59,701.0897564000916,,,,,,,,,,,,,,,,,,,,,,701.03683430003,701.0368787001353,701.0880152999889,701.0897564000916,701.0897564000916,701.0897564000916,701.0897564000916,704.1032187000383,704.1032187000383,705.0531752000097,1,1,0.8986257999204099,0.20096040004864335,None,705.0532460000832,705.053267700132,None,705.0532913000789,705.0533086000942,None,,,,,,,,,,,5,4,0,1,2025-04-17_10h00.38.526,rtmindeye,2024.2.4,60.01277067511409,2025-04-17 10h00.49.527935 -0400,
all_stimuli/shared1000_notspecial/notspecial_34068.png,60,0,60,60,0,,,,0,0,1,4,1,"[9, 21, 31, 45, 56, 68, 69]",1,1,0.9907686000224203,0.1820465000346303,None,None,None,,,,,,,,,1,0,1,0,0,60,60,60,705.0795377001632,,,,,,,,,,,,,,,,,,,,,,705.0534663000144,705.0535101001151,705.077886500163,705.0795377001632,705.0795377001632,705.0795377001632,705.0795377001632,708.0862265999895,708.0862265999895,709.0699736999813,1,1,0.9907686000224203,0.1820465000346303,None,709.0700467000715,709.0700684001204,None,709.0700920999516,709.0701093999669,None,,,,,,,,,,,5,4,0,1,2025-04-17_10h00.38.526,rtmindeye,2024.2.4,60.01277067511409,2025-04-17 10h00.49.527935 -0400,
all_stimuli/special515/special_11159.jpg,61,0,61,61,0,,,,0,0,1,4,1,"[9, 21, 31, 45, 56, 68, 69]",2,0,1.6388676001224667,0.24896800005808473,None,None,None,,,,,,,,,1,0,1,0,0,61,61,61,709.1015060001519,,,,,,,,,,,,,,,,,,,,,,709.0702758000698,709.0703203000594,709.0995736999903,709.1015060001519,709.1015060001519,709.1015060001519,709.1015060001519,712.1030753001105,712.1030753001105,713.0866185000632,2,0,1.6388676001224667,0.24896800005808473,None,713.0866923001595,713.0867147999816,None,713.0867388001643,713.0867558999453,None,,,,,,,,,,,5,4,0,1,2025-04-17_10h00.38.526,rtmindeye,2024.2.4,60.01277067511409,2025-04-17 10h00.49.527935 -0400,
all_stimuli/MST_pairs1/pair_34_nsd_875_2_cocoid_72398.png,62,0,62,62,0,,,,1,0,1,4,1,"[9, 21, 31, 45, 56, 68, 69]",2,1,0.9441585999447852,0.16509349993430078,None,None,None,,,,,,,,,1,0,1,0,0,62,62,62,713.1062454001512,,,,,,,,,,,,,,,,,,,,,,713.0869202001486,713.0869650000241,713.1039565999527,713.1062454001512,713.1062454001512,713.1062454001512,713.1062454001512,716.1198400000576,716.1198400000576,717.1030185001437,2,1,0.9441585999447852,0.16509349993430078,None,717.1030904001091,717.1031112000346,None,717.1031349000987,717.1031527000014,None,,,,,,,,,,,5,4,0,1,2025-04-17_10h00.38.526,rtmindeye,2024.2.4,60.01277067511409,2025-04-17 10h00.49.527935 -0400,
all_stimuli/special515/special_67742.jpg,63,0,63,63,0,,,,0,0,1,4,1,"[9, 21, 31, 45, 56, 68, 69]",1,1,0.8594398000277579,0.16809129994362593,None,None,None,,,,,,,,,1,0,1,0,0,63,63,63,717.1329567001667,,,,,,,,,,,,,,,,,,,,,,717.1033081000205,717.1033524000086,717.1310103000142,717.1329567001667,717.1329567001667,717.1329567001667,717.1329567001667,720.1365294000134,720.1365294000134,721.1199050999712,1,1,0.8594398000277579,0.16809129994362593,None,721.119977200171,721.1199984999839,None,721.1200220000464,721.1200397000648,None,,,,,,,,,,,5,4,0,1,2025-04-17_10h00.38.526,rtmindeye,2024.2.4,60.01277067511409,2025-04-17 10h00.49.527935 -0400,
all_stimuli/MST_pairs1/pair_48_w_runway2.jpg,64,0,64,64,0,,,,0,0,1,4,1,"[9, 21, 31, 45, 56, 68, 69]",2,0,1.2468457999639213,0.2119337001349777,None,None,None,,,,,,,,,1,0,1,0,0,64,64,64,721.1455173001159,,,,,,,,,,,,,,,,,,,,,,721.1201996000018,721.1202432999853,721.1438256001566,721.1455173001159,721.1455173001159,721.1455173001159,721.1455173001159,724.1530333999544,724.1530333999544,725.1362403000239,2,0,1.2468457999639213,0.2119337001349777,None,725.1363131001126,725.1363342001569,None,725.1363580999896,725.1363757001236,None,,,,,,,,,,,5,4,0,1,2025-04-17_10h00.38.526,rtmindeye,2024.2.4,60.01277067511409,2025-04-17 10h00.49.527935 -0400,
all_stimuli/MST_pairs1/pair_40_w_escalator1.jpg,65,0,65,65,0,,,,0,0,1,4,1,"[9, 21, 31, 45, 56, 68, 69]",1,1,1.8605488000903279,0.24503559991717339,None,None,None,,,,,,,,,1,0,1,0,0,65,65,65,725.1898934000637,,,,,,,,,,,,,,,,,,,,,,725.1365329001565,725.1365829000715,725.1880501001142,725.1898934000637,725.1898934000637,725.1898934000637,725.1898934000637,728.2030087001622,728.2030087001622,729.153085200116,1,1,1.8605488000903279,0.24503559991717339,None,729.153154999949,729.1531768999994,None,729.1532000999432,729.1532173000742,None,,,,,,,,,,,5,4,0,1,2025-04-17_10h00.38.526,rtmindeye,2024.2.4,60.01277067511409,2025-04-17 10h00.49.527935 -0400,
all_stimuli/special515/special_62228.jpg,66,0,66,66,0,,,,1,0,1,4,1,"[9, 21, 31, 45, 56, 68, 69]",2,1,1.0386449000798166,0.23395409993827343,None,None,None,,,,,,,,,1,0,1,0,0,66,66,66,729.1697959001176,,,,,,,,,,,,,,,,,,,,,,729.1533727999777,729.1534164000768,729.1623422000557,729.1697959001176,729.1697959001176,729.1697959001176,729.1697959001176,732.1697025001049,732.1697025001049,733.1531577999704,2,1,1.0386449000798166,0.23395409993827343,None,733.1532242000103,733.1532445000485,None,733.1532676001079,733.1532847001217,None,733.2190394999925,733.2190394999925,,,,,,,,,5,4,0,1,2025-04-17_10h00.38.526,rtmindeye,2024.2.4,60.01277067511409,2025-04-17 10h00.49.527935 -0400,
all_stimuli/MST_pairs1/pair_26_nsd_483_2_cocoid_8054.png,67,0,67,67,0,,,,0,0,1,4,1,"[9, 21, 31, 45, 56, 68, 69]",1,1,0.9425158000085503,0.22570189996622503,None,None,None,,,,,,,,,1,0,1,0,0,67,67,67,733.2190394999925,,,,,,,,,,,,,,,,,,,,,,733.1534397001378,733.1534786000848,733.2153613001574,733.2190394999925,733.2190394999925,733.2190394999925,733.2190394999925,736.219848100096,736.219848100096,737.1699209001381,1,1,0.9425158000085503,0.22570189996622503,None,737.1699926999863,737.1700148000382,None,737.1700381999835,737.1700554001145,None,,,,,,,,,,,5,4,0,1,2025-04-17_10h00.38.526,rtmindeye,2024.2.4,60.01277067511409,2025-04-17 10h00.49.527935 -0400,
blank.jpg,68,1,68,68,0,,,,0,0,1,4,1,"[9, 21, 31, 45, 56, 68, 69]",None,0,,,None,None,None,,,,,,,,,1,0,1,0,0,68,68,68,737.1864812001586,,,,,,,,,,,,,,,,,,,,,,737.1702157000545,737.1702598000411,737.1761907001492,737.1864812001586,737.1864812001586,737.1864812001586,737.1864812001586,740.1863337999675,740.1863337999675,741.1698478001636,None,0,,,None,741.1699086001609,741.1699330999982,None,741.1699564000592,741.1699733000714,None,741.1864684999455,741.1864684999455,,,,,,,,,5,4,0,1,2025-04-17_10h00.38.526,rtmindeye,2024.2.4,60.01277067511409,2025-04-17 10h00.49.527935 -0400,
blank.jpg,69,1,69,69,0,,,,0,1,1,4,0,"[9, 21, 31, 45, 56, 68, 69]",None,0,,,None,1,equal,5.2271193999331445,None,21.37109659984708,None,,,,,1,0,1,0,0,69,69,69,741.1864684999455,,,,,,,,,,,,,,,,,,,,,,741.1701273000799,741.170165900141,741.1749303000979,741.1864684999455,741.1864684999455,741.1864684999455,741.1864684999455,744.1864098999649,744.1864098999649,745.1700347000733,None,0,,,None,745.1766073000617,750.4199739999603,1,750.4200300001539,771.8199623001274,equal,745.1864718999714,745.1864718999714,745.1864718999714,745.1864718999714,5.2271193999331445,None,750.4363289000466,750.4363289000466,21.37109659984708,None,5,4,0,1,2025-04-17_10h00.38.526,rtmindeye,2024.2.4,60.01277067511409,2025-04-17 10h00.49.527935 -0400,
,,,1,0,1,,,,,,,,,,,,,,,,,,,,,,,,,1,0,1,0,,,,,,,,,,,,,,,,,,,,,,,,,,,,,,,,,,,,,,,,,,,,,,,,,,,,,,,,,,5,4,0,1,2025-04-17_10h00.38.526,rtmindeye,2024.2.4,60.01277067511409,2025-04-17 10h00.49.527935 -0400,
all_stimuli/shared1000_notspecial/notspecial_19672.png,0,0,0,0,0,,,,0,0,2,4,1,"[9, 21, 31, 45, 56, 68, 69]",1,1,1.4101756000891328,0.2010590999852866,None,None,None,,,,,,,,,2,0,2,0,0,0,0,0,771.8601220999844,,,,,,,,,,,,,,,,,,,,,,771.84394349996,771.8440429000184,771.858144900063,771.8601220999844,771.8601220999844,771.8601220999844,771.8601220999844,774.8696429000702,774.8696429000702,775.8527657000814,1,1,1.4101756000891328,0.2010590999852866,None,775.85283850017,775.8528619999997,None,775.8528867000714,775.8529046999756,None,,,,,,,,,,,5,4,0,1,2025-04-17_10h00.38.526,rtmindeye,2024.2.4,60.01277067511409,2025-04-17 10h00.49.527935 -0400,
all_stimuli/special515/special_55526.jpg,1,0,1,1,0,,,,0,0,2,4,1,"[9, 21, 31, 45, 56, 68, 69]",1,1,0.8910226998850703,0.24904799996875226,None,None,None,,,,,,,,,2,0,2,0,0,1,1,1,775.8823204000946,,,,,,,,,,,,,,,,,,,,,,775.8530546000693,775.85309840017,775.880524000153,775.8823204000946,775.8823204000946,775.8823204000946,775.8823204000946,778.8862399000209,778.8862399000209,779.8699475000612,1,1,0.8910226998850703,0.24904799996875226,None,779.8700189001393,779.8700403999537,None,779.8700648001395,779.8700822000392,None,,,,,,,,,,,5,4,0,1,2025-04-17_10h00.38.526,rtmindeye,2024.2.4,60.01277067511409,2025-04-17 10h00.49.527935 -0400,
all_stimuli/MST_pairs1/pair_22_nsd_115_1_cocoid_8171.png,2,0,2,2,0,,,,0,0,2,4,1,"[9, 21, 31, 45, 56, 68, 69]",2,0,1.299473299877718,0.19501410005614161,None,None,None,,,,,,,,,2,0,2,0,0,2,2,2,779.9279118000995,,,,,,,,,,,,,,,,,,,,,,779.8702444001101,779.870288599981,779.9258262000512,779.9279118000995,779.9279118000995,779.9279118000995,779.9279118000995,782.9364281001035,782.9364281001035,783.8864357999992,2,0,1.299473299877718,0.19501410005614161,None,783.8865070000757,783.886528500123,None,783.8865519999526,783.886569699971,None,,,,,,,,,,,5,4,0,1,2025-04-17_10h00.38.526,rtmindeye,2024.2.4,60.01277067511409,2025-04-17 10h00.49.527935 -0400,
