current_image,trial_index,is_blank_trial,thisN,thisTrialN,thisRepN,press_if_repeat_2.keys,press_if_repeat_2.corr,press_if_repeat_2.rt,press_if_repeat_2.duration,all_keys_pressed_2.keys,is_repeat,is_new_run,run_num,sess_num,is_not_last_trial,all_blanks_list,press_if_repeat.keys,press_if_repeat.corr,press_if_repeat.rt,press_if_repeat.duration,all_keys_pressed.keys,key_resp_5.keys,key_resp_4.keys,all_keys_pressed.rt,all_keys_pressed.duration,key_resp_5.rt,key_resp_5.duration,key_resp_4.rt,key_resp_4.duration,practice.thisRepN,practice.thisTrialN,practice.thisN,practice.thisIndex,loop_runs.thisRepN,loop_runs.thisTrialN,loop_runs.thisN,loop_runs.thisIndex,loop_all_images.thisRepN,loop_all_images.thisTrialN,loop_all_images.thisN,loop_all_images.thisIndex,thisRow.t,notes,set_up.started,set_up.stopped,practice_continue.started,key_resp_6.started,text_6.started,practice_continue.stopped,key_resp_6.keys,key_resp_6.rt,key_resp_6.duration,practice_trial.started,image_2.started,press_if_repeat_2.started,polygon_3.started,all_keys_pressed_2.started,image_2.stopped,press_if_repeat_2.stopped,practice_trial.stopped,practice.press_if_repeat_2.keys,practice.press_if_repeat_2.corr,practice.press_if_repeat_2.rt,practice.press_if_repeat_2.duration,practice.all_keys_pressed_2.keys,testing_continue.started,key_resp_7.started,text_7.started,testing_continue.stopped,key_resp_7.keys,key_resp_7.rt,key_resp_7.duration,waiting_fmri.started,key_resp_2.started,text_3.started,waiting_fmri.stopped,key_resp_2.keys,key_resp_2.rt,key_resp_2.duration,set_skips_and_correct_key.started,set_skips_and_correct_key.stopped,trial.started,image.started,press_if_repeat.started,polygon.started,all_keys_pressed.started,image.stopped,press_if_repeat.stopped,trial.stopped,loop_all_images.press_if_repeat.keys,loop_all_images.press_if_repeat.corr,loop_all_images.press_if_repeat.rt,loop_all_images.press_if_repeat.duration,loop_all_images.all_keys_pressed.keys,run_wait2_2.started,run_wait2_2.stopped,loop_all_images.key_resp_5.keys,waiting_fmri_2.started,waiting_fmri_2.stopped,loop_all_images.key_resp_4.keys,loop_all_images.all_keys_pressed.rt,loop_all_images.all_keys_pressed.duration,key_resp_5.started,text_5.started,loop_all_images.key_resp_5.rt,loop_all_images.key_resp_5.duration,key_resp_4.started,text_4.started,loop_all_images.key_resp_4.rt,loop_all_images.key_resp_4.duration,participant,session (1 2 or 3),starting_run,skip_practice,date,expName,psychopyVersion,frameRate,expStart
,,,,,,,,,,,,,,,,,,,,,,,,,,,,,,,,,,,,,,,,,,,,0.002535208,0.002603,,,,,,,,,,,,,,,,,,,,,,,,,,,,,,,,,,,,,,,,,,,,,,,,,,,,,,,,,,,,,,,,,,2,5,0,0,2025-01-28_12h41.31.410,rtmindeye,2024.2.3,None,2025-01-28 12h41.49.148470 -0500
,,,,,,,,,,,,,,,,,,,,,,,,,,,,,,,,,,,,,,,,,,,,,,0.006873625,0.015577207996102516,0.015577207996102516,2.848829625,1,2.700454790996446,None,,,,,,,,,,,,,,,,,,,,,,,,,,,,,,,,,,,,,,,,,,,,,,,,,,,,,,,,,,,2,5,0,0,2025-01-28_12h41.31.410,rtmindeye,2024.2.3,None,2025-01-28 12h41.49.148470 -0500
practice_images/w_kitchen2.jpg,0,0,0,0,0,1,0,1.68298375,0.24303616700490238,None,,,,,,,,,,,,,,,,,,,,0,0,0,0,,,,,,,,,2.9789703330025077,,,,,,,,,,,2.9685152919992106,2.9789703330025077,2.9789703330025077,2.9789703330025077,2.9789703330025077,5.9768169579983805,5.9768169579983805,6.860122500002035,1,0,1.68298375,0.24303616700490238,None,,,,,,,,,,,,,,,,,,,,,,,,,,,,,,,,,,,,,,,,,,,,,,2,5,0,0,2025-01-28_12h41.31.410,rtmindeye,2024.2.3,None,2025-01-28 12h41.49.148470 -0500
practice_images/w_boardwalk2.jpg,1,0,1,1,0,1,0,1.1674180419940967,0.2540973330033012,None,,,,,,,,,,,,,,,,,,,,0,1,1,1,,,,,,,,,6.927342542,,,,,,,,,,,6.922430416998395,6.927342542,6.927342542,6.927342542,6.927342542,9.914230832997418,9.914230832997418,10.86086187500041,1,0,1.1674180419940967,0.2540973330033012,None,,,,,,,,,,,,,,,,,,,,,,,,,,,,,,,,,,,,,,,,,,,,,,2,5,0,0,2025-01-28_12h41.31.410,rtmindeye,2024.2.3,None,2025-01-28 12h41.49.148470 -0500
practice_images/w_monument2.jpg,2,0,2,2,0,1,0,0.6298420000020997,0.5769453750035609,None,,,,,,,,,,,,,,,,,,,,0,2,2,2,,,,,,,,,10.957022292001056,,,,,,,,,,,10.95219645799807,10.957022292001056,10.957022292001056,10.957022292001056,10.957022292001056,13.946971874996962,13.946971874996962,14.860195207998913,1,0,0.6298420000020997,0.5769453750035609,None,,,,,,,,,,,,,,,,,,,,,,,,,,,,,,,,,,,,,,,,,,,,,,2,5,0,0,2025-01-28_12h41.31.410,rtmindeye,2024.2.3,None,2025-01-28 12h41.49.148470 -0500
practice_images/w_auditorium2.jpg,3,0,3,3,0,1,0,0.7868610000004992,0.23205416700511705,None,,,,,,,,,,,,,,,,,,,,0,3,3,3,,,,,,,,,14.926948291998997,,,,,,,,,,,14.922271333001845,14.926948291998997,14.926948291998997,14.926948291998997,14.926948291998997,17.91399004199775,17.91399004199775,18.860260875000677,1,0,0.7868610000004992,0.23205416700511705,None,,,,,,,,,,,,,,,,,,,,,,,,,,,,,,,,,,,,,,,,,,,,,,2,5,0,0,2025-01-28_12h41.31.410,rtmindeye,2024.2.3,None,2025-01-28 12h41.49.148470 -0500
practice_images/w_kitchen2.jpg,4,0,4,4,0,2,0,1.4061296669970034,0.2530357920040842,None,,,,,,,,,,,,,,,,,,,,0,4,4,4,,,,,,,,,18.89066745799937,,,,,,,,,,,18.885524167002586,18.89066745799937,18.89066745799937,18.89066745799937,18.89066745799937,21.880172958000912,21.880172958000912,22.860927249996166,2,0,1.4061296669970034,0.2530357920040842,None,,,,,,,,,,,,,,,,,,,,,,,,,,,,,,,,,,,,,,,,,,,,,,2,5,0,0,2025-01-28_12h41.31.410,rtmindeye,2024.2.3,None,2025-01-28 12h41.49.148470 -0500
practice_images/w_auditorium1.jpg,5,0,5,5,0,2,0,1.123816541999986,0.2240038750023814,None,,,,,,,,,,,,,,,,,,,,0,5,5,5,,,,,,,,,22.93296512500092,,,,,,,,,,,22.928107375002583,22.93296512500092,22.93296512500092,22.93296512500092,22.93296512500092,25.931643625001016,25.931643625001016,26.860793332998583,2,0,1.123816541999986,0.2240038750023814,None,,,,,,,,,,,,,,,,,,,,,,,,,,,,,,,,,,,,,,,,,,,,,,2,5,0,0,2025-01-28_12h41.31.410,rtmindeye,2024.2.3,None,2025-01-28 12h41.49.148470 -0500
practice_images/w_bedroom2.jpg,6,0,6,6,0,1,0,1.0444833330038819,0.26599599999462953,None,,,,,,,,,,,,,,,,,,,,0,6,6,6,,,,,,,,,26.921396291996643,,,,,,,,,,,26.916963124996983,26.921396291996643,26.921396291996643,26.921396291996643,26.921396291996643,29.913914541997656,29.913914541997656,30.860536375002994,1,0,1.0444833330038819,0.26599599999462953,None,,,,,,,,,,,,,,,,,,,,,,,,,,,,,,,,,,,,,,,,,,,,,,2,5,0,0,2025-01-28_12h41.31.410,rtmindeye,2024.2.3,None,2025-01-28 12h41.49.148470 -0500
practice_images/w_kitchen1.jpg,7,0,7,7,0,2,0,1.6138836250029271,0.24797470899648033,None,,,,,,,,,,,,,,,,,,,,0,7,7,7,,,,,,,,,30.928972957997757,,,,,,,,,,,30.924063708000176,30.928972957997757,30.928972957997757,30.928972957997757,30.928972957997757,33.92668599999888,33.92668599999888,34.86018079199857,2,0,1.6138836250029271,0.24797470899648033,None,,,,,,,,,,,,,,,,,,,,,,,,,,,,,,,,,,,,,,,,,,,,,,2,5,0,0,2025-01-28_12h41.31.410,rtmindeye,2024.2.3,None,2025-01-28 12h41.49.148470 -0500
practice_images/w_bedroom1.jpg,8,0,8,8,0,2,0,2.3039989169992623,0.20200945800024783,None,,,,,,,,,,,,,,,,,,,,0,8,8,8,,,,,,,,,34.92885650000244,,,,,,,,,,,34.92411645800166,34.92885650000244,34.92885650000244,34.92885650000244,34.92885650000244,37.92703425000218,37.92703425000218,38.86045520799962,2,0,2.3039989169992623,0.20200945800024783,None,,,,,,,,,,,,,,,,,,,,,,,,,,,,,,,,,,,,,,,,,,,,,,2,5,0,0,2025-01-28_12h41.31.410,rtmindeye,2024.2.3,None,2025-01-28 12h41.49.148470 -0500
practice_images/w_monument2.jpg,9,0,9,9,0,2,0,1.1405371250002645,0.22903308300010394,None,,,,,,,,,,,,,,,,,,,,0,9,9,9,,,,,,,,,38.89241117,,,,,,,,,,,38.88876033300039,38.89241117,38.89241117,38.89241117,38.89241117,41.88125416699768,41.88125416699768,42.86062383300305,2,0,1.1405371250002645,0.22903308300010394,None,,,,,,,,,,,,,,,,,,,,,,,,,,,,,,,,,,,,,,,,,,,,,,2,5,0,0,2025-01-28_12h41.31.410,rtmindeye,2024.2.3,None,2025-01-28 12h41.49.148470 -0500
,,,,,,,,,,,,,,,,,,,,,,,,,,,,,,,,,,,,,,,,,,,,,,,,,,,,,,,,,,,,,,,,,,42.87529020800139,42.87824545799958,42.87824545799958,58.746115374997316,2,15.856830500000797,None,,,,,,,,,,,,,,,,,,,,,,,,,,,,,,,,,,,,,,,2,5,0,0,2025-01-28_12h41.31.410,rtmindeye,2024.2.3,None,2025-01-28 12h41.49.148470 -0500
,,,,,,,,,,,,,,,,,,,,,,,,,,,,,,,,,,,,,,,,,,,,,,,,,,,,,,,,,,,,,,,,,,,,,,,,,58.746268417002284,58.75571062500239,58.75571062500239,197.6670089170002,equal,138.90863383399846,None,,,,,,,,,,,,,,,,,,,,,,,,,,,,,,,,2,5,0,0,2025-01-28_12h41.31.410,rtmindeye,2024.2.3,None,2025-01-28 12h41.49.148470 -0500
all_stimuli/special515/special_13613.jpg,0,0,0,0,0,,,,,,0,0,0,5,1,"[9, 21, 31, 45, 56, 68, 69]",1,1,0.5961431670002639,0.3359442919972935,None,None,None,,,,,,,,,,,0,0,0,0,0,0,0,0,197.8791554999989,,,,,,,,,,,,,,,,,,,,,,,,,,,,,,,,,,,,,,197.76143404199684,197.76217112500308,197.87041358299757,197.8791554999989,197.8791554999989,197.8791554999989,197.8791554999989,200.87761470799887,200.87761470799887,201.76428537500033,1,1,0.5961431670002639,0.3359442919972935,None,201.7644956669974,201.76458041700243,None,201.76465737500257,201.76472258300055,None,,,,,,,,,,,2,5,0,0,2025-01-28_12h41.31.410,rtmindeye,2024.2.3,None,2025-01-28 12h41.49.148470 -0500
all_stimuli/shared1000_notspecial/notspecial_31049.png,1,0,1,1,0,,,,,,0,0,0,5,1,"[9, 21, 31, 45, 56, 68, 69]",1,1,0.8760534579996602,0.28500891699513886,None,None,None,,,,,,,,,,,0,0,0,0,0,1,1,1,201.92816091699933,,,,,,,,,,,,,,,,,,,,,,,,,,,,,,,,,,,,,,201.76519270800054,201.76541729200108,201.9228257499999,201.92816091699933,201.92816091699933,201.92816091699933,201.92816091699933,204.9270795830016,204.9270795830016,205.7770244170024,1,1,0.8760534579996602,0.28500891699513886,None,205.77725566700246,205.77737495800102,None,205.77747741700296,205.77756841699738,None,,,,,,,,,,,2,5,0,0,2025-01-28_12h41.31.410,rtmindeye,2024.2.3,None,2025-01-28 12h41.49.148470 -0500
all_stimuli/special515/special_28096.jpg,2,0,2,2,0,,,,,,0,0,0,5,1,"[9, 21, 31, 45, 56, 68, 69]",None,0,,,None,None,None,,,,,,,,,,,0,0,0,0,0,2,2,2,205.8496634999974,,,,,,,,,,,,,,,,,,,,,,,,,,,,,,,,,,,,,,205.77813033299753,205.77835537499777,205.84577287499997,205.8496634999974,205.8496634999974,205.8496634999974,205.8496634999974,208.86091912499978,208.86091912499978,209.79456079199736,None,0,,,None,209.79478304200165,209.79491133299598,None,209.7949890000018,209.7950374169959,None,,,,,,,,,,,2,5,0,0,2025-01-28_12h41.31.410,rtmindeye,2024.2.3,None,2025-01-28 12h41.49.148470 -0500
all_stimuli/shared1000_notspecial/notspecial_68471.png,3,0,3,3,0,,,,,,0,0,0,5,1,"[9, 21, 31, 45, 56, 68, 69]",1,1,0.8884269999980461,0.5210137499962002,None,None,None,,,,,,,,,,,0,0,0,0,0,3,3,3,209.8959144170003,,,,,,,,,,,,,,,,,,,,,,,,,,,,,,,,,,,,,,209.79562704199634,209.79590004200145,209.89257008300046,209.8959144170003,209.8959144170003,209.8959144170003,209.8959144170003,212.8941222919966,212.8941222919966,213.7976810830005,1,1,0.8884269999980461,0.5210137499962002,None,213.79791750000004,213.79798845799814,None,213.79804899999726,213.79808762500033,None,,,,,,,,,,,2,5,0,0,2025-01-28_12h41.31.410,rtmindeye,2024.2.3,None,2025-01-28 12h41.49.148470 -0500
all_stimuli/special515/special_15506.jpg,4,0,4,4,0,,,,,,0,0,0,5,1,"[9, 21, 31, 45, 56, 68, 69]",None,0,,,['1'],None,None,[0.9535661659974721],[0.21098162500129547],,,,,,,,,0,0,0,0,0,4,4,4,213.8737240420014,,,,,,,,,,,,,,,,,,,,,,,,,,,,,,,,,,,,,,213.7985594999991,213.79878912500135,213.87036137499672,213.8737240420014,213.8737240420014,213.8737240420014,213.8737240420014,216.86461716699705,216.86461716699705,217.8105460000006,None,0,,,['1'],217.81090416700317,217.81095050000295,None,217.81100687500293,217.8110400000005,None,[0.9535661659974721],[0.21098162500129547],,,,,,,,,2,5,0,0,2025-01-28_12h41.31.410,rtmindeye,2024.2.3,None,2025-01-28 12h41.49.148470 -0500
all_stimuli/MST_pairs1/pair_24_nsd_158_1_cocoid_2285.png,5,0,5,5,0,,,,,,0,0,0,5,1,"[9, 21, 31, 45, 56, 68, 69]",1,1,1.4736072500018054,0.2149960410024505,None,None,None,,,,,,,,,,,0,0,0,0,0,5,5,5,217.94672491699748,,,,,,,,,,,,,,,,,,,,,,,,,,,,,,,,,,,,,,217.81145166700298,217.8116122499996,217.94329720800306,217.94672491699748,217.94672491699748,217.94672491699748,217.94672491699748,220.9438095000005,220.9438095000005,221.81437554200238,1,1,1.4736072500018054,0.2149960410024505,None,221.81462908299727,221.8146742079989,None,221.81473087499762,221.8147702080023,None,,,,,,,,,,,2,5,0,0,2025-01-28_12h41.31.410,rtmindeye,2024.2.3,None,2025-01-28 12h41.49.148470 -0500
all_stimuli/MST_pairs1/pair_10_14_89.png,6,0,6,6,0,,,,,,0,0,0,5,1,"[9, 21, 31, 45, 56, 68, 69]",1,1,1.5980044169991743,0.22297033300128533,None,None,None,,,,,,,,,,,0,0,0,0,0,6,6,6,221.90141020799638,,,,,,,,,,,,,,,,,,,,,,,,,,,,,,,,,,,,,,221.81520183300017,221.81542083300155,221.8981820830013,221.90141020799638,221.90141020799638,221.90141020799638,221.90141020799638,224.89769087499735,224.89769087499735,225.82744416700007,1,1,1.5980044169991743,0.22297033300128533,None,225.82772020799894,225.82779137499892,None,225.8279480420024,225.82802087500022,None,,,,,,,,,,,2,5,0,0,2025-01-28_12h41.31.410,rtmindeye,2024.2.3,None,2025-01-28 12h41.49.148470 -0500
all_stimuli/special515/special_62015.jpg,7,0,7,7,0,,,,,,0,0,0,5,1,"[9, 21, 31, 45, 56, 68, 69]",1,1,1.3852412079941132,0.222958792,None,None,None,,,,,,,,,,,0,0,0,0,0,7,7,7,225.9051091250003,,,,,,,,,,,,,,,,,,,,,,,,,,,,,,,,,,,,,,225.82860487500147,225.82882070799678,225.90055608299735,225.9051091250003,225.9051091250003,225.9051091250003,225.9051091250003,228.8983672079994,228.8983672079994,229.83147266699962,1,1,1.3852412079941132,0.222958792,None,229.83163283299655,229.8316737080022,None,229.83172224999726,229.83175795799616,None,,,,,,,,,,,2,5,0,0,2025-01-28_12h41.31.410,rtmindeye,2024.2.3,None,2025-01-28 12h41.49.148470 -0500
all_stimuli/special515/special_47687.jpg,8,0,8,8,0,,,,,,0,0,0,5,1,"[9, 21, 31, 45, 56, 68, 69]",1,1,1.2341825000039535,0.196999333,None,None,None,,,,,,,,,,,0,0,0,0,0,8,8,8,229.94208045800042,,,,,,,,,,,,,,,,,,,,,,,,,,,,,,,,,,,,,,229.83217895800044,229.83235541699833,229.93695950000256,229.94208045800042,229.94208045800042,229.94208045800042,229.94208045800042,232.9309114170028,232.9309114170028,233.84390366700245,1,1,1.2341825000039535,0.196999333,None,233.8441088749969,233.84415674999764,None,233.84423133300152,233.84427437499835,None,,,,,,,,,,,2,5,0,0,2025-01-28_12h41.31.410,rtmindeye,2024.2.3,None,2025-01-28 12h41.49.148470 -0500
blank.jpg,9,1,9,9,0,,,,,,0,0,0,5,1,"[9, 21, 31, 45, 56, 68, 69]",2,0,2.9418038750009146,None,None,None,None,,,,,,,,,,,0,0,0,0,0,9,9,9,233.96547145800287,,,,,,,,,,,,,,,,,,,,,,,,,,,,,,,,,,,,,,233.8446737080012,233.84483249999903,233.96080779199838,233.96547145800287,233.96547145800287,233.96547145800287,233.96547145800287,236.97736920799798,236.97736920799798,237.84830574999796,2,0,2.9418038750009146,None,None,237.84848733300169,237.848531,None,237.84859687500284,237.84863279199635,None,,,,,,,,,,,2,5,0,0,2025-01-28_12h41.31.410,rtmindeye,2024.2.3,None,2025-01-28 12h41.49.148470 -0500
all_stimuli/special515/special_4249.jpg,10,0,10,10,0,,,,,,0,0,0,5,1,"[9, 21, 31, 45, 56, 68, 69]",1,1,1.2572077910008375,0.3370409170020139,None,None,None,,,,,,,,,,,0,0,0,0,0,10,10,10,237.91909475000284,,,,,,,,,,,,,,,,,,,,,,,,,,,,,,,,,,,,,,237.84906820800097,237.8492527499984,237.91452924999612,237.91909475000284,237.91909475000284,237.91909475000284,237.91909475000284,240.9145175829981,240.9145175829981,241.86074212499807,1,1,1.2572077910008375,0.3370409170020139,None,241.86091745799786,241.86096549999638,None,241.86103037500288,241.86106695800117,None,,,,,,,,,,,2,5,0,0,2025-01-28_12h41.31.410,rtmindeye,2024.2.3,None,2025-01-28 12h41.49.148470 -0500
all_stimuli/special515/special_54361.jpg,11,0,11,11,0,,,,,,0,0,0,5,1,"[9, 21, 31, 45, 56, 68, 69]",1,1,1.6148707089960226,0.2600301659986144,None,None,None,,,,,,,,,,,0,0,0,0,0,11,11,11,241.92841766699712,,,,,,,,,,,,,,,,,,,,,,,,,,,,,,,,,,,,,,241.8615505830021,241.86172120799893,241.92356937500153,241.92841766699712,241.92841766699712,241.92841766699712,241.92841766699712,244.92708129200037,244.92708129200037,245.86418087499624,1,1,1.6148707089960226,0.2600301659986144,None,245.8643775419987,245.86447108299762,None,245.86453433299903,245.86457470800087,None,,,,,,,,,,,2,5,0,0,2025-01-28_12h41.31.410,rtmindeye,2024.2.3,None,2025-01-28 12h41.49.148470 -0500
all_stimuli/special515/special_6489.jpg,12,0,12,12,0,,,,,,0,0,0,5,1,"[9, 21, 31, 45, 56, 68, 69]",1,1,1.6173670420030248,0.23198233299626736,None,None,None,,,,,,,,,,,0,0,0,0,0,12,12,12,245.93903858299745,,,,,,,,,,,,,,,,,,,,,,,,,,,,,,,,,,,,,,245.86501475000114,245.8652041250025,245.93515537500207,245.93903858299745,245.93903858299745,245.93903858299745,245.93903858299745,248.93085291700118,248.93085291700118,249.87737375000142,1,1,1.6173670420030248,0.23198233299626736,None,249.87757512499957,249.87762370800192,None,249.87767941699713,249.87772929199855,None,,,,,,,,,,,2,5,0,0,2025-01-28_12h41.31.410,rtmindeye,2024.2.3,None,2025-01-28 12h41.49.148470 -0500
all_stimuli/special515/special_38641.jpg,13,0,13,13,0,,,,,,0,0,0,5,1,"[9, 21, 31, 45, 56, 68, 69]",1,1,1.884468124997511,0.23203283399925567,None,None,None,,,,,,,,,,,0,0,0,0,0,13,13,13,249.96278475000145,,,,,,,,,,,,,,,,,,,,,,,,,,,,,,,,,,,,,,249.87827749999997,249.87844787500217,249.95857991700177,249.96278475000145,249.96278475000145,249.96278475000145,249.96278475000145,252.96043266700144,252.96043266700144,253.88086124999973,1,1,1.884468124997511,0.23203283399925567,None,253.8810563750012,253.88110745800077,None,253.88116979200277,253.88120708300266,None,,,,,,,,,,,2,5,0,0,2025-01-28_12h41.31.410,rtmindeye,2024.2.3,None,2025-01-28 12h41.49.148470 -0500
all_stimuli/shared1000_notspecial/notspecial_67168.png,14,0,14,14,0,,,,,,0,0,0,5,1,"[9, 21, 31, 45, 56, 68, 69]",1,1,1.7373825419999775,0.19702166600472992,None,None,None,,,,,,,,,,,0,0,0,0,0,14,14,14,253.98496083299688,,,,,,,,,,,,,,,,,,,,,,,,,,,,,,,,,,,,,,253.88162566699611,253.88180633299635,253.97959545799677,253.98496083299688,253.98496083299688,253.98496083299688,253.98496083299688,256.9808180830005,256.9808180830005,257.8941395,1,1,1.7373825419999775,0.19702166600472992,None,257.8944595419962,257.89451341699896,None,257.89457895800297,257.89465441700304,None,,,,,,,,,,,2,5,0,0,2025-01-28_12h41.31.410,rtmindeye,2024.2.3,None,2025-01-28 12h41.49.148470 -0500
all_stimuli/shared1000_notspecial/notspecial_59079.png,15,0,15,15,0,,,,,,0,0,0,5,1,"[9, 21, 31, 45, 56, 68, 69]",1,1,1.4355734170021606,0.2169976660006796,None,None,None,,,,,,,,,,,0,0,0,0,0,15,15,15,257.986788,,,,,,,,,,,,,,,,,,,,,,,,,,,,,,,,,,,,,,257.89511483300157,257.89527195799747,257.9822025829999,257.986788,257.986788,257.986788,257.986788,260.98121645799984,260.98121645799984,261.8969438749991,1,1,1.4355734170021606,0.2169976660006796,None,261.89706858299905,261.8971173329992,None,261.89715866700135,261.8971886250001,None,,,,,,,,,,,2,5,0,0,2025-01-28_12h41.31.410,rtmindeye,2024.2.3,None,2025-01-28 12h41.49.148470 -0500
all_stimuli/MST_pairs1/pair_2_4_89.png,16,0,16,16,0,,,,,,0,0,0,5,1,"[9, 21, 31, 45, 56, 68, 69]",1,1,1.2874902080002357,0.2369699170012609,None,None,None,,,,,,,,,,,0,0,0,0,0,16,16,16,262.03587395799696,,,,,,,,,,,,,,,,,,,,,,,,,,,,,,,,,,,,,,261.8975231250006,261.89762854199944,262.0313137080011,262.03587395799696,262.03587395799696,262.03587395799696,262.03587395799696,265.03154695800185,265.03154695800185,265.91055891699943,1,1,1.2874902080002357,0.2369699170012609,None,265.91075616700255,265.91081487500196,None,265.9108807500015,265.91092154200305,None,,,,,,,,,,,2,5,0,0,2025-01-28_12h41.31.410,rtmindeye,2024.2.3,None,2025-01-28 12h41.49.148470 -0500
all_stimuli/shared1000_notspecial/notspecial_26127.png,17,0,17,17,0,,,,,,0,0,0,5,1,"[9, 21, 31, 45, 56, 68, 69]",1,1,2.3254653330004658,0.21299829200142995,None,None,None,,,,,,,,,,,0,0,0,0,0,17,17,17,265.9969519169972,,,,,,,,,,,,,,,,,,,,,,,,,,,,,,,,,,,,,,265.91148399999656,265.91166095800145,265.99319633300183,265.9969519169972,265.9969519169972,265.9969519169972,265.9969519169972,268.9938658749961,268.9938658749961,269.91601049999736,1,1,2.3254653330004658,0.21299829200142995,None,269.9162135419974,269.91626070799975,None,269.91631662500004,269.9163536,None,,,,,,,,,,,2,5,0,0,2025-01-28_12h41.31.410,rtmindeye,2024.2.3,None,2025-01-28 12h41.49.148470 -0500
all_stimuli/shared1000_notspecial/notspecial_20223.png,18,0,18,18,0,,,,,,0,0,0,5,1,"[9, 21, 31, 45, 56, 68, 69]",1,1,1.4364163329955772,0.22802245899947593,None,None,None,,,,,,,,,,,0,0,0,0,0,18,18,18,269.99894833299913,,,,,,,,,,,,,,,,,,,,,,,,,,,,,,,,,,,,,,269.91679637500056,269.9170430000013,269.99404454199976,269.99894833299913,269.99894833299913,269.99894833299913,269.99894833299913,272.99394695799856,272.99394695799856,273.9276638750016,1,1,1.4364163329955772,0.22802245899947593,None,273.92793145799806,273.92807974999596,None,273.9281635829975,273.9282225,None,,,,,,,,,,,2,5,0,0,2025-01-28_12h41.31.410,rtmindeye,2024.2.3,None,2025-01-28 12h41.49.148470 -0500
all_stimuli/special515/special_62015.jpg,19,0,19,19,0,,,,,,1,0,0,5,1,"[9, 21, 31, 45, 56, 68, 69]",2,1,1.0432578749969252,0.3110747500031721,None,None,None,,,,,,,,,,,0,0,0,0,0,19,19,19,273.98209766700165,,,,,,,,,,,,,,,,,,,,,,,,,,,,,,,,,,,,,,273.92880145800154,273.9290256669992,273.9780962079967,273.98209766700165,273.98209766700165,273.98209766700165,273.98209766700165,276.9773759169984,276.9773759169984,277.93111599999975,2,1,1.0432578749969252,0.3110747500031721,None,277.93132933299785,277.93137233299785,None,277.9314164169991,277.93144829200173,None,,,,,,,,,,,2,5,0,0,2025-01-28_12h41.31.410,rtmindeye,2024.2.3,None,2025-01-28 12h41.49.148470 -0500
all_stimuli/special515/special_10244.jpg,20,0,20,20,0,,,,,,0,0,0,5,1,"[9, 21, 31, 45, 56, 68, 69]",1,1,1.0922868750058115,0.28300949999538716,None,None,None,,,,,,,,,,,0,0,0,0,0,20,20,20,278.00210858300125,,,,,,,,,,,,,,,,,,,,,,,,,,,,,,,,,,,,,,277.93181512499723,277.93196462500055,277.99870883300173,278.00210858300125,278.00210858300125,278.00210858300125,278.00210858300125,280.9979028750022,280.9979028750022,281.9440829,1,1,1.0922868750058115,0.28300949999538716,None,281.94430341699626,281.9443542079971,None,281.9444303749988,281.94447441699594,None,,,,,,,,,,,2,5,0,0,2025-01-28_12h41.31.410,rtmindeye,2024.2.3,None,2025-01-28 12h41.49.148470 -0500
blank.jpg,21,1,21,21,0,,,,,,0,0,0,5,1,"[9, 21, 31, 45, 56, 68, 69]",2,0,1.7660937089967774,0.23299641600169707,None,None,None,,,,,,,,,,,0,0,0,0,0,21,21,21,281.9873188749989,,,,,,,,,,,,,,,,,,,,,,,,,,,,,,,,,,,,,,281.94515704199875,281.9453814579974,281.9829122079973,281.9873188749989,281.9873188749989,281.9873188749989,281.9873188749989,284.9817201249971,284.9817201249971,285.94815191700036,2,0,1.7660937089967774,0.23299641600169707,None,285.9483239580004,285.94836312499683,None,285.9484140420027,285.9484551249989,None,,,,,,,,,,,2,5,0,0,2025-01-28_12h41.31.410,rtmindeye,2024.2.3,None,2025-01-28 12h41.49.148470 -0500
all_stimuli/special515/special_28524.jpg,22,0,22,22,0,,,,,,0,0,0,5,1,"[9, 21, 31, 45, 56, 68, 69]",1,1,1.696236042000237,0.18802133300050627,None,None,None,,,,,,,,,,,0,0,0,0,0,22,22,22,286.0241722080027,,,,,,,,,,,,,,,,,,,,,,,,,,,,,,,,,,,,,,285.94883,285.94899095800065,286.0193522080008,286.0241722080027,286.0241722080027,286.0241722080027,286.0241722080027,289.01563324999734,289.01563324999734,289.9607020420008,1,1,1.696236042000237,0.18802133300050627,None,289.9609438330008,289.9610097920013,None,289.9610848750017,289.96116962499946,None,,,,,,,,,,,2,5,0,0,2025-01-28_12h41.31.410,rtmindeye,2024.2.3,None,2025-01-28 12h41.49.148470 -0500
all_stimuli/special515/special_30430.jpg,23,0,23,23,0,,,,,,0,0,0,5,1,"[9, 21, 31, 45, 56, 68, 69]",1,1,1.911108874999627,0.21697766600118484,None,None,None,,,,,,,,,,,0,0,0,0,0,23,23,23,290.0183582,,,,,,,,,,,,,,,,,,,,,,,,,,,,,,,,,,,,,,289.9616751249996,289.9618423,290.0145937080015,290.0183582,290.0183582,290.0183582,290.0183582,293.0149215420024,293.0149215420024,293.96468849999656,1,1,1.911108874999627,0.21697766600118484,None,293.9648900829998,293.9649361249976,None,293.9649964170021,293.96503287499945,None,,,,,,,,,,,2,5,0,0,2025-01-28_12h41.31.410,rtmindeye,2024.2.3,None,2025-01-28 12h41.49.148470 -0500
all_stimuli/MST_pairs1/pair_10_14_33.png,24,0,24,24,0,,,,,,0,0,0,5,1,"[9, 21, 31, 45, 56, 68, 69]",1,1,1.3078728329928708,0.2579367500002263,None,None,None,,,,,,,,,,,0,0,0,0,0,24,24,24,294.08460266699694,,,,,,,,,,,,,,,,,,,,,,,,,,,,,,,,,,,,,,293.96548029199766,293.9656685000009,294.0811612920006,294.08460266699694,294.08460266699694,294.08460266699694,294.08460266699694,297.0813564,297.0813564,297.97817387500254,1,1,1.3078728329928708,0.2579367500002263,None,297.97842112500075,297.9784719169984,None,297.97853374999977,297.9785726670016,None,,,,,,,,,,,2,5,0,0,2025-01-28_12h41.31.410,rtmindeye,2024.2.3,None,2025-01-28 12h41.49.148470 -0500
all_stimuli/shared1000_notspecial/notspecial_10907.png,25,0,25,25,0,,,,,,0,0,0,5,1,"[9, 21, 31, 45, 56, 68, 69]",1,1,1.503019084004336,0.23701349999464583,None,None,None,,,,,,,,,,,0,0,0,0,0,25,25,25,298.05341679199773,,,,,,,,,,,,,,,,,,,,,,,,,,,,,,,,,,,,,,297.97904254199966,297.97928924999724,298.0489857499997,298.05341679199773,298.05341679199773,298.05341679199773,298.05341679199773,301.0609422080015,301.0609422080015,301.9812632499961,1,1,1.503019084004336,0.23701349999464583,None,301.9814502079971,301.98149120799644,None,301.9815499999968,301.9815855,None,,,,,,,,,,,2,5,0,0,2025-01-28_12h41.31.410,rtmindeye,2024.2.3,None,2025-01-28 12h41.49.148470 -0500
all_stimuli/special515/special_22587.jpg,26,0,26,26,0,,,,,,0,0,0,5,1,"[9, 21, 31, 45, 56, 68, 69]",1,1,1.5631049160001567,0.20097612500103423,None,None,None,,,,,,,,,,,0,0,0,0,0,26,26,26,302.0713451249976,,,,,,,,,,,,,,,,,,,,,,,,,,,,,,,,,,,,,,301.9820067920009,301.98221183299756,302.0667935419988,302.0713451249976,302.0713451249976,302.0713451249976,302.0713451249976,305.0651885,305.0651885,305.9942910000027,1,1,1.5631049160001567,0.20097612500103423,None,305.9945735000001,305.9947492919964,None,305.9948541,305.99491975000274,None,,,,,,,,,,,2,5,0,0,2025-01-28_12h41.31.410,rtmindeye,2024.2.3,None,2025-01-28 12h41.49.148470 -0500
all_stimuli/special515/special_3687.jpg,27,0,27,27,0,,,,,,0,0,0,5,1,"[9, 21, 31, 45, 56, 68, 69]",1,1,1.6453508749982575,0.2660128750067088,None,None,None,,,,,,,,,,,0,0,0,0,0,27,27,27,306.0651223329987,,,,,,,,,,,,,,,,,,,,,,,,,,,,,,,,,,,,,,305.9955810419997,305.9958150829989,306.06152795800153,306.0651223329987,306.0651223329987,306.0651223329987,306.0651223329987,309.06388279199746,309.06388279199746,309.9982398,1,1,1.6453508749982575,0.2660128750067088,None,309.9984501250001,309.99850216699997,None,309.9985567920012,309.99859287500294,None,,,,,,,,,,,2,5,0,0,2025-01-28_12h41.31.410,rtmindeye,2024.2.3,None,2025-01-28 12h41.49.148470 -0500
all_stimuli/shared1000_notspecial/notspecial_58164.png,28,0,28,28,0,,,,,,0,0,0,5,1,"[9, 21, 31, 45, 56, 68, 69]",1,1,0.9916229999944335,0.20001920900540426,None,None,None,,,,,,,,,,,0,0,0,0,0,28,28,28,310.08379933299875,,,,,,,,,,,,,,,,,,,,,,,,,,,,,,,,,,,,,,309.9990246669986,309.99919337499887,310.07913437500247,310.08379933299875,310.08379933299875,310.08379933299875,310.08379933299875,313.0807996250005,313.0807996250005,314.01080066699797,1,1,0.9916229999944335,0.20001920900540426,None,314.01103833300294,314.0111567499989,None,314.0113302919999,314.01140245799616,None,,,,,,,,,,,2,5,0,0,2025-01-28_12h41.31.410,rtmindeye,2024.2.3,None,2025-01-28 12h41.49.148470 -0500
all_stimuli/special515/special_38494.jpg,29,0,29,29,0,,,,,,0,0,0,5,1,"[9, 21, 31, 45, 56, 68, 69]",1,1,1.4953787919948809,0.23602454100182513,None,None,None,,,,,,,,,,,0,0,0,0,0,29,29,29,314.0780854170007,,,,,,,,,,,,,,,,,,,,,,,,,,,,,,,,,,,,,,314.0119730000006,314.01219375000073,314.07460524999624,314.0780854170007,314.0780854170007,314.0780854170007,314.0780854170007,317.06407408299856,317.06407408299856,318.0144981249978,1,1,1.4953787919948809,0.23602454100182513,None,318.01466366699606,318.0147390420025,None,318.0148018749969,318.0148418749959,None,,,,,,,,,,,2,5,0,0,2025-01-28_12h41.31.410,rtmindeye,2024.2.3,None,2025-01-28 12h41.49.148470 -0500
all_stimuli/MST_pairs1/pair_12_16_22.png,30,0,30,30,0,,,,,,0,0,0,5,1,"[9, 21, 31, 45, 56, 68, 69]",1,1,1.8474685000037425,0.22902520799834747,None,None,None,,,,,,,,,,,0,0,0,0,0,30,30,30,318.11102304200176,,,,,,,,,,,,,,,,,,,,,,,,,,,,,,,,,,,,,,318.01524479199725,318.0153912079986,318.10718229199847,318.11102304200176,318.11102304200176,318.11102304200176,318.11102304200176,321.09759720799775,321.09759720799775,322.0275753329988,1,1,1.8474685000037425,0.22902520799834747,None,322.0277961669999,322.0279214580005,None,322.02802895799687,322.0281621,None,,,,,,,,,,,2,5,0,0,2025-01-28_12h41.31.410,rtmindeye,2024.2.3,None,2025-01-28 12h41.49.148470 -0500
blank.jpg,31,1,31,31,0,,,,,,0,0,0,5,1,"[9, 21, 31, 45, 56, 68, 69]",2,0,2.041948833000788,0.2720818750021863,None,None,None,,,,,,,,,,,0,0,0,0,0,31,31,31,322.0724243329969,,,,,,,,,,,,,,,,,,,,,,,,,,,,,,,,,,,,,,322.02875091700116,322.0289631670021,322.06699679199664,322.0724243329969,322.0724243329969,322.0724243329969,322.0724243329969,325.06457287500234,325.06457287500234,326.0308339999974,2,0,2.041948833000788,0.2720818750021863,None,326.0310039169999,326.0310407500001,None,326.0310878750024,326.03113066699734,None,,,,,,,,,,,2,5,0,0,2025-01-28_12h41.31.410,rtmindeye,2024.2.3,None,2025-01-28 12h41.49.148470 -0500
all_stimuli/special515/special_66489.jpg,32,0,32,32,0,,,,,,0,0,0,5,1,"[9, 21, 31, 45, 56, 68, 69]",1,1,1.8661258749998524,0.21504175000154646,None,None,None,,,,,,,,,,,0,0,0,0,0,32,32,32,326.12832725000044,,,,,,,,,,,,,,,,,,,,,,,,,,,,,,,,,,,,,,326.03164945799654,326.03179033299966,326.12379854200117,326.12832725000044,326.12832725000044,326.12832725000044,326.12832725000044,329.12715995799954,329.12715995799954,330.04439495800034,1,1,1.8661258749998524,0.21504175000154646,None,330.0446767079993,330.04473866699846,None,330.0448058749971,330.0448529999994,None,,,,,,,,,,,2,5,0,0,2025-01-28_12h41.31.410,rtmindeye,2024.2.3,None,2025-01-28 12h41.49.148470 -0500
all_stimuli/MST_pairs1/pair_28_nsd_547_1_cocoid_60932.png,33,0,33,33,0,,,,,,0,0,0,5,1,"[9, 21, 31, 45, 56, 68, 69]",1,1,2.3298100829997566,0.2050165830005426,None,None,None,,,,,,,,,,,0,0,0,0,0,33,33,33,330.17371562500193,,,,,,,,,,,,,,,,,,,,,,,,,,,,,,,,,,,,,,330.0453278749992,330.04549766700075,330.17035458300234,330.17371562500193,330.17371562500193,330.17371562500193,330.17371562500193,333.1778407919992,333.1778407919992,334.04817183299747,1,1,2.3298100829997566,0.2050165830005426,None,334.04836783299834,334.04841066699737,None,334.04846525000175,334.0484998749962,None,,,,,,,,,,,2,5,0,0,2025-01-28_12h41.31.410,rtmindeye,2024.2.3,None,2025-01-28 12h41.49.148470 -0500
all_stimuli/shared1000_notspecial/notspecial_46002.png,34,0,34,34,0,,,,,,0,0,0,5,1,"[9, 21, 31, 45, 56, 68, 69]",1,1,1.3127827499993145,0.23709429099835688,None,None,None,,,,,,,,,,,0,0,0,0,0,34,34,34,334.15460341700236,,,,,,,,,,,,,,,,,,,,,,,,,,,,,,,,,,,,,,334.04892262499925,334.0491321669979,334.14984095800173,334.15460341700236,334.15460341700236,334.15460341700236,334.15460341700236,337.1475500000015,337.1475500000015,338.0609460420019,1,1,1.3127827499993145,0.23709429099835688,None,338.06131350000214,338.06144408300315,None,338.0615297080003,338.06159050000133,None,,,,,,,,,,,2,5,0,0,2025-01-28_12h41.31.410,rtmindeye,2024.2.3,None,2025-01-28 12h41.49.148470 -0500
all_stimuli/special515/special_30632.jpg,35,0,35,35,0,,,,,,0,0,0,5,1,"[9, 21, 31, 45, 56, 68, 69]",1,1,1.0495778749973397,0.22504154100170126,None,None,None,,,,,,,,,,,0,0,0,0,0,35,35,35,338.1309326670016,,,,,,,,,,,,,,,,,,,,,,,,,,,,,,,,,,,,,,338.0622162919972,338.06244462500035,338.1268955830019,338.1309326670016,338.1309326670016,338.1309326670016,338.1309326670016,341.12783891699655,341.12783891699655,342.06443962499907,1,1,1.0495778749973397,0.22504154100170126,None,342.0646250829959,342.06466858299973,None,342.0647153329992,342.0647472499986,None,,,,,,,,,,,2,5,0,0,2025-01-28_12h41.31.410,rtmindeye,2024.2.3,None,2025-01-28 12h41.49.148470 -0500
all_stimuli/special515/special_31936.jpg,36,0,36,36,0,,,,,,0,0,0,5,1,"[9, 21, 31, 45, 56, 68, 69]",1,1,1.206866209002328,0.23601070800214075,None,None,None,,,,,,,,,,,0,0,0,0,0,36,36,36,342.1406385829978,,,,,,,,,,,,,,,,,,,,,,,,,,,,,,,,,,,,,,342.0651227920025,342.06525612500263,342.13675499999954,342.1406385829978,342.1406385829978,342.1406385829978,342.1406385829978,345.1319773,345.1319773,346.07747075000225,1,1,1.206866209002328,0.23601070800214075,None,346.07765754200227,346.0777115419987,None,346.07776820800063,346.07782208299614,None,,,,,,,,,,,2,5,0,0,2025-01-28_12h41.31.410,rtmindeye,2024.2.3,None,2025-01-28 12h41.49.148470 -0500
all_stimuli/MST_pairs1/pair_8_12_56.png,37,0,37,37,0,,,,,,0,0,0,5,1,"[9, 21, 31, 45, 56, 68, 69]",2,0,2.9377824580005836,None,None,None,None,,,,,,,,,,,0,0,0,0,0,37,37,37,346.1777275420027,,,,,,,,,,,,,,,,,,,,,,,,,,,,,,,,,,,,,,346.0783356,346.0785104579991,346.1704571,346.1777275420027,346.1777275420027,346.1777275420027,346.1777275420027,349.1766708750001,349.1766708750001,350.08152591699763,2,0,2.9377824580005836,None,None,350.08171333299833,350.08175954200124,None,350.0818174169981,350.0818533330021,None,,,,,,,,,,,2,5,0,0,2025-01-28_12h41.31.410,rtmindeye,2024.2.3,None,2025-01-28 12h41.49.148470 -0500
all_stimuli/special515/special_19074.jpg,38,0,38,38,0,,,,,,0,0,0,5,1,"[9, 21, 31, 45, 56, 68, 69]",1,1,1.3395579999996698,0.22296216699760407,None,None,None,,,,,,,,,,,0,0,0,0,0,38,38,38,350.1470100000006,,,,,,,,,,,,,,,,,,,,,,,,,,,,,,,,,,,,,,350.0823237500008,350.0825563749968,350.1425683749985,350.1470100000006,350.1470100000006,350.1470100000006,350.1470100000006,353.14402549999795,353.14402549999795,354.0945880829968,1,1,1.3395579999996698,0.22296216699760407,None,354.0949195829962,354.0949900830019,None,354.0950708750024,354.09513804200105,None,,,,,,,,,,,2,5,0,0,2025-01-28_12h41.31.410,rtmindeye,2024.2.3,None,2025-01-28 12h41.49.148470 -0500
all_stimuli/shared1000_notspecial/notspecial_42648.png,39,0,39,39,0,,,,,,0,0,0,5,1,"[9, 21, 31, 45, 56, 68, 69]",1,1,2.1297766249990673,0.211060459,None,None,None,,,,,,,,,,,0,0,0,0,0,39,39,39,354.1846650000007,,,,,,,,,,,,,,,,,,,,,,,,,,,,,,,,,,,,,,354.09576354199817,354.0960786669966,354.17952066699945,354.1846650000007,354.1846650000007,354.1846650000007,354.1846650000007,357.1948446669994,357.1948446669994,358.0975779579967,1,1,2.1297766249990673,0.211060459,None,358.09775575000094,358.09779670799617,None,358.0978500420024,358.0978878750029,None,,,,,,,,,,,2,5,0,0,2025-01-28_12h41.31.410,rtmindeye,2024.2.3,None,2025-01-28 12h41.49.148470 -0500
all_stimuli/MST_pairs1/pair_12_16_22.png,40,0,40,40,0,,,,,,1,0,0,5,1,"[9, 21, 31, 45, 56, 68, 69]",1,0,1.6756692499984638,0.22499770900321892,None,None,None,,,,,,,,,,,0,0,0,0,0,40,40,40,358.16781150000315,,,,,,,,,,,,,,,,,,,,,,,,,,,,,,,,,,,,,,358.0983032919976,358.09847762499703,358.16327974999876,358.16781150000315,358.16781150000315,358.16781150000315,358.16781150000315,361.16441566700087,361.16441566700087,362.11159233299986,1,0,1.6756692499984638,0.22499770900321892,None,362.11178362499777,362.1118274170003,None,362.11187341700133,362.11190616699605,None,,,,,,,,,,,2,5,0,0,2025-01-28_12h41.31.410,rtmindeye,2024.2.3,None,2025-01-28 12h41.49.148470 -0500
all_stimuli/shared1000_notspecial/notspecial_3951.png,41,0,41,41,0,,,,,,0,0,0,5,1,"[9, 21, 31, 45, 56, 68, 69]",1,1,1.4377125410028384,0.20891908399789827,None,None,None,,,,,,,,,,,0,0,0,0,0,41,41,41,362.21789033299865,,,,,,,,,,,,,,,,,,,,,,,,,,,,,,,,,,,,,,362.1123452,362.11255900000106,362.21342549999827,362.21789033299865,362.21789033299865,362.21789033299865,362.21789033299865,365.21442695800215,365.21442695800215,366.1143371,1,1,1.4377125410028384,0.20891908399789827,None,366.11451412500173,366.11455691699666,None,366.1146030000018,366.1146371249997,None,,,,,,,,,,,2,5,0,0,2025-01-28_12h41.31.410,rtmindeye,2024.2.3,None,2025-01-28 12h41.49.148470 -0500
all_stimuli/MST_pairs1/pair_12_16_78.png,42,0,42,42,0,,,,,,0,0,0,5,1,"[9, 21, 31, 45, 56, 68, 69]",1,1,2.422701749994303,0.1870673750017886,None,None,None,,,,,,,,,,,0,0,0,0,0,42,42,42,366.2108309,,,,,,,,,,,,,,,,,,,,,,,,,,,,,,,,,,,,,,366.11505941700307,366.1152244170007,366.2071263329999,366.2108309,366.2108309,366.2108309,366.2108309,369.1975266669979,369.1975266669979,370.12737283299793,1,1,2.422701749994303,0.1870673750017886,None,370.1275706250017,370.1276386669997,None,370.12770379200083,370.1277508330022,None,,,,,,,,,,,2,5,0,0,2025-01-28_12h41.31.410,rtmindeye,2024.2.3,None,2025-01-28 12h41.49.148470 -0500
all_stimuli/special515/special_11952.jpg,43,0,43,43,0,,,,,,0,0,0,5,1,"[9, 21, 31, 45, 56, 68, 69]",1,1,1.2404649590025656,0.22499887499725446,None,None,None,,,,,,,,,,,0,0,0,0,0,43,43,43,370.20812399999704,,,,,,,,,,,,,,,,,,,,,,,,,,,,,,,,,,,,,,370.12835295799596,370.1285167919996,370.1985866249961,370.20812399999704,370.20812399999704,370.20812399999704,370.20812399999704,373.1981754579974,373.1981754579974,374.1317830420012,1,1,1.2404649590025656,0.22499887499725446,None,374.13197733299603,374.1320255419996,None,374.13207924999733,374.13211545800004,None,,,,,,,,,,,2,5,0,0,2025-01-28_12h41.31.410,rtmindeye,2024.2.3,None,2025-01-28 12h41.49.148470 -0500
all_stimuli/MST_pairs1/pair_14_18_22.png,44,0,44,44,0,,,,,,0,0,0,5,1,"[9, 21, 31, 45, 56, 68, 69]",1,1,2.4703834160027327,0.24496050000016112,None,None,None,,,,,,,,,,,0,0,0,0,0,44,44,44,374.4162132499987,,,,,,,,,,,,,,,,,,,,,,,,,,,,,,,,,,,,,,374.13256770800217,374.1327454170023,374.41286804199626,374.4162132499987,374.4162132499987,374.4162132499987,374.4162132499987,377.41413562499656,377.41413562499656,378.1448257919983,1,1,2.4703834160027327,0.24496050000016112,None,378.1451760830023,378.1452463329988,None,378.1453239580005,378.145381,None,,,,,,,,,,,2,5,0,0,2025-01-28_12h41.31.410,rtmindeye,2024.2.3,None,2025-01-28 12h41.49.148470 -0500
blank.jpg,45,1,45,45,0,,,,,,0,0,0,5,1,"[9, 21, 31, 45, 56, 68, 69]",2,0,2.102608916000463,0.21804308400169248,None,None,None,,,,,,,,,,,0,0,0,0,0,45,45,45,378.19188900000154,,,,,,,,,,,,,,,,,,,,,,,,,,,,,,,,,,,,,,378.1460155419991,378.14633075000165,378.1872181250001,378.19188900000154,378.19188900000154,378.19188900000154,378.19188900000154,381.1814350830027,381.1814350830027,382.14839545799623,2,0,2.102608916000463,0.21804308400169248,None,382.1485519170019,382.14860362499894,None,382.14865233300225,382.1486986669988,None,,,,,,,,,,,2,5,0,0,2025-01-28_12h41.31.410,rtmindeye,2024.2.3,None,2025-01-28 12h41.49.148470 -0500
all_stimuli/MST_pairs1/pair_16_20_56.png,46,0,46,46,0,,,,,,0,0,0,5,1,"[9, 21, 31, 45, 56, 68, 69]",1,1,1.548080624997965,0.2439604169994709,None,None,None,,,,,,,,,,,0,0,0,0,0,46,46,46,382.25458533300116,,,,,,,,,,,,,,,,,,,,,,,,,,,,,,,,,,,,,,382.1490819169994,382.14924008300295,382.2463541670004,382.25458533300116,382.25458533300116,382.25458533300116,382.25458533300116,385.2614765420003,385.2614765420003,386.1609111,1,1,1.548080624997965,0.2439604169994709,None,386.1612255419968,386.16129362500214,None,386.16137775000243,386.16148512499785,None,,,,,,,,,,,2,5,0,0,2025-01-28_12h41.31.410,rtmindeye,2024.2.3,None,2025-01-28 12h41.49.148470 -0500
all_stimuli/special515/special_8933.jpg,47,0,47,47,0,,,,,,0,0,0,5,1,"[9, 21, 31, 45, 56, 68, 69]",1,1,1.7603032080005505,0.23601320900343126,None,None,None,,,,,,,,,,,0,0,0,0,0,47,47,47,386.2491862079987,,,,,,,,,,,,,,,,,,,,,,,,,,,,,,,,,,,,,,386.1620732500014,386.1622765419961,386.24440804200276,386.2491862079987,386.2491862079987,386.2491862079987,386.2491862079987,389.2440844169978,389.2440844169978,390.16493425000226,1,1,1.7603032080005505,0.23601320900343126,None,390.1651248749986,390.1651658749979,None,390.1652197919975,390.16526108299877,None,,,,,,,,,,,2,5,0,0,2025-01-28_12h41.31.410,rtmindeye,2024.2.3,None,2025-01-28 12h41.49.148470 -0500
all_stimuli/MST_pairs1/pair_16_20_56.png,48,0,48,48,0,,,,,,1,0,0,5,1,"[9, 21, 31, 45, 56, 68, 69]",2,1,1.1647570419954718,0.24896766700112494,None,None,None,,,,,,,,,,,0,0,0,0,0,48,48,48,390.22492379199684,,,,,,,,,,,,,,,,,,,,,,,,,,,,,,,,,,,,,,390.1657032919975,390.1658765000029,390.2214976670002,390.22492379199684,390.22492379199684,390.22492379199684,390.22492379199684,393.21627287499723,393.21627287499723,394.1773782500022,2,1,1.1647570419954718,0.24896766700112494,None,394.1774927919978,394.1775278749992,None,394.1775696670011,394.17759983299766,None,,,,,,,,,,,2,5,0,0,2025-01-28_12h41.31.410,rtmindeye,2024.2.3,None,2025-01-28 12h41.49.148470 -0500
all_stimuli/special515/special_5034.jpg,49,0,49,49,0,,,,,,0,0,0,5,1,"[9, 21, 31, 45, 56, 68, 69]",1,1,1.969083124997269,0.21798687500267988,None,None,None,,,,,,,,,,,0,0,0,0,0,49,49,49,394.24451466699975,,,,,,,,,,,,,,,,,,,,,,,,,,,,,,,,,,,,,,394.1779499580007,394.17805429200234,394.2392385830026,394.24451466699975,394.24451466699975,394.24451466699975,394.24451466699975,397.2446208330002,397.2446208330002,398.1813478330005,1,1,1.969083124997269,0.21798687500267988,None,398.1815037499982,398.1815554999994,None,398.18160524999985,398.18167558300047,None,,,,,,,,,,,2,5,0,0,2025-01-28_12h41.31.410,rtmindeye,2024.2.3,None,2025-01-28 12h41.49.148470 -0500
all_stimuli/MST_pairs1/pair_16_20_0.png,50,0,50,50,0,,,,,,0,0,0,5,1,"[9, 21, 31, 45, 56, 68, 69]",2,0,1.1872224170001573,0.25099087499984307,None,None,None,,,,,,,,,,,0,0,0,0,0,50,50,50,398.2854380420031,,,,,,,,,,,,,,,,,,,,,,,,,,,,,,,,,,,,,,398.1821032919979,398.18229141699703,398.2814447499986,398.2854380420031,398.2854380420031,398.2854380420031,398.2854380420031,401.28147866699874,401.28147866699874,402.1942728329959,2,0,1.1872224170001573,0.25099087499984307,None,402.19460187500226,402.1946901249976,None,402.1947814,402.19488708300196,None,,,,,,,,,,,2,5,0,0,2025-01-28_12h41.31.410,rtmindeye,2024.2.3,None,2025-01-28 12h41.49.148470 -0500
all_stimuli/MST_pairs1/pair_46_w_pool2.jpg,51,0,51,51,0,,,,,,0,0,0,5,1,"[9, 21, 31, 45, 56, 68, 69]",1,1,1.803576708996843,0.21098033300222596,None,None,None,,,,,,,,,,,0,0,0,0,0,51,51,51,402.3020830000023,,,,,,,,,,,,,,,,,,,,,,,,,,,,,,,,,,,,,,402.1955158,402.19574366699817,402.29858687499654,402.3020830000023,402.3020830000023,402.3020830000023,402.3020830000023,405.29830737500015,405.29830737500015,406.1983140000011,1,1,1.803576708996843,0.21098033300222596,None,406.1984234170013,406.1984576249961,None,406.1984979999979,406.1985277080021,None,,,,,,,,,,,2,5,0,0,2025-01-28_12h41.31.410,rtmindeye,2024.2.3,None,2025-01-28 12h41.49.148470 -0500
all_stimuli/special515/special_62228.jpg,52,0,52,52,0,,,,,,0,0,0,5,1,"[9, 21, 31, 45, 56, 68, 69]",1,1,1.3790020410015131,0.20594137499574572,None,None,None,,,,,,,,,,,0,0,0,0,0,52,52,52,406.2846795000005,,,,,,,,,,,,,,,,,,,,,,,,,,,,,,,,,,,,,,406.19885858299676,406.1989596670028,406.2812138750014,406.2846795000005,406.2846795000005,406.2846795000005,406.2846795000005,409.2822800419963,409.2822800419963,410.21117712499836,1,1,1.3790020410015131,0.20594137499574572,None,410.21149783299916,410.2115775830025,None,410.21166295799776,410.2117280829989,None,,,,,,,,,,,2,5,0,0,2025-01-28_12h41.31.410,rtmindeye,2024.2.3,None,2025-01-28 12h41.49.148470 -0500
all_stimuli/MST_pairs1/pair_40_w_escalator2.jpg,53,0,53,53,0,,,,,,0,0,0,5,1,"[9, 21, 31, 45, 56, 68, 69]",1,1,1.6781496250041528,0.20201587500196183,None,None,None,,,,,,,,,,,0,0,0,0,0,53,53,53,410.2714888749979,,,,,,,,,,,,,,,,,,,,,,,,,,,,,,,,,,,,,,410.21235324999725,410.2125960830017,410.26758049999626,410.2714888749979,410.2714888749979,410.2714888749979,410.2714888749979,413.2648064169989,413.2648064169989,414.2150625829963,1,1,1.6781496250041528,0.20201587500196183,None,414.21521962500265,414.2152607079988,None,414.21530808300304,414.21534787499695,None,,,,,,,,,,,2,5,0,0,2025-01-28_12h41.31.410,rtmindeye,2024.2.3,None,2025-01-28 12h41.49.148470 -0500
all_stimuli/MST_pairs1/pair_20_nsd_41_2_cocoid_63715.png,54,0,54,54,0,,,,,,0,0,0,5,1,"[9, 21, 31, 45, 56, 68, 69]",1,1,1.3563595000014175,0.2550466249958845,None,None,None,,,,,,,,,,,0,0,0,0,0,54,54,54,414.36128862499754,,,,,,,,,,,,,,,,,,,,,,,,,,,,,,,,,,,,,,414.21574545800104,414.21591429199907,414.3575779579987,414.36128862499754,414.36128862499754,414.36128862499754,414.36128862499754,417.34789374999673,417.34789374999673,418.2286992079971,1,1,1.3563595000014175,0.2550466249958845,None,418.22882008300076,418.22885558300186,None,418.2289002499965,418.2289300830016,None,,,,,,,,,,,2,5,0,0,2025-01-28_12h41.31.410,rtmindeye,2024.2.3,None,2025-01-28 12h41.49.148470 -0500
all_stimuli/shared1000_notspecial/notspecial_22155.png,55,0,55,55,0,,,,,,0,0,0,5,1,"[9, 21, 31, 45, 56, 68, 69]",1,1,1.3553851670003496,0.26299433300300734,None,None,None,,,,,,,,,,,0,0,0,0,0,55,55,55,418.3292716249998,,,,,,,,,,,,,,,,,,,,,,,,,,,,,,,,,,,,,,418.2292690000031,418.2293588329994,418.32512683299865,418.3292716249998,418.3292716249998,418.3292716249998,418.3292716249998,421.3274727079988,421.3274727079988,422.2320370000016,1,1,1.3553851670003496,0.26299433300300734,None,422.23220062499604,422.2322412499998,None,422.23230570799933,422.23234241700266,None,,,,,,,,,,,2,5,0,0,2025-01-28_12h41.31.410,rtmindeye,2024.2.3,None,2025-01-28 12h41.49.148470 -0500
blank.jpg,56,1,56,56,0,,,,,,0,0,0,5,1,"[9, 21, 31, 45, 56, 68, 69]",2,0,1.8184362499960116,0.2110300000058487,None,None,None,,,,,,,,,,,0,0,0,0,0,56,56,56,422.2931352500018,,,,,,,,,,,,,,,,,,,,,,,,,,,,,,,,,,,,,,422.23272949999955,422.2328736670024,422.28795312500006,422.2931352500018,422.2931352500018,422.2931352500018,422.2931352500018,425.28175275000103,425.28175275000103,426.2444182920008,2,0,1.8184362499960116,0.2110300000058487,None,426.24468162500125,426.24476575000153,None,426.2449118,426.2449772079999,None,,,,,,,,,,,2,5,0,0,2025-01-28_12h41.31.410,rtmindeye,2024.2.3,None,2025-01-28 12h41.49.148470 -0500
all_stimuli/special515/special_11617.jpg,57,0,57,57,0,,,,,,0,0,0,5,1,"[9, 21, 31, 45, 56, 68, 69]",1,1,1.6958825840047211,0.20597458299744176,None,None,None,,,,,,,,,,,0,0,0,0,0,57,57,57,426.3278304999985,,,,,,,,,,,,,,,,,,,,,,,,,,,,,,,,,,,,,,426.24555908299953,426.2457685420013,426.3245717500031,426.3278304999985,426.3278304999985,426.3278304999985,426.3278304999985,429.31436504200246,429.31436504200246,430.2462437919967,1,1,1.6958825840047211,0.20597458299744176,None,430.2463589580002,430.24639433300035,None,430.2464360419981,430.2464757080015,None,,,,,,,,,,,2,5,0,0,2025-01-28_12h41.31.410,rtmindeye,2024.2.3,None,2025-01-28 12h41.49.148470 -0500
all_stimuli/MST_pairs1/pair_14_18_22.png,58,0,58,58,0,,,,,,1,0,0,5,1,"[9, 21, 31, 45, 56, 68, 69]",2,1,1.074627000001783,0.22300849999737693,None,None,None,,,,,,,,,,,0,0,0,0,0,58,58,58,430.31206183299946,,,,,,,,,,,,,,,,,,,,,,,,,,,,,,,,,,,,,,430.2468143,430.24690399999963,430.30838420800137,430.31206183299946,430.31206183299946,430.31206183299946,430.31206183299946,433.3110113329967,433.3110113329967,434.24827037499927,2,1,1.074627000001783,0.22300849999737693,None,434.2484527080014,434.2484927080004,None,434.2485381250008,434.24858008299634,None,,,,,,,,,,,2,5,0,0,2025-01-28_12h41.31.410,rtmindeye,2024.2.3,None,2025-01-28 12h41.49.148470 -0500
all_stimuli/shared1000_notspecial/notspecial_63081.png,59,0,59,59,0,,,,,,0,0,0,5,1,"[9, 21, 31, 45, 56, 68, 69]",1,1,1.275075083001866,0.24502966699947137,None,None,None,,,,,,,,,,,0,0,0,0,0,59,59,59,434.3545354579983,,,,,,,,,,,,,,,,,,,,,,,,,,,,,,,,,,,,,,434.2489450419962,434.24908570799744,434.3498188750018,434.3545354579983,434.3545354579983,434.3545354579983,434.3545354579983,437.3483252079968,437.3483252079968,438.2611794580007,1,1,1.275075083001866,0.24502966699947137,None,438.2614497079994,438.26153308300127,None,438.26168629199674,438.2617639579985,None,,,,,,,,,,,2,5,0,0,2025-01-28_12h41.31.410,rtmindeye,2024.2.3,None,2025-01-28 12h41.49.148470 -0500
all_stimuli/MST_pairs1/pair_42_w_icerink2.jpg,60,0,60,60,0,,,,,,0,0,0,5,1,"[9, 21, 31, 45, 56, 68, 69]",1,1,1.7422594579984434,0.24800083300215192,None,None,None,,,,,,,,,,,0,0,0,0,0,60,60,60,438.3383153329996,,,,,,,,,,,,,,,,,,,,,,,,,,,,,,,,,,,,,,438.2623917500023,438.2626247500011,438.33326508299797,438.3383153329996,438.3383153329996,438.3383153329996,438.3383153329996,441.3310885000028,441.3310885000028,442.2648783330005,1,1,1.7422594579984434,0.24800083300215192,None,442.2650572920029,442.2650993330026,None,442.2651509999996,442.2651898749973,None,,,,,,,,,,,2,5,0,0,2025-01-28_12h41.31.410,rtmindeye,2024.2.3,None,2025-01-28 12h41.49.148470 -0500
all_stimuli/MST_pairs1/pair_46_w_pool1.jpg,61,0,61,61,0,,,,,,0,0,0,5,1,"[9, 21, 31, 45, 56, 68, 69]",1,1,1.7385953749981127,0.21899612499692012,None,None,None,,,,,,,,,,,0,0,0,0,0,61,61,61,442.34702654199646,,,,,,,,,,,,,,,,,,,,,,,,,,,,,,,,,,,,,,442.26560854200216,442.2657762500021,442.3418644580015,442.34702654199646,442.34702654199646,442.34702654199646,442.34702654199646,445.3440581670002,445.3440581670002,446.2779788330008,1,1,1.7385953749981127,0.21899612499692012,None,446.2783188329995,446.27838899999915,None,446.2784645829961,446.2785196670011,None,,,,,,,,,,,2,5,0,0,2025-01-28_12h41.31.410,rtmindeye,2024.2.3,None,2025-01-28 12h41.49.148470 -0500
all_stimuli/special515/special_40840.jpg,62,0,62,62,0,,,,,,0,0,0,5,1,"[9, 21, 31, 45, 56, 68, 69]",1,1,1.796468915999867,0.19899974999862025,None,None,None,,,,,,,,,,,0,0,0,0,0,62,62,62,446.35923337499844,,,,,,,,,,,,,,,,,,,,,,,,,,,,,,,,,,,,,,446.2791604169979,446.2794922920002,446.35411508299876,446.35923337499844,446.35923337499844,446.35923337499844,446.35923337499844,449.3477051,449.3477051,450.28188420800143,1,1,1.796468915999867,0.19899974999862025,None,450.28206962499826,450.2821145,None,450.282165,450.28220491699904,None,,,,,,,,,,,2,5,0,0,2025-01-28_12h41.31.410,rtmindeye,2024.2.3,None,2025-01-28 12h41.49.148470 -0500
all_stimuli/special515/special_29837.jpg,63,0,63,63,0,,,,,,0,0,0,5,1,"[9, 21, 31, 45, 56, 68, 69]",1,1,2.3953537499983213,0.2149999579996802,None,None,None,,,,,,,,,,,0,0,0,0,0,63,63,63,450.35835475000204,,,,,,,,,,,,,,,,,,,,,,,,,,,,,,,,,,,,,,450.28262350000296,450.28278995800065,450.3543902079982,450.35835475000204,450.35835475000204,450.35835475000204,450.35835475000204,453.34846108299826,453.34846108299826,454.2945678749966,1,1,2.3953537499983213,0.2149999579996802,None,454.2948424580027,454.29489787499915,None,454.2949591669967,454.2950050829968,None,,,,,,,,,,,2,5,0,0,2025-01-28_12h41.31.410,rtmindeye,2024.2.3,None,2025-01-28 12h41.49.148470 -0500
all_stimuli/shared1000_notspecial/notspecial_4768.png,64,0,64,64,0,,,,,,0,0,0,5,1,"[9, 21, 31, 45, 56, 68, 69]",1,1,2.094775291996484,0.20698112500394927,None,None,None,,,,,,,,,,,0,0,0,0,0,64,64,64,454.40993300000264,,,,,,,,,,,,,,,,,,,,,,,,,,,,,,,,,,,,,,454.29551612499927,454.29571529199893,454.4067052,454.40993300000264,454.40993300000264,454.40993300000264,454.40993300000264,457.39786537500186,457.39786537500186,458.29780429200036,1,1,2.094775291996484,0.20698112500394927,None,458.2980188329966,458.2980595830013,None,458.29811087500275,458.2981439579962,None,,,,,,,,,,,2,5,0,0,2025-01-28_12h41.31.410,rtmindeye,2024.2.3,None,2025-01-28 12h41.49.148470 -0500
all_stimuli/MST_pairs1/pair_20_nsd_41_1_cocoid_15472.png,65,0,65,65,0,,,,,,0,0,0,5,1,"[9, 21, 31, 45, 56, 68, 69]",1,1,1.5238961249997374,0.2369836670040968,None,None,None,,,,,,,,,,,0,0,0,0,0,65,65,65,458.4247933750012,,,,,,,,,,,,,,,,,,,,,,,,,,,,,,,,,,,,,,458.2985386250002,458.29870158300037,458.4214532499973,458.4247933750012,458.4247933750012,458.4247933750012,458.4247933750012,461.4160440830019,461.4160440830019,462.3110652920004,1,1,1.5238961249997374,0.2369836670040968,None,462.3112524169992,462.31134216699866,None,462.3114145829968,462.31146570800047,None,,,,,,,,,,,2,5,0,0,2025-01-28_12h41.31.410,rtmindeye,2024.2.3,None,2025-01-28 12h41.49.148470 -0500
all_stimuli/shared1000_notspecial/notspecial_53157.png,66,0,66,66,0,,,,,,0,0,0,5,1,"[9, 21, 31, 45, 56, 68, 69]",1,1,1.993374584002595,0.224045583,None,None,None,,,,,,,,,,,0,0,0,0,0,66,66,66,462.3903639170021,,,,,,,,,,,,,,,,,,,,,,,,,,,,,,,,,,,,,,462.3119295419965,462.3121154170003,462.3869147919977,462.3903639170021,462.3903639170021,462.3903639170021,462.3903639170021,465.38099820799835,465.38099820799835,466.31486583300284,1,1,1.993374584002595,0.224045583,None,466.31506829200225,466.3151159170011,None,466.31517112500296,466.31521129199973,None,,,,,,,,,,,2,5,0,0,2025-01-28_12h41.31.410,rtmindeye,2024.2.3,None,2025-01-28 12h41.49.148470 -0500
all_stimuli/special515/special_38641.jpg,67,0,67,67,0,,,,,,1,0,0,5,1,"[9, 21, 31, 45, 56, 68, 69]",2,1,1.8278633340014494,0.2340542079982697,None,None,None,,,,,,,,,,,0,0,0,0,0,67,67,67,466.3628288749969,,,,,,,,,,,,,,,,,,,,,,,,,,,,,,,,,,,,,,466.3156431669995,466.3158294579989,466.3583003750027,466.3628288749969,466.3628288749969,466.3628288749969,466.3628288749969,469.36081216699677,469.36081216699677,470.32791833300143,2,1,1.8278633340014494,0.2340542079982697,None,470.3281602499992,470.3282228750031,None,470.3283080830006,470.32842654200067,None,,,,,,,,,,,2,5,0,0,2025-01-28_12h41.31.410,rtmindeye,2024.2.3,None,2025-01-28 12h41.49.148470 -0500
blank.jpg,68,1,68,68,0,,,,,,0,0,0,5,1,"[9, 21, 31, 45, 56, 68, 69]",2,0,1.3408015840032022,0.23699379099707585,None,None,None,,,,,,,,,,,0,0,0,0,0,68,68,68,470.37082295800064,,,,,,,,,,,,,,,,,,,,,,,,,,,,,,,,,,,,,,470.3290182080018,470.32923341699643,470.3658273330002,470.37082295800064,470.37082295800064,470.37082295800064,470.37082295800064,473.3645420419998,473.3645420419998,474.3318805000017,2,0,1.3408015840032022,0.23699379099707585,None,474.33207029200275,474.3321111,None,474.3321597079994,474.3321952920014,None,,,,,,,,,,,2,5,0,0,2025-01-28_12h41.31.410,rtmindeye,2024.2.3,None,2025-01-28 12h41.49.148470 -0500
blank.jpg,69,1,69,69,0,,,,,,0,1,0,5,0,"[9, 21, 31, 45, 56, 68, 69]",2,0,0.7870130000010249,0.2560179590000189,None,1,equal,,,68.23699416699674,None,17.882037082999886,None,,,,,0,0,0,0,0,69,69,69,474.3606547,,,,,,,,,,,,,,,,,,,,,,,,,,,,,,,,,,,,,,474.3326001250025,474.3327876,474.3551477919973,474.3606547,474.3606547,474.3606547,474.3606547,477.36212295800215,477.36212295800215,478.34450729200034,2,0,0.7870130000010249,0.2560179590000189,None,478.3612310419994,546.613456,1,546.6136963329991,564.5132321249985,equal,,,478.3649576250027,478.3649576250027,68.23699416699674,None,546.6229655420029,546.6229655420029,17.882037082999886,None,2,5,0,0,2025-01-28_12h41.31.410,rtmindeye,2024.2.3,None,2025-01-28 12h41.49.148470 -0500
,,,0,0,0,,,,,,,,,,,,,,,,,,,,,,,,,,,,,0,0,0,0,,,,,,,,,,,,,,,,,,,,,,,,,,,,,,,,,,,,,,,,,,,,,,,,,,,,,,,,,,,,,,,,,,,,,,,,,,2,5,0,0,2025-01-28_12h41.31.410,rtmindeye,2024.2.3,None,2025-01-28 12h41.49.148470 -0500
all_stimuli/special515/special_71450.jpg,0,0,0,0,0,,,,,,0,0,1,5,1,"[9, 21, 31, 45, 56, 68, 69]",1,1,0.8428624160005711,0.2380365420031012,None,None,None,,,,,,,,,,,1,0,1,0,0,0,0,0,564.7200230829985,,,,,,,,,,,,,,,,,,,,,,,,,,,,,,,,,,,,,,564.619139,564.6196331,564.7118502500016,564.7200230829985,564.7200230829985,564.7200230829985,564.7200230829985,567.7153682919961,567.7153682919961,568.6279102080007,1,1,0.8428624160005711,0.2380365420031012,None,568.6281312919964,568.6281919579997,None,568.6282575419973,568.6283082079972,None,,,,,,,,,,,2,5,0,0,2025-01-28_12h41.31.410,rtmindeye,2024.2.3,None,2025-01-28 12h41.49.148470 -0500
all_stimuli/special515/special_38246.jpg,1,0,1,1,0,,,,,,0,0,1,5,1,"[9, 21, 31, 45, 56, 68, 69]",1,1,1.0035160000043106,0.2339781669943477,None,None,None,,,,,,,,,,,1,0,1,0,0,1,1,1,568.7063437079996,,,,,,,,,,,,,,,,,,,,,,,,,,,,,,,,,,,,,,568.6288629999981,568.6290297079977,568.7017625829976,568.7063437079996,568.7063437079996,568.7063437079996,568.7063437079996,571.6990989580008,571.6990989580008,572.6312367499995,1,1,1.0035160000043106,0.2339781669943477,None,572.6314346250001,572.6315129169961,None,572.6315705000015,572.6316150420025,None,,,,,,,,,,,2,5,0,0,2025-01-28_12h41.31.410,rtmindeye,2024.2.3,None,2025-01-28 12h41.49.148470 -0500
all_stimuli/special515/special_10046.jpg,2,0,2,2,0,,,,,,0,0,1,5,1,"[9, 21, 31, 45, 56, 68, 69]",1,1,1.2007029579981463,0.20398733299953165,None,None,None,,,,,,,,,,,1,0,1,0,0,2,2,2,572.7131465420025,,,,,,,,,,,,,,,,,,,,,,,,,,,,,,,,,,,,,,572.6320050419963,572.6321747499969,572.7080561670009,572.7131465420025,572.7131465420025,572.7131465420025,572.7131465420025,575.7109464169989,575.7109464169989,576.6454796249964,1,1,1.2007029579981463,0.20398733299953165,None,576.6457867080026,576.6458865000022,None,576.6459878329988,576.6460768749967,None,,,,,,,,,,,2,5,0,0,2025-01-28_12h41.31.410,rtmindeye,2024.2.3,None,2025-01-28 12h41.49.148470 -0500
all_stimuli/MST_pairs1/pair_38_w_arch2.jpg,3,0,3,3,0,,,,,,0,0,1,5,1,"[9, 21, 31, 45, 56, 68, 69]",1,1,1.604322624996712,0.2070652920010616,None,None,None,,,,,,,,,,,1,0,1,0,0,3,3,3,576.7265833,,,,,,,,,,,,,,,,,,,,,,,,,,,,,,,,,,,,,,576.6469527500012,576.6473251670031,576.7230515420015,576.7265833,576.7265833,576.7265833,576.7265833,579.7147095420005,579.7147095420005,580.6478297,1,1,1.604322624996712,0.2070652920010616,None,580.6480069579993,580.6480674170016,None,580.6481247,580.6481674579991,None,,,,,,,,,,,2,5,0,0,2025-01-28_12h41.31.410,rtmindeye,2024.2.3,None,2025-01-28 12h41.49.148470 -0500
all_stimuli/special515/special_30395.jpg,4,0,4,4,0,,,,,,0,0,1,5,1,"[9, 21, 31, 45, 56, 68, 69]",1,1,1.3787541250057984,0.27206691700121155,None,None,None,,,,,,,,,,,1,0,1,0,0,4,4,4,580.7211321249997,,,,,,,,,,,,,,,,,,,,,,,,,,,,,,,,,,,,,,580.6486062920012,580.6487710000001,580.7172916670024,580.7211321249997,580.7211321249997,580.7211321249997,580.7211321249997,583.7145767080001,583.7145767080001,584.6612512499996,1,1,1.3787541250057984,0.27206691700121155,None,584.6615253330019,584.6615765419992,None,584.6616452079979,584.6617395829962,None,,,,,,,,,,,2,5,0,0,2025-01-28_12h41.31.410,rtmindeye,2024.2.3,None,2025-01-28 12h41.49.148470 -0500
all_stimuli/special515/special_38494.jpg,5,0,5,5,0,,,,,,1,0,1,5,1,"[9, 21, 31, 45, 56, 68, 69]",2,1,0.9525240000002668,0.31301120800344506,None,None,None,,,,,,,,,,,1,0,1,0,0,5,5,5,584.7033459169979,,,,,,,,,,,,,,,,,,,,,,,,,,,,,,,,,,,,,,584.6622151249976,584.6623794580009,584.6996117,584.7033459169979,584.7033459169979,584.7033459169979,584.7033459169979,587.6988572920018,587.6988572920018,588.6648865829993,2,1,0.9525240000002668,0.31301120800344506,None,588.6650924999994,588.6651351670007,None,588.6652030420009,588.6652428750021,None,,,,,,,,,,,2,5,0,0,2025-01-28_12h41.31.410,rtmindeye,2024.2.3,None,2025-01-28 12h41.49.148470 -0500
all_stimuli/MST_pairs1/pair_28_nsd_547_1_cocoid_60932.png,6,0,6,6,0,,,,,,1,0,1,5,1,"[9, 21, 31, 45, 56, 68, 69]",2,1,1.0581487910021679,0.31304112499492476,None,None,None,,,,,,,,,,,1,0,1,0,0,6,6,6,588.7257552079973,,,,,,,,,,,,,,,,,,,,,,,,,,,,,,,,,,,,,,588.6656963749992,588.6658933329963,588.7222959999999,588.7257552079973,588.7257552079973,588.7257552079973,588.7257552079973,591.7161792920015,591.7161792920015,592.6785509580004,2,1,1.0581487910021679,0.31304112499492476,None,592.6787559,592.6787987080024,None,592.6788476669972,592.6788821250011,None,,,,,,,,,,,2,5,0,0,2025-01-28_12h41.31.410,rtmindeye,2024.2.3,None,2025-01-28 12h41.49.148470 -0500
all_stimuli/special515/special_61133.jpg,7,0,7,7,0,,,,,,0,0,1,5,1,"[9, 21, 31, 45, 56, 68, 69]",1,1,1.6381489589984994,0.2599795830028597,None,None,None,,,,,,,,,,,1,0,1,0,0,7,7,7,592.7488166670009,,,,,,,,,,,,,,,,,,,,,,,,,,,,,,,,,,,,,,592.6792425000021,592.6793859579993,592.7450110420032,592.7488166670009,592.7488166670009,592.7488166670009,592.7488166670009,595.7442520420009,595.7442520420009,596.6819090420031,1,1,1.6381489589984994,0.2599795830028597,None,596.6820902499967,596.6821317,None,596.6821876,596.6822252080019,None,,,,,,,,,,,2,5,0,0,2025-01-28_12h41.31.410,rtmindeye,2024.2.3,None,2025-01-28 12h41.49.148470 -0500
all_stimuli/shared1000_notspecial/notspecial_16635.png,8,0,8,8,0,,,,,,0,0,1,5,1,"[9, 21, 31, 45, 56, 68, 69]",1,1,1.4785024999946472,0.21198695900238818,None,None,None,,,,,,,,,,,1,0,1,0,0,8,8,8,596.8093850829973,,,,,,,,,,,,,,,,,,,,,,,,,,,,,,,,,,,,,,596.6826699169978,596.6828837499997,596.8045661,596.8093850829973,596.8093850829973,596.8093850829973,596.8093850829973,599.7992037079966,599.7992037079966,600.6946748749979,1,1,1.4785024999946472,0.21198695900238818,None,600.6949320830026,600.6950024999969,None,600.6950801249986,600.6952149170029,None,,,,,,,,,,,2,5,0,0,2025-01-28_12h41.31.410,rtmindeye,2024.2.3,None,2025-01-28 12h41.49.148470 -0500
blank.jpg,9,1,9,9,0,,,,,,0,0,1,5,1,"[9, 21, 31, 45, 56, 68, 69]",None,0,,,None,None,None,,,,,,,,,,,1,0,1,0,0,9,9,9,600.7441150419982,,,,,,,,,,,,,,,,,,,,,,,,,,,,,,,,,,,,,,600.6958644580009,600.6961277500013,600.7390104579972,600.7441150419982,600.7441150419982,600.7441150419982,600.7441150419982,603.7313538329981,603.7313538329981,604.698421,None,0,,,None,604.6985954170013,604.6986370419982,None,604.6986885000006,604.6987238750007,None,,,,,,,,,,,2,5,0,0,2025-01-28_12h41.31.410,rtmindeye,2024.2.3,None,2025-01-28 12h41.49.148470 -0500
all_stimuli/MST_pairs1/pair_18_nsd_6_1_cocoid_13417.png,10,0,10,10,0,,,,,,0,0,1,5,1,"[9, 21, 31, 45, 56, 68, 69]",1,1,1.3276399169990327,0.2160332909988938,None,None,None,,,,,,,,,,,1,0,1,0,0,10,10,10,604.8362850420017,,,,,,,,,,,,,,,,,,,,,,,,,,,,,,,,,,,,,,604.6991308329962,604.6992986670011,604.8326955000011,604.8362850420017,604.8362850420017,604.8362850420017,604.8362850420017,607.8319510000001,607.8319510000001,608.7115020420024,1,1,1.3276399169990327,0.2160332909988938,None,608.7119002920008,608.7119778749984,None,608.7120670419972,608.7121326670022,None,,,,,,,,,,,2,5,0,0,2025-01-28_12h41.31.410,rtmindeye,2024.2.3,None,2025-01-28 12h41.49.148470 -0500
all_stimuli/shared1000_notspecial/notspecial_21703.png,11,0,11,11,0,,,,,,0,0,1,5,1,"[9, 21, 31, 45, 56, 68, 69]",1,1,1.7626494169962825,0.23396212499937974,None,None,None,,,,,,,,,,,1,0,1,0,0,11,11,11,608.8062732079998,,,,,,,,,,,,,,,,,,,,,,,,,,,,,,,,,,,,,,608.7127598329971,608.7130182,608.8024577920005,608.8062732079998,608.8062732079998,608.8062732079998,608.8062732079998,611.7978080419998,611.7978080419998,612.7154013,1,1,1.7626494169962825,0.23396212499937974,None,612.7155930419976,612.7156402920009,None,612.7156974999962,612.7157388330015,None,,,,,,,,,,,2,5,0,0,2025-01-28_12h41.31.410,rtmindeye,2024.2.3,None,2025-01-28 12h41.49.148470 -0500
all_stimuli/special515/special_24530.jpg,12,0,12,12,0,,,,,,0,0,1,5,1,"[9, 21, 31, 45, 56, 68, 69]",1,1,1.4588630409998586,0.23499874999833992,None,None,None,,,,,,,,,,,1,0,1,0,0,12,12,12,612.8020678329995,,,,,,,,,,,,,,,,,,,,,,,,,,,,,,,,,,,,,,612.7161770829989,612.7163518,612.7982447920003,612.8020678329995,612.8020678329995,612.8020678329995,612.8020678329995,615.7986370829967,615.7986370829967,616.7280487500029,1,1,1.4588630409998586,0.23499874999833992,None,616.7282750419981,616.7283394580008,None,616.7284413,616.7284978750031,None,,,,,,,,,,,2,5,0,0,2025-01-28_12h41.31.410,rtmindeye,2024.2.3,None,2025-01-28 12h41.49.148470 -0500
all_stimuli/shared1000_notspecial/notspecial_6222.png,13,0,13,13,0,,,,,,0,0,1,5,1,"[9, 21, 31, 45, 56, 68, 69]",1,1,1.8452409169985913,0.18409508300101152,None,None,None,,,,,,,,,,,1,0,1,0,0,13,13,13,616.8127178,,,,,,,,,,,,,,,,,,,,,,,,,,,,,,,,,,,,,,616.7290040829976,616.7291728749988,616.8085802920032,616.8127178,616.8127178,616.8127178,616.8127178,619.8111530000024,619.8111530000024,620.7315075000006,1,1,1.8452409169985913,0.18409508300101152,None,620.7316979169991,620.7317447919995,None,620.7318005,620.7318425830017,None,,,,,,,,,,,2,5,0,0,2025-01-28_12h41.31.410,rtmindeye,2024.2.3,None,2025-01-28 12h41.49.148470 -0500
all_stimuli/MST_pairs1/pair_44_w_log_cabin2.jpg,14,0,14,14,0,,,,,,0,0,1,5,1,"[9, 21, 31, 45, 56, 68, 69]",1,1,1.824326750000182,0.27207408300455427,None,None,None,,,,,,,,,,,1,0,1,0,0,14,14,14,620.8106411249973,,,,,,,,,,,,,,,,,,,,,,,,,,,,,,,,,,,,,,620.7322407,620.7324095829972,620.8071240420031,620.8106411249973,620.8106411249973,620.8106411249973,620.8106411249973,623.7980742500004,623.7980742500004,624.7450889579995,1,1,1.824326750000182,0.27207408300455427,None,624.7454922079996,624.7455691249997,None,624.7456652,624.7457282920004,None,,,,,,,,,,,2,5,0,0,2025-01-28_12h41.31.410,rtmindeye,2024.2.3,None,2025-01-28 12h41.49.148470 -0500
all_stimuli/special515/special_28068.jpg,15,0,15,15,0,,,,,,0,0,1,5,1,"[9, 21, 31, 45, 56, 68, 69]",1,1,1.7652749159969972,0.22002670900110388,None,None,None,,,,,,,,,,,1,0,1,0,0,15,15,15,624.8177280829987,,,,,,,,,,,,,,,,,,,,,,,,,,,,,,,,,,,,,,624.7464737920018,624.7467806,624.8138218329987,624.8177280829987,624.8177280829987,624.8177280829987,624.8177280829987,627.8145872919995,627.8145872919995,628.7485965829983,1,1,1.7652749159969972,0.22002670900110388,None,628.7487918330007,628.7488397920024,None,628.7488873330003,628.7489194169975,None,,,,,,,,,,,2,5,0,0,2025-01-28_12h41.31.410,rtmindeye,2024.2.3,None,2025-01-28 12h41.49.148470 -0500
all_stimuli/shared1000_notspecial/notspecial_60978.png,16,0,16,16,0,,,,,,0,0,1,5,1,"[9, 21, 31, 45, 56, 68, 69]",1,1,1.574429375003092,0.205968792,None,None,None,,,,,,,,,,,1,0,1,0,0,16,16,16,628.8794896249965,,,,,,,,,,,,,,,,,,,,,,,,,,,,,,,,,,,,,,628.7493240420008,628.7494819580024,628.8741303749994,628.8794896249965,628.8794896249965,628.8794896249965,628.8794896249965,631.8672144579978,631.8672144579978,632.7614134999967,1,1,1.574429375003092,0.205968792,None,632.7617031670015,632.7617740420028,None,632.7619131669999,632.7619871,None,,,,,,,,,,,2,5,0,0,2025-01-28_12h41.31.410,rtmindeye,2024.2.3,None,2025-01-28 12h41.49.148470 -0500
all_stimuli/MST_pairs1/pair_2_4_22.png,17,0,17,17,0,,,,,,0,0,1,5,1,"[9, 21, 31, 45, 56, 68, 69]",1,1,2.388012666000577,0.24802204200386768,None,None,None,,,,,,,,,,,1,0,1,0,0,17,17,17,632.8548601250004,,,,,,,,,,,,,,,,,,,,,,,,,,,,,,,,,,,,,,632.7626278750031,632.7629113329967,632.8498737920017,632.8548601250004,632.8548601250004,632.8548601250004,632.8548601250004,635.8488957500012,635.8488957500012,636.7646608,1,1,2.388012666000577,0.24802204200386768,None,636.7648427079985,636.764885,None,636.7649377080015,636.7649853749972,None,,,,,,,,,,,2,5,0,0,2025-01-28_12h41.31.410,rtmindeye,2024.2.3,None,2025-01-28 12h41.49.148470 -0500
all_stimuli/shared1000_notspecial/notspecial_46160.png,18,0,18,18,0,,,,,,0,0,1,5,1,"[9, 21, 31, 45, 56, 68, 69]",1,1,2.066183833994728,0.2200462079999852,None,None,None,,,,,,,,,,,1,0,1,0,0,18,18,18,636.8537411669968,,,,,,,,,,,,,,,,,,,,,,,,,,,,,,,,,,,,,,636.7654147499998,636.7655987920007,636.8485802080031,636.8537411669968,636.8537411669968,636.8537411669968,636.8537411669968,639.8482954170031,639.8482954170031,640.7781401250031,1,1,2.066183833994728,0.2200462079999852,None,640.7783645419986,640.7784269580006,None,640.7785072499973,640.7785497500008,None,,,,,,,,,,,2,5,0,0,2025-01-28_12h41.31.410,rtmindeye,2024.2.3,None,2025-01-28 12h41.49.148470 -0500
all_stimuli/special515/special_64880.jpg,19,0,19,19,0,,,,,,0,0,1,5,1,"[9, 21, 31, 45, 56, 68, 69]",1,1,2.140708375,0.2340150409945636,None,None,None,,,,,,,,,,,1,0,1,0,0,19,19,19,640.8512514169997,,,,,,,,,,,,,,,,,,,,,,,,,,,,,,,,,,,,,,640.7790108330009,640.7791855,640.8464135,640.8512514169997,640.8512514169997,640.8512514169997,640.8512514169997,643.8489617919986,643.8489617919986,644.7831512499979,1,1,2.140708375,0.2340150409945636,None,644.7833291,644.783378,None,644.7834309169994,644.7834714580022,None,,,,,,,,,,,2,5,0,0,2025-01-28_12h41.31.410,rtmindeye,2024.2.3,None,2025-01-28 12h41.49.148470 -0500
all_stimuli/MST_pairs1/pair_36_nsd_949_1_cocoid_43196.png,20,0,20,20,0,,,,,,0,0,1,5,1,"[9, 21, 31, 45, 56, 68, 69]",1,1,2.1487264999959734,0.25501662500028033,None,None,None,,,,,,,,,,,1,0,1,0,0,20,20,20,644.9322721249991,,,,,,,,,,,,,,,,,,,,,,,,,,,,,,,,,,,,,,644.7839059170001,644.7840621249998,644.9287993749967,644.9322721249991,644.9322721249991,644.9322721249991,644.9322721249991,647.9279371669982,647.9279371669982,648.7946923330019,1,1,2.1487264999959734,0.25501662500028033,None,648.7949373750016,648.7949822079972,None,648.7950680419963,648.7951337080012,None,,,,,,,,,,,2,5,0,0,2025-01-28_12h41.31.410,rtmindeye,2024.2.3,None,2025-01-28 12h41.49.148470 -0500
blank.jpg,21,1,21,21,0,,,,,,0,0,1,5,1,"[9, 21, 31, 45, 56, 68, 69]",None,0,,,None,None,None,,,,,,,,,,,1,0,1,0,0,21,21,21,648.8390580420019,,,,,,,,,,,,,,,,,,,,,,,,,,,,,,,,,,,,,,648.7955969999966,648.7957551250001,648.8340485000008,648.8390580420019,648.8390580420019,648.8390580420019,648.8390580420019,651.8313838329996,651.8313838329996,652.7986555000025,None,0,,,None,652.7988150000019,652.7988633749992,None,652.7989129999987,652.7989593750026,None,,,,,,,,,,,2,5,0,0,2025-01-28_12h41.31.410,rtmindeye,2024.2.3,None,2025-01-28 12h41.49.148470 -0500
all_stimuli/special515/special_30632.jpg,22,0,22,22,0,,,,,,1,0,1,5,1,"[9, 21, 31, 45, 56, 68, 69]",2,1,0.9351946250026231,0.3430094589930377,None,None,None,,,,,,,,,,,1,0,1,0,0,22,22,22,652.8488107919984,,,,,,,,,,,,,,,,,,,,,,,,,,,,,,,,,,,,,,652.7993354,652.7995095829974,652.8447622500025,652.8488107919984,652.8488107919984,652.8488107919984,652.8488107919984,655.8445833,655.8445833,656.8113611,2,1,0.9351946250026231,0.3430094589930377,None,656.8115722500006,656.8116230419982,None,656.8116827,656.8117362080011,None,,,,,,,,,,,2,5,0,0,2025-01-28_12h41.31.410,rtmindeye,2024.2.3,None,2025-01-28 12h41.49.148470 -0500
all_stimuli/MST_pairs1/pair_20_nsd_41_2_cocoid_63715.png,23,0,23,23,0,,,,,,1,0,1,5,1,"[9, 21, 31, 45, 56, 68, 69]",2,1,1.0656762500002515,0.3269736250003916,None,None,None,,,,,,,,,,,1,0,1,0,0,23,23,23,656.8733685,,,,,,,,,,,,,,,,,,,,,,,,,,,,,,,,,,,,,,656.8122934580024,656.8124715829981,656.8697600000014,656.8733685,656.8733685,656.8733685,656.8733685,659.8647982920011,659.8647982920011,660.8283136250029,2,1,1.0656762500002515,0.3269736250003916,None,660.8285659999965,660.8286137499963,None,660.8286775000015,660.8287217079996,None,,,,,,,,,,,2,5,0,0,2025-01-28_12h41.31.410,rtmindeye,2024.2.3,None,2025-01-28 12h41.49.148470 -0500
all_stimuli/MST_pairs1/pair_22_nsd_115_2_cocoid_65194.png,24,0,24,24,0,,,,,,0,0,1,5,1,"[9, 21, 31, 45, 56, 68, 69]",1,1,1.3049522500004969,0.27595075000135694,None,None,None,,,,,,,,,,,1,0,1,0,0,24,24,24,661.0001336,,,,,,,,,,,,,,,,,,,,,,,,,,,,,,,,,,,,,,660.8292115419972,660.8293970829982,660.996497,661.0001336,661.0001336,661.0001336,661.0001336,663.9985404170002,663.9985404170002,664.8320319170016,1,1,1.3049522500004969,0.27595075000135694,None,664.8322200830007,664.8322660830017,None,664.8323240829995,664.8323636670029,None,,,,,,,,,,,2,5,0,0,2025-01-28_12h41.31.410,rtmindeye,2024.2.3,None,2025-01-28 12h41.49.148470 -0500
all_stimuli/shared1000_notspecial/notspecial_26292.png,25,0,25,25,0,,,,,,0,0,1,5,1,"[9, 21, 31, 45, 56, 68, 69]",1,1,1.562356374997762,0.2609945840013097,None,None,None,,,,,,,,,,,1,0,1,0,0,25,25,25,664.9296600829985,,,,,,,,,,,,,,,,,,,,,,,,,,,,,,,,,,,,,,664.8328020420013,664.8329875420022,664.9238176,664.9296600829985,664.9296600829985,664.9296600829985,664.9296600829985,667.9278392080014,667.9278392080014,668.8449246669988,1,1,1.562356374997762,0.2609945840013097,None,668.8452668329992,668.8453530420011,None,668.8454363,668.8454950419982,None,,,,,,,,,,,2,5,0,0,2025-01-28_12h41.31.410,rtmindeye,2024.2.3,None,2025-01-28 12h41.49.148470 -0500
all_stimuli/special515/special_6489.jpg,26,0,26,26,0,,,,,,1,0,1,5,1,"[9, 21, 31, 45, 56, 68, 69]",1,0,2.111050332998275,0.24105091700039338,None,None,None,,,,,,,,,,,1,0,1,0,0,26,26,26,668.8949563749993,,,,,,,,,,,,,,,,,,,,,,,,,,,,,,,,,,,,,,668.8460895829994,668.8463227920001,668.8914274,668.8949563749993,668.8949563749993,668.8949563749993,668.8949563749993,671.8812630829998,671.8812630829998,672.8481574580001,1,0,2.111050332998275,0.24105091700039338,None,672.8483507080018,672.8483940829974,None,672.8484511,672.8484998330023,None,,,,,,,,,,,2,5,0,0,2025-01-28_12h41.31.410,rtmindeye,2024.2.3,None,2025-01-28 12h41.49.148470 -0500
all_stimuli/special515/special_55678.jpg,27,0,27,27,0,,,,,,0,0,1,5,1,"[9, 21, 31, 45, 56, 68, 69]",1,1,1.469458499996108,0.2539286660030484,None,None,None,,,,,,,,,,,1,0,1,0,0,27,27,27,672.9206654579975,,,,,,,,,,,,,,,,,,,,,,,,,,,,,,,,,,,,,,672.8489689580019,672.8491755419964,672.9170607499982,672.9206654579975,672.9206654579975,672.9206654579975,672.9206654579975,675.9147426249983,675.9147426249983,676.8613201249973,1,1,1.469458499996108,0.2539286660030484,None,676.8615225,676.8615803749999,None,676.8616484169979,676.8616929580021,None,,,,,,,,,,,2,5,0,0,2025-01-28_12h41.31.410,rtmindeye,2024.2.3,None,2025-01-28 12h41.49.148470 -0500
all_stimuli/special515/special_40909.jpg,28,0,28,28,0,,,,,,0,0,1,5,1,"[9, 21, 31, 45, 56, 68, 69]",1,1,1.2934534169980907,0.20698533300310373,None,None,None,,,,,,,,,,,1,0,1,0,0,28,28,28,676.9466374999975,,,,,,,,,,,,,,,,,,,,,,,,,,,,,,,,,,,,,,676.8622229169996,676.8623949579996,676.9428226,676.9466374999975,676.9466374999975,676.9466374999975,676.9466374999975,679.9445382,679.9445382,680.8652875830012,1,1,1.2934534169980907,0.20698533300310373,None,680.8655052079994,680.8655466670025,None,680.8656014579974,680.8656374170023,None,,,,,,,,,,,2,5,0,0,2025-01-28_12h41.31.410,rtmindeye,2024.2.3,None,2025-01-28 12h41.49.148470 -0500
all_stimuli/special515/special_70360.jpg,29,0,29,29,0,,,,,,0,0,1,5,1,"[9, 21, 31, 45, 56, 68, 69]",1,1,1.4445370419998653,0.20399233300122432,None,None,None,,,,,,,,,,,1,0,1,0,0,29,29,29,680.9564992079977,,,,,,,,,,,,,,,,,,,,,,,,,,,,,,,,,,,,,,680.8660444170018,680.8662140419983,680.9515426,680.9564992079977,680.9564992079977,680.9564992079977,680.9564992079977,683.9487615830003,683.9487615830003,684.8781572,1,1,1.4445370419998653,0.20399233300122432,None,684.878325,684.8783688330004,None,684.8784585419999,684.8785047499987,None,,,,,,,,,,,2,5,0,0,2025-01-28_12h41.31.410,rtmindeye,2024.2.3,None,2025-01-28 12h41.49.148470 -0500
all_stimuli/MST_pairs1/pair_42_w_icerink1.jpg,30,0,30,30,0,,,,,,0,0,1,5,1,"[9, 21, 31, 45, 56, 68, 69]",2,0,1.410936334003054,0.25202183299552416,None,None,None,,,,,,,,,,,1,0,1,0,0,30,30,30,684.9580817919996,,,,,,,,,,,,,,,,,,,,,,,,,,,,,,,,,,,,,,684.8788964170017,684.8790700419995,684.9528525830028,684.9580817919996,684.9580817919996,684.9580817919996,684.9580817919996,687.9484643329997,687.9484643329997,688.8816949999964,2,0,1.410936334003054,0.25202183299552416,None,688.8819355000014,688.8819841669974,None,688.8820311,688.8820734580004,None,,,,,,,,,,,2,5,0,0,2025-01-28_12h41.31.410,rtmindeye,2024.2.3,None,2025-01-28 12h41.49.148470 -0500
blank.jpg,31,1,31,31,0,,,,,,0,0,1,5,1,"[9, 21, 31, 45, 56, 68, 69]",None,0,,,None,None,None,,,,,,,,,,,1,0,1,0,0,31,31,31,688.9280971249973,,,,,,,,,,,,,,,,,,,,,,,,,,,,,,,,,,,,,,688.8824811669983,688.8826758750001,688.9235792499967,688.9280971249973,688.9280971249973,688.9280971249973,688.9280971249973,691.9157098,691.9157098,692.8947566670031,None,0,,,None,692.8949650419963,692.8950305420003,None,692.8951093750002,692.8951991249996,None,,,,,,,,,,,2,5,0,0,2025-01-28_12h41.31.410,rtmindeye,2024.2.3,None,2025-01-28 12h41.49.148470 -0500
all_stimuli/special515/special_30430.jpg,32,0,32,32,0,,,,,,1,0,1,5,1,"[9, 21, 31, 45, 56, 68, 69]",1,0,1.9120630420002271,0.23594787500042003,None,None,None,,,,,,,,,,,1,0,1,0,0,32,32,32,692.9690272,,,,,,,,,,,,,,,,,,,,,,,,,,,,,,,,,,,,,,692.8956383330005,692.8958154579959,692.9651457079963,692.9690272,692.9690272,692.9690272,692.9690272,695.9648461670004,695.9648461670004,696.8981944999978,1,0,1.9120630420002271,0.23594787500042003,None,696.8983945,696.8984380830007,None,696.8984918749993,696.8985273750004,None,,,,,,,,,,,2,5,0,0,2025-01-28_12h41.31.410,rtmindeye,2024.2.3,None,2025-01-28 12h41.49.148470 -0500
all_stimuli/shared1000_notspecial/notspecial_43746.png,33,0,33,33,0,,,,,,0,0,1,5,1,"[9, 21, 31, 45, 56, 68, 69]",1,1,1.4992039159988053,0.24295387500023935,None,None,None,,,,,,,,,,,1,0,1,0,0,33,33,33,696.9978396669976,,,,,,,,,,,,,,,,,,,,,,,,,,,,,,,,,,,,,,696.8989372079959,696.8991108,696.9930636249992,696.9978396669976,696.9978396669976,696.9978396669976,696.9978396669976,699.9945255830025,699.9945255830025,700.9112473749992,1,1,1.4992039159988053,0.24295387500023935,None,700.9114367919974,700.9114964580003,None,700.9115735829982,700.9116166669992,None,,,,,,,,,,,2,5,0,0,2025-01-28_12h41.31.410,rtmindeye,2024.2.3,None,2025-01-28 12h41.49.148470 -0500
all_stimuli/MST_pairs1/pair_34_nsd_875_1_cocoid_67762.png,34,0,34,34,0,,,,,,0,0,1,5,1,"[9, 21, 31, 45, 56, 68, 69]",2,0,2.509495665995928,0.24797370900341775,None,None,None,,,,,,,,,,,1,0,1,0,0,34,34,34,701.0656874999986,,,,,,,,,,,,,,,,,,,,,,,,,,,,,,,,,,,,,,700.9121084579965,700.9123147919963,701.0578740830024,701.0656874999986,701.0656874999986,701.0656874999986,701.0656874999986,704.0787721669985,704.0787721669985,704.9152134169999,2,0,2.509495665995928,0.24797370900341775,None,704.9154173330026,704.9154685419999,None,704.9155181250026,704.9155548749986,None,,,,,,,,,,,2,5,0,0,2025-01-28_12h41.31.410,rtmindeye,2024.2.3,None,2025-01-28 12h41.49.148470 -0500
all_stimuli/MST_pairs1/pair_12_16_78.png,35,0,35,35,0,,,,,,1,0,1,5,1,"[9, 21, 31, 45, 56, 68, 69]",2,1,1.4512096670005121,0.22792958300124155,None,None,None,,,,,,,,,,,1,0,1,0,0,35,35,35,704.9629239580026,,,,,,,,,,,,,,,,,,,,,,,,,,,,,,,,,,,,,,704.9159968750027,704.9161796670014,704.9593563750022,704.9629239580026,704.9629239580026,704.9629239580026,704.9629239580026,707.9611811249997,707.9611811249997,708.9280997079986,2,1,1.4512096670005121,0.22792958300124155,None,708.9283324170028,708.928409,None,708.9284904169981,708.9285471249968,None,,,,,,,,,,,2,5,0,0,2025-01-28_12h41.31.410,rtmindeye,2024.2.3,None,2025-01-28 12h41.49.148470 -0500
all_stimuli/special515/special_4249.jpg,36,0,36,36,0,,,,,,1,0,1,5,1,"[9, 21, 31, 45, 56, 68, 69]",2,1,1.274600457996712,0.25599687499925494,None,None,None,,,,,,,,,,,1,0,1,0,0,36,36,36,708.9795295829972,,,,,,,,,,,,,,,,,,,,,,,,,,,,,,,,,,,,,,708.9292435000025,708.9294477919975,708.9760572500018,708.9795295829972,708.9795295829972,708.9795295829972,708.9795295829972,711.9777754579991,711.9777754579991,712.9325741249995,2,1,1.274600457996712,0.25599687499925494,None,712.9327609999964,712.9328002,None,712.9328579,712.9328993329982,None,,,,,,,,,,,2,5,0,0,2025-01-28_12h41.31.410,rtmindeye,2024.2.3,None,2025-01-28 12h41.49.148470 -0500
all_stimuli/MST_pairs1/pair_42_w_icerink2.jpg,37,0,37,37,0,,,,,,1,0,1,5,1,"[9, 21, 31, 45, 56, 68, 69]",2,1,0.9729233329999261,0.28605775000323774,None,None,None,,,,,,,,,,,1,0,1,0,0,37,37,37,712.9792058750027,,,,,,,,,,,,,,,,,,,,,,,,,,,,,,,,,,,,,,712.9332985829969,712.9334836249982,712.9738274999982,712.9792058750027,712.9792058750027,712.9792058750027,712.9792058750027,715.9665010419994,715.9665010419994,716.9462739169976,2,1,0.9729233329999261,0.28605775000323774,None,716.9465552,716.9466223330019,None,716.9467022079989,716.9467591669963,None,,,,,,,,,,,2,5,0,0,2025-01-28_12h41.31.410,rtmindeye,2024.2.3,None,2025-01-28 12h41.49.148470 -0500
all_stimuli/shared1000_notspecial/notspecial_70038.png,38,0,38,38,0,,,,,,0,0,1,5,1,"[9, 21, 31, 45, 56, 68, 69]",1,1,1.0187170000062906,0.31407245899754344,None,None,None,,,,,,,,,,,1,0,1,0,0,38,38,38,717.0262917919972,,,,,,,,,,,,,,,,,,,,,,,,,,,,,,,,,,,,,,716.9475135,716.9478295829977,717.0208545830028,717.0262917919972,717.0262917919972,717.0262917919972,717.0262917919972,720.0150558750029,720.0150558750029,720.9494494999963,1,1,1.0187170000062906,0.31407245899754344,None,720.9496178,720.9496528329983,None,720.9497035000022,720.9497340829985,None,,,,,,,,,,,2,5,0,0,2025-01-28_12h41.31.410,rtmindeye,2024.2.3,None,2025-01-28 12h41.49.148470 -0500
all_stimuli/special515/special_53155.jpg,39,0,39,39,0,,,,,,0,0,1,5,1,"[9, 21, 31, 45, 56, 68, 69]",1,1,1.057679083001858,0.2569726669971715,None,None,None,,,,,,,,,,,1,0,1,0,0,39,39,39,721.0204534579971,,,,,,,,,,,,,,,,,,,,,,,,,,,,,,,,,,,,,,720.9501024580022,720.9502357919991,721.0169163329992,721.0204534579971,721.0204534579971,721.0204534579971,721.0204534579971,724.0154378329971,724.0154378329971,724.9613562079976,1,1,1.057679083001858,0.2569726669971715,None,724.9615655829984,724.9616220829994,None,724.9616811669985,724.9617294999989,None,,,,,,,,,,,2,5,0,0,2025-01-28_12h41.31.410,rtmindeye,2024.2.3,None,2025-01-28 12h41.49.148470 -0500
all_stimuli/special515/special_24530.jpg,40,0,40,40,0,,,,,,1,0,1,5,1,"[9, 21, 31, 45, 56, 68, 69]",2,1,1.1185607920051552,0.2719787499954691,None,None,None,,,,,,,,,,,1,0,1,0,0,40,40,40,725.0366399580016,,,,,,,,,,,,,,,,,,,,,,,,,,,,,,,,,,,,,,724.9622081670022,724.9623663750026,725.0288229579965,725.0366399580016,725.0366399580016,725.0366399580016,725.0366399580016,728.0276472080004,728.0276472080004,728.9648614,2,1,1.1185607920051552,0.2719787499954691,None,728.9650548330028,728.9650978330028,None,728.9651531249983,728.9651998,None,,,,,,,,,,,2,5,0,0,2025-01-28_12h41.31.410,rtmindeye,2024.2.3,None,2025-01-28 12h41.49.148470 -0500
all_stimuli/special515/special_32232.jpg,41,0,41,41,0,,,,,,0,0,1,5,1,"[9, 21, 31, 45, 56, 68, 69]",1,1,1.4976319589986815,0.2710189999997965,None,None,None,,,,,,,,,,,1,0,1,0,0,41,41,41,729.0334199170029,,,,,,,,,,,,,,,,,,,,,,,,,,,,,,,,,,,,,,728.9656311250001,728.9658259999997,729.0282287919981,729.0334199170029,729.0334199170029,729.0334199170029,729.0334199170029,732.0327285,732.0327285,732.9782307920032,1,1,1.4976319589986815,0.2710189999997965,None,732.9784868330025,732.9785511250011,None,732.9786856669962,732.9787477499995,None,,,,,,,,,,,2,5,0,0,2025-01-28_12h41.31.410,rtmindeye,2024.2.3,None,2025-01-28 12h41.49.148470 -0500
all_stimuli/special515/special_41814.jpg,42,0,42,42,0,,,,,,0,0,1,5,1,"[9, 21, 31, 45, 56, 68, 69]",1,1,2.8674635419956758,None,None,None,None,,,,,,,,,,,1,0,1,0,0,42,42,42,733.0506539170019,,,,,,,,,,,,,,,,,,,,,,,,,,,,,,,,,,,,,,732.9793654579989,732.9795842500025,733.0463624999975,733.0506539170019,733.0506539170019,733.0506539170019,733.0506539170019,736.0481017920029,736.0481017920029,736.9814233329962,1,1,2.8674635419956758,None,None,736.9815879169983,736.9816342920021,None,736.9816887920024,736.9817533750029,None,,,,,,,,,,,2,5,0,0,2025-01-28_12h41.31.410,rtmindeye,2024.2.3,None,2025-01-28 12h41.49.148470 -0500
all_stimuli/shared1000_notspecial/notspecial_23883.png,43,0,43,43,0,,,,,,0,0,1,5,1,"[9, 21, 31, 45, 56, 68, 69]",1,1,2.192002000003413,0.22292483299679589,None,None,None,,,,,,,,,,,1,0,1,0,0,43,43,43,737.0772205829999,,,,,,,,,,,,,,,,,,,,,,,,,,,,,,,,,,,,,,736.9821835830007,736.9823515419994,737.0692923,737.0772205829999,737.0772205829999,737.0772205829999,737.0772205829999,740.0631833750012,740.0631833750012,740.9947920830018,1,1,2.192002000003413,0.22292483299679589,None,740.9950512919968,740.9950973,None,740.9951470000015,740.9951808749975,None,,,,,,,,,,,2,5,0,0,2025-01-28_12h41.31.410,rtmindeye,2024.2.3,None,2025-01-28 12h41.49.148470 -0500
all_stimuli/shared1000_notspecial/notspecial_4436.png,44,0,44,44,0,,,,,,0,0,1,5,1,"[9, 21, 31, 45, 56, 68, 69]",1,1,2.015537958002824,0.29501958399487194,None,None,None,,,,,,,,,,,1,0,1,0,0,44,44,44,741.0945427920014,,,,,,,,,,,,,,,,,,,,,,,,,,,,,,,,,,,,,,740.9956334169983,740.9958337919961,741.0897432080019,741.0945427920014,741.0945427920014,741.0945427920014,741.0945427920014,744.0817762079969,744.0817762079969,744.9982230000023,1,1,2.015537958002824,0.29501958399487194,None,744.9984103329989,744.9984559579971,None,744.9985418750002,744.9985951670023,None,,,,,,,,,,,2,5,0,0,2025-01-28_12h41.31.410,rtmindeye,2024.2.3,None,2025-01-28 12h41.49.148470 -0500
blank.jpg,45,1,45,45,0,,,,,,0,0,1,5,1,"[9, 21, 31, 45, 56, 68, 69]",None,0,,,None,None,None,,,,,,,,,,,1,0,1,0,0,45,45,45,745.0398825419979,,,,,,,,,,,,,,,,,,,,,,,,,,,,,,,,,,,,,,744.9990421249968,744.9992223329973,745.0356893749995,745.0398825419979,745.0398825419979,745.0398825419979,745.0398825419979,748.0322592500015,748.0322592500015,749.0119011,None,0,,,None,749.0121623329978,749.0122396669976,None,749.0123217500004,749.0123799,None,,,,,,,,,,,2,5,0,0,2025-01-28_12h41.31.410,rtmindeye,2024.2.3,None,2025-01-28 12h41.49.148470 -0500
all_stimuli/special515/special_61133.jpg,46,0,46,46,0,,,,,,1,0,1,5,1,"[9, 21, 31, 45, 56, 68, 69]",1,0,1.8945660419994965,0.2950385830044979,None,None,None,,,,,,,,,,,1,0,1,0,0,46,46,46,749.0655999579976,,,,,,,,,,,,,,,,,,,,,,,,,,,,,,,,,,,,,,749.0129892499972,749.0151647919993,749.0578684169959,749.0655999579976,749.0655999579976,749.0655999579976,749.0655999579976,752.0658334170002,752.0658334170002,753.0155060830002,1,0,1.8945660419994965,0.2950385830044979,None,753.0157164999982,753.0157665829975,None,753.0158282,753.0158692499972,None,,,,,,,,,,,2,5,0,0,2025-01-28_12h41.31.410,rtmindeye,2024.2.3,None,2025-01-28 12h41.49.148470 -0500
all_stimuli/MST_pairs1/pair_24_nsd_158_2_cocoid_3673.png,47,0,47,47,0,,,,,,0,0,1,5,1,"[9, 21, 31, 45, 56, 68, 69]",None,0,,,['2'],None,None,[2.9904920000044513],[0.24407083400001284],,,,,,,,,1,0,1,0,0,47,47,47,753.1856576249993,,,,,,,,,,,,,,,,,,,,,,,,,,,,,,,,,,,,,,753.0164021,753.0166587499989,753.1818937499993,753.1856576249993,753.1856576249993,753.1856576249993,753.1856576249993,756.1866725,756.1866725,757.0282422500022,None,0,,,['2'],757.0285497079967,757.0286125830025,None,757.0287516669996,757.0288290829994,None,[2.9904920000044513],[0.24407083400001284],,,,,,,,,2,5,0,0,2025-01-28_12h41.31.410,rtmindeye,2024.2.3,None,2025-01-28 12h41.49.148470 -0500
all_stimuli/MST_pairs1/pair_34_nsd_875_2_cocoid_72398.png,48,0,48,48,0,,,,,,0,0,1,5,1,"[9, 21, 31, 45, 56, 68, 69]",1,1,2.4433981249967474,0.22596916700422298,None,None,None,,,,,,,,,,,1,0,1,0,0,48,48,48,757.1987842500021,,,,,,,,,,,,,,,,,,,,,,,,,,,,,,,,,,,,,,757.0294265830016,757.0296403329994,757.1953829580016,757.1987842500021,757.1987842500021,757.1987842500021,757.1987842500021,760.1947386250031,760.1947386250031,761.0335786,1,1,2.4433981249967474,0.22596916700422298,None,761.0336722499997,761.0336995830003,None,761.0337326,761.0337563330031,None,,,,,,,,,,,2,5,0,0,2025-01-28_12h41.31.410,rtmindeye,2024.2.3,None,2025-01-28 12h41.49.148470 -0500
all_stimuli/shared1000_notspecial/notspecial_51965.png,49,0,49,49,0,,,,,,0,0,1,5,1,"[9, 21, 31, 45, 56, 68, 69]",1,1,2.183660709000833,0.24696570800006157,None,None,None,,,,,,,,,,,1,0,1,0,0,49,49,49,761.1165903329966,,,,,,,,,,,,,,,,,,,,,,,,,,,,,,,,,,,,,,761.0340235420008,761.0340995419974,761.1135548329985,761.1165903329966,761.1165903329966,761.1165903329966,761.1165903329966,764.1117342,764.1117342,765.045235,1,1,2.183660709000833,0.24696570800006157,None,765.0455445,765.0455983,None,765.0456609579996,765.0457039579996,None,,,,,,,,,,,2,5,0,0,2025-01-28_12h41.31.410,rtmindeye,2024.2.3,None,2025-01-28 12h41.49.148470 -0500
all_stimuli/MST_pairs1/pair_30_nsd_676_1_cocoid_48729.png,50,0,50,50,0,,,,,,0,0,1,5,1,"[9, 21, 31, 45, 56, 68, 69]",1,1,2.230235332994198,0.2629502920026425,None,None,None,,,,,,,,,,,1,0,1,0,0,50,50,50,765.2260243,,,,,,,,,,,,,,,,,,,,,,,,,,,,,,,,,,,,,,765.0463880419993,765.0466930420007,765.222622,765.2260243,765.2260243,765.2260243,765.2260243,768.2153052919966,768.2153052919966,769.0483772500011,1,1,2.230235332994198,0.2629502920026425,None,769.0485800829993,769.0486234170021,None,769.0486812,769.0487194579982,None,,,,,,,,,,,2,5,0,0,2025-01-28_12h41.31.410,rtmindeye,2024.2.3,None,2025-01-28 12h41.49.148470 -0500
all_stimuli/shared1000_notspecial/notspecial_52328.png,51,0,51,51,0,,,,,,0,0,1,5,1,"[9, 21, 31, 45, 56, 68, 69]",1,1,2.132611834000272,0.24994112500280607,None,None,None,,,,,,,,,,,1,0,1,0,0,51,51,51,769.1445266250012,,,,,,,,,,,,,,,,,,,,,,,,,,,,,,,,,,,,,,769.0491925829992,769.0493963749977,769.1392334170014,769.1445266250012,769.1445266250012,769.1445266250012,769.1445266250012,772.1322690419984,772.1322690419984,773.0624969,1,1,2.132611834000272,0.24994112500280607,None,773.0626315830013,773.0626665000018,None,773.0627073329961,773.0627371250011,None,,,,,,,,,,,2,5,0,0,2025-01-28_12h41.31.410,rtmindeye,2024.2.3,None,2025-01-28 12h41.49.148470 -0500
all_stimuli/MST_pairs1/pair_4_6_44.png,52,0,52,52,0,,,,,,0,0,1,5,1,"[9, 21, 31, 45, 56, 68, 69]",1,1,2.439847166002437,0.22900104200380156,None,None,None,,,,,,,,,,,1,0,1,0,0,52,52,52,773.1843679579979,,,,,,,,,,,,,,,,,,,,,,,,,,,,,,,,,,,,,,773.0630674999993,773.0631607920004,773.1804598329982,773.1843679579979,773.1843679579979,773.1843679579979,773.1843679579979,776.1820512,776.1820512,777.0653492499987,1,1,2.439847166002437,0.22900104200380156,None,777.0655130829982,777.0655482919974,None,777.0655924579987,777.0656259579991,None,,,,,,,,,,,2,5,0,0,2025-01-28_12h41.31.410,rtmindeye,2024.2.3,None,2025-01-28 12h41.49.148470 -0500
all_stimuli/MST_pairs1/pair_48_w_runway1.jpg,53,0,53,53,0,,,,,,0,0,1,5,1,"[9, 21, 31, 45, 56, 68, 69]",1,1,2.538416249997681,0.23800345799827483,None,None,None,,,,,,,,,,,1,0,1,0,0,53,53,53,777.1418038330012,,,,,,,,,,,,,,,,,,,,,,,,,,,,,,,,,,,,,,777.0660094580016,777.0661451,777.1378908749975,777.1418038330012,777.1418038330012,777.1418038330012,777.1418038330012,780.1326996249991,780.1326996249991,781.0782635829964,1,1,2.538416249997681,0.23800345799827483,None,781.078678,781.0787662079965,None,781.0788523329975,781.0789125,None,,,,,,,,,,,2,5,0,0,2025-01-28_12h41.31.410,rtmindeye,2024.2.3,None,2025-01-28 12h41.49.148470 -0500
all_stimuli/special515/special_40840.jpg,54,0,54,54,0,,,,,,1,0,1,5,1,"[9, 21, 31, 45, 56, 68, 69]",2,1,1.7314708339981735,0.26106199999776436,None,None,None,,,,,,,,,,,1,0,1,0,0,54,54,54,781.1316647080021,,,,,,,,,,,,,,,,,,,,,,,,,,,,,,,,,,,,,,781.0795326669977,781.0797745000018,781.1268371670012,781.1316647080021,781.1316647080021,781.1316647080021,781.1316647080021,784.1280653330032,784.1280653330032,785.0950191250013,2,1,1.7314708339981735,0.26106199999776436,None,785.0952457919993,785.0953317919993,None,785.0954163330025,785.095466,None,,,,,,,,,,,2,5,0,0,2025-01-28_12h41.31.410,rtmindeye,2024.2.3,None,2025-01-28 12h41.49.148470 -0500
all_stimuli/shared1000_notspecial/notspecial_12487.png,55,0,55,55,0,,,,,,0,0,1,5,1,"[9, 21, 31, 45, 56, 68, 69]",None,0,,,['1'],None,None,[3.1660667920004926],[0.20100654200359713],,,,,,,,,1,0,1,0,0,55,55,55,785.1790404999992,,,,,,,,,,,,,,,,,,,,,,,,,,,,,,,,,,,,,,785.0959280000025,785.0961079170011,785.1743146,785.1790404999992,785.1790404999992,785.1790404999992,785.1790404999992,788.1791026249994,788.1791026249994,789.0989641,None,0,,,['1'],789.0992218329993,789.0992716249966,None,789.0993231,789.0993594999964,None,[3.1660667920004926],[0.20100654200359713],,,,,,,,,2,5,0,0,2025-01-28_12h41.31.410,rtmindeye,2024.2.3,None,2025-01-28 12h41.49.148470 -0500
blank.jpg,56,1,56,56,0,,,,,,0,0,1,5,1,"[9, 21, 31, 45, 56, 68, 69]",None,0,,,None,None,None,,,,,,,,,,,1,0,1,0,0,56,56,56,789.1606212920015,,,,,,,,,,,,,,,,,,,,,,,,,,,,,,,,,,,,,,789.0998195419961,789.1000319,789.1564219579959,789.1606212920015,789.1606212920015,789.1606212920015,789.1606212920015,792.1489593750011,792.1489593750011,793.1117638329961,None,0,,,None,793.1121185829979,793.1122026669982,None,793.1122820419987,793.1123417080016,None,,,,,,,,,,,2,5,0,0,2025-01-28_12h41.31.410,rtmindeye,2024.2.3,None,2025-01-28 12h41.49.148470 -0500
all_stimuli/MST_pairs1/pair_16_20_0.png,57,0,57,57,0,,,,,,1,0,1,5,1,"[9, 21, 31, 45, 56, 68, 69]",2,1,0.8729463329946157,0.28701133400318213,None,None,None,,,,,,,,,,,1,0,1,0,0,57,57,57,793.1712754999971,,,,,,,,,,,,,,,,,,,,,,,,,,,,,,,,,,,,,,793.1129082499974,793.1131802079981,793.1680851670026,793.1712754999971,793.1712754999971,793.1712754999971,793.1712754999971,796.1657901250001,796.1657901250001,797.1161933749972,2,1,0.8729463329946157,0.28701133400318213,None,797.1163060830004,797.1163411250018,None,797.1163837080021,797.1164143330025,None,,,,,,,,,,,2,5,0,0,2025-01-28_12h41.31.410,rtmindeye,2024.2.3,None,2025-01-28 12h41.49.148470 -0500
all_stimuli/shared1000_notspecial/notspecial_12685.png,58,0,58,58,0,,,,,,0,0,1,5,1,"[9, 21, 31, 45, 56, 68, 69]",1,1,0.8974242500044056,0.26994962499884423,None,None,None,,,,,,,,,,,1,0,1,0,0,58,58,58,797.2258686249988,,,,,,,,,,,,,,,,,,,,,,,,,,,,,,,,,,,,,,797.1168140419977,797.1169154169984,797.2222388750015,797.2258686249988,797.2258686249988,797.2258686249988,797.2258686249988,800.2150994580006,800.2150994580006,801.1284060420003,1,1,0.8974242500044056,0.26994962499884423,None,801.1287727,801.1288631,None,801.1289443749993,801.129001,None,,,,,,,,,,,2,5,0,0,2025-01-28_12h41.31.410,rtmindeye,2024.2.3,None,2025-01-28 12h41.49.148470 -0500
all_stimuli/MST_pairs1/pair_36_nsd_949_2_cocoid_60031.png,59,0,59,59,0,,,,,,0,0,1,5,1,"[9, 21, 31, 45, 56, 68, 69]",1,1,1.5514775000046939,0.21102345799590694,None,None,None,,,,,,,,,,,1,0,1,0,0,59,59,59,801.2617972,,,,,,,,,,,,,,,,,,,,,,,,,,,,,,,,,,,,,,801.1295764579991,801.1298155420009,801.2583684580022,801.2617972,801.2617972,801.2617972,801.2617972,804.2485626670023,804.2485626670023,805.1327897500014,1,1,1.5514775000046939,0.21102345799590694,None,805.1329702500007,805.1330117079997,None,805.1330610419973,805.1330969170012,None,,,,,,,,,,,2,5,0,0,2025-01-28_12h41.31.410,rtmindeye,2024.2.3,None,2025-01-28 12h41.49.148470 -0500
all_stimuli/shared1000_notspecial/notspecial_34068.png,60,0,60,60,0,,,,,,0,0,1,5,1,"[9, 21, 31, 45, 56, 68, 69]",1,1,1.3839368330009165,0.26006149999739137,None,None,None,,,,,,,,,,,1,0,1,0,0,60,60,60,805.2112865829986,,,,,,,,,,,,,,,,,,,,,,,,,,,,,,,,,,,,,,805.1335214580031,805.1337486249977,805.2075191249969,805.2112865829986,805.2112865829986,805.2112865829986,805.2112865829986,808.1981869579977,808.1981869579977,809.1449013750025,1,1,1.3839368330009165,0.26006149999739137,None,809.1451191669985,809.1451744169972,None,809.1452463329988,809.1453467,None,,,,,,,,,,,2,5,0,0,2025-01-28_12h41.31.410,rtmindeye,2024.2.3,None,2025-01-28 12h41.49.148470 -0500
all_stimuli/special515/special_11159.jpg,61,0,61,61,0,,,,,,0,0,1,5,1,"[9, 21, 31, 45, 56, 68, 69]",1,1,1.7499802919992362,0.23097587500524241,None,None,None,,,,,,,,,,,1,0,1,0,0,61,61,61,809.2332418,,,,,,,,,,,,,,,,,,,,,,,,,,,,,,,,,,,,,,809.1458599,809.1460280419997,809.2284914170014,809.2332418,809.2332418,809.2332418,809.2332418,812.2318518749962,812.2318518749962,813.1499639999965,1,1,1.7499802919992362,0.23097587500524241,None,813.1501103330011,813.1501612919965,None,813.1502095420001,813.1502423330021,None,,,,,,,,,,,2,5,0,0,2025-01-28_12h41.31.410,rtmindeye,2024.2.3,None,2025-01-28 12h41.49.148470 -0500
all_stimuli/MST_pairs1/pair_34_nsd_875_2_cocoid_72398.png,62,0,62,62,0,,,,,,1,0,1,5,1,"[9, 21, 31, 45, 56, 68, 69]",2,1,1.3831016659969464,0.3019189170008758,None,None,None,,,,,,,,,,,1,0,1,0,0,62,62,62,813.2102202919996,,,,,,,,,,,,,,,,,,,,,,,,,,,,,,,,,,,,,,813.1506156670002,813.1507626250022,813.2067545000027,813.2102202919996,813.2102202919996,813.2102202919996,813.2102202919996,816.1987767079991,816.1987767079991,817.1616599,2,1,1.3831016659969464,0.3019189170008758,None,817.1619724999982,817.1620607500008,None,817.1622062500028,817.1622784580031,None,,,,,,,,,,,2,5,0,0,2025-01-28_12h41.31.410,rtmindeye,2024.2.3,None,2025-01-28 12h41.49.148470 -0500
all_stimuli/special515/special_67742.jpg,63,0,63,63,0,,,,,,0,0,1,5,1,"[9, 21, 31, 45, 56, 68, 69]",1,1,1.603467000000819,0.27100475000042934,None,None,None,,,,,,,,,,,1,0,1,0,0,63,63,63,817.2567043329982,,,,,,,,,,,,,,,,,,,,,,,,,,,,,,,,,,,,,,817.1629062919965,817.1631284999967,817.2519523329975,817.2567043329982,817.2567043329982,817.2567043329982,817.2567043329982,820.2482469,820.2482469,821.1658719999978,1,1,1.603467000000819,0.27100475000042934,None,821.1660566249993,821.1661032,None,821.1661553750018,821.1661989170025,None,,,,,,,,,,,2,5,0,0,2025-01-28_12h41.31.410,rtmindeye,2024.2.3,None,2025-01-28 12h41.49.148470 -0500
all_stimuli/MST_pairs1/pair_48_w_runway2.jpg,64,0,64,64,0,,,,,,0,0,1,5,1,"[9, 21, 31, 45, 56, 68, 69]",1,1,1.8373655830000644,0.2689950000058161,None,None,None,,,,,,,,,,,1,0,1,0,0,64,64,64,821.2618844169992,,,,,,,,,,,,,,,,,,,,,,,,,,,,,,,,,,,,,,821.1666229999973,821.1668139999965,821.2583893330011,821.2618844169992,821.2618844169992,821.2618844169992,821.2618844169992,824.2488168330019,824.2488168330019,825.1781165829962,1,1,1.8373655830000644,0.2689950000058161,None,825.1785384169998,825.1787094579995,None,825.1788294579965,825.1789112499973,None,,,,,,,,,,,2,5,0,0,2025-01-28_12h41.31.410,rtmindeye,2024.2.3,None,2025-01-28 12h41.49.148470 -0500
all_stimuli/MST_pairs1/pair_40_w_escalator1.jpg,65,0,65,65,0,,,,,,0,0,1,5,1,"[9, 21, 31, 45, 56, 68, 69]",1,1,1.3739473750028992,0.285033709,None,None,None,,,,,,,,,,,1,0,1,0,0,65,65,65,825.2622597500012,,,,,,,,,,,,,,,,,,,,,,,,,,,,,,,,,,,,,,825.1797365419989,825.1800322920026,825.258631,825.2622597500012,825.2622597500012,825.2622597500012,825.2622597500012,828.2495088750002,828.2495088750002,829.1835314170021,1,1,1.3739473750028992,0.285033709,None,829.1837086250016,829.1837483330019,None,829.1838040419971,829.1838441250002,None,,,,,,,,,,,2,5,0,0,2025-01-28_12h41.31.410,rtmindeye,2024.2.3,None,2025-01-28 12h41.49.148470 -0500
all_stimuli/special515/special_62228.jpg,66,0,66,66,0,,,,,,1,0,1,5,1,"[9, 21, 31, 45, 56, 68, 69]",2,1,1.4352847909976845,0.3340055420048884,None,None,None,,,,,,,,,,,1,0,1,0,0,66,66,66,829.2249905830031,,,,,,,,,,,,,,,,,,,,,,,,,,,,,,,,,,,,,,829.1842497499965,829.1844009170018,829.2214606249981,829.2249905830031,829.2249905830031,829.2249905830031,829.2249905830031,832.2149197499966,832.2149197499966,833.1951082079977,2,1,1.4352847909976845,0.3340055420048884,None,833.1955087079987,833.1955854,None,833.1956738329973,833.1957359169974,None,,,,,,,,,,,2,5,0,0,2025-01-28_12h41.31.410,rtmindeye,2024.2.3,None,2025-01-28 12h41.49.148470 -0500
all_stimuli/MST_pairs1/pair_26_nsd_483_2_cocoid_8054.png,67,0,67,67,0,,,,,,0,0,1,5,1,"[9, 21, 31, 45, 56, 68, 69]",1,1,1.5521604160021525,0.2780680419964483,None,None,None,,,,,,,,,,,1,0,1,0,0,67,67,67,833.3421202,,,,,,,,,,,,,,,,,,,,,,,,,,,,,,,,,,,,,,833.1964020829982,833.1966924169974,833.3387595,833.3421202,833.3421202,833.3421202,833.3421202,836.3304714999977,836.3304714999977,837.2129501669988,1,1,1.5521604160021525,0.2780680419964483,None,837.2131850829974,837.2132368750026,None,837.2132988750018,837.2133404170017,None,,,,,,,,,,,2,5,0,0,2025-01-28_12h41.31.410,rtmindeye,2024.2.3,None,2025-01-28 12h41.49.148470 -0500
blank.jpg,68,1,68,68,0,,,,,,0,0,1,5,1,"[9, 21, 31, 45, 56, 68, 69]",None,0,,,None,None,None,,,,,,,,,,,1,0,1,0,0,68,68,68,837.2645690830032,,,,,,,,,,,,,,,,,,,,,,,,,,,,,,,,,,,,,,837.2139185420019,837.2141889999984,837.2588419579988,837.2645690830032,837.2645690830032,837.2645690830032,837.2645690830032,840.2613116249995,840.2613116249995,841.2154796670002,None,0,,,None,841.2156557499984,841.2157038,None,841.2157563750006,841.2157916669967,None,,,,,,,,,,,2,5,0,0,2025-01-28_12h41.31.410,rtmindeye,2024.2.3,None,2025-01-28 12h41.49.148470 -0500
blank.jpg,69,1,69,69,0,,,,,,0,1,1,5,0,"[9, 21, 31, 45, 56, 68, 69]",None,0,,,None,1,equal,,,10.509274207994167,None,18.689889125002082,None,,,,,1,0,1,0,0,69,69,69,841.2478419170002,,,,,,,,,,,,,,,,,,,,,,,,,,,,,,,,,,,,,,841.2162220419996,841.2163838749984,841.2428902079992,841.2478419170002,841.2478419170002,841.2478419170002,841.2478419170002,844.2448417920023,844.2448417920023,845.2283791669979,None,0,,,None,845.2432196250011,855.7634056669995,1,855.7636586,874.4675142920023,equal,,,845.2461804999984,845.2461804999984,10.509274207994167,None,855.7725052919996,855.7725052919996,18.689889125002082,None,2,5,0,0,2025-01-28_12h41.31.410,rtmindeye,2024.2.3,None,2025-01-28 12h41.49.148470 -0500
,,,1,0,1,,,,,,,,,,,,,,,,,,,,,,,,,,,,,1,0,1,0,,,,,,,,,,,,,,,,,,,,,,,,,,,,,,,,,,,,,,,,,,,,,,,,,,,,,,,,,,,,,,,,,,,,,,,,,,2,5,0,0,2025-01-28_12h41.31.410,rtmindeye,2024.2.3,None,2025-01-28 12h41.49.148470 -0500
all_stimuli/shared1000_notspecial/notspecial_19672.png,0,0,0,0,0,,,,,,0,0,2,5,1,"[9, 21, 31, 45, 56, 68, 69]",1,1,1.855171999995946,0.24003641700255685,None,None,None,,,,,,,,,,,2,0,2,0,0,0,0,0,874.6782002499967,,,,,,,,,,,,,,,,,,,,,,,,,,,,,,,,,,,,,,874.5763054,874.5767962,874.6708064170016,874.6782002499967,874.6782002499967,874.6782002499967,874.6782002499967,877.6653866670022,877.6653866670022,878.5797475829968,1,1,1.855171999995946,0.24003641700255685,None,878.5799077,878.5799491,None,878.5799984170008,878.5800353329978,None,,,,,,,,,,,2,5,0,0,2025-01-28_12h41.31.410,rtmindeye,2024.2.3,None,2025-01-28 12h41.49.148470 -0500
