current_image,trial_index,is_blank_trial,thisN,thisTrialN,thisRepN,press_if_repeat_2.keys,press_if_repeat_2.corr,all_keys_pressed_2.keys,is_repeat,is_new_run,run_num,sess_num,is_not_last_trial,all_blanks_list,press_if_repeat.keys,press_if_repeat.corr,press_if_repeat.rt,press_if_repeat.duration,all_keys_pressed.keys,key_resp_5.keys,key_resp_4.keys,key_resp_5.rt,key_resp_5.duration,key_resp_4.rt,key_resp_4.duration,all_keys_pressed.rt,all_keys_pressed.duration,practice.thisRepN,practice.thisTrialN,practice.thisN,practice.thisIndex,loop_runs.thisRepN,loop_runs.thisTrialN,loop_runs.thisN,loop_runs.thisIndex,loop_all_images.thisRepN,loop_all_images.thisTrialN,loop_all_images.thisN,loop_all_images.thisIndex,thisRow.t,notes,set_up.started,set_up.stopped,practice_continue.started,practice_continue.stopped,key_resp_6.keys,practice_trial.started,practice_trial.stopped,practice.press_if_repeat_2.keys,practice.press_if_repeat_2.corr,practice.all_keys_pressed_2.keys,testing_continue.started,testing_continue.stopped,key_resp_7.keys,waiting_fmri.started,key_resp_2.started,text_3.started,waiting_fmri.stopped,key_resp_2.keys,key_resp_2.rt,key_resp_2.duration,set_skips_and_correct_key.started,set_skips_and_correct_key.stopped,trial.started,image.started,press_if_repeat.started,polygon.started,all_keys_pressed.started,image.stopped,press_if_repeat.stopped,polygon.stopped,all_keys_pressed.stopped,trial.stopped,loop_all_images.press_if_repeat.keys,loop_all_images.press_if_repeat.corr,loop_all_images.press_if_repeat.rt,loop_all_images.press_if_repeat.duration,loop_all_images.all_keys_pressed.keys,run_wait2_2.started,run_wait2_2.stopped,loop_all_images.key_resp_5.keys,waiting_fmri_2.started,waiting_fmri_2.stopped,loop_all_images.key_resp_4.keys,key_resp_5.started,text_5.started,loop_all_images.key_resp_5.rt,loop_all_images.key_resp_5.duration,key_resp_4.started,text_4.started,loop_all_images.key_resp_4.rt,loop_all_images.key_resp_4.duration,loop_all_images.all_keys_pressed.rt,loop_all_images.all_keys_pressed.duration,participant,session (1 2 or 3),starting_run,skip_practice,date,expName,psychopyVersion,frameRate,expStart,
,,,,,,,,,,,,,,,,,,,,,,,,,,,,,,,,,,,,,,,,,,0.0016557001508772373,0.0017182000447064638,,,,,,,,,,,,,,,,,,,,,,,,,,,,,,,,,,,,,,,,,,,,,,,,,,,,6,3,0,1,2025-03-10_11h37.26.052,rtmindeye,2024.2.4,59.945066369512546,2025-03-10 11h38.02.713554 -0400,
,,,,,,,,,,,,,,,,,,,,,,,,,,,,,,,,,,,,,,,,,,,,0.006223200121894479,0.006251600105315447,None,,,,,,,,,,,,,,,,,,,,,,,,,,,,,,,,,,,,,,,,,,,,,,,,,6,3,0,1,2025-03-10_11h37.26.052,rtmindeye,2024.2.4,59.945066369512546,2025-03-10 11h38.02.713554 -0400,
practice_images/w_kitchen2.jpg,0,0,0,0,0,None,0,None,,,,,,,,,,,,,,,,,,,,0,0,0,0,,,,,,,,,0.1835879001300782,,,,,,,0.02610450005158782,0.02614790014922619,None,0,None,,,,,,,,,,,,,,,,,,,,,,,,,,,,,,,,,,,,,,,,,,,,6,3,0,1,2025-03-10_11h37.26.052,rtmindeye,2024.2.4,59.945066369512546,2025-03-10 11h38.02.713554 -0400,
practice_images/w_boardwalk2.jpg,1,0,1,1,0,None,0,None,,,,,,,,,,,,,,,,,,,,0,1,1,1,,,,,,,,,0.1835879001300782,,,,,,,0.045027000131085515,0.04506160016171634,None,0,None,,,,,,,,,,,,,,,,,,,,,,,,,,,,,,,,,,,,,,,,,,,,6,3,0,1,2025-03-10_11h37.26.052,rtmindeye,2024.2.4,59.945066369512546,2025-03-10 11h38.02.713554 -0400,
practice_images/w_monument2.jpg,2,0,2,2,0,None,0,None,,,,,,,,,,,,,,,,,,,,0,2,2,2,,,,,,,,,0.1835879001300782,,,,,,,0.05214949999935925,0.05218400014564395,None,0,None,,,,,,,,,,,,,,,,,,,,,,,,,,,,,,,,,,,,,,,,,,,,6,3,0,1,2025-03-10_11h37.26.052,rtmindeye,2024.2.4,59.945066369512546,2025-03-10 11h38.02.713554 -0400,
practice_images/w_auditorium2.jpg,3,0,3,3,0,None,0,None,,,,,,,,,,,,,,,,,,,,0,3,3,3,,,,,,,,,0.1835879001300782,,,,,,,0.06110890000127256,0.06114180013537407,None,0,None,,,,,,,,,,,,,,,,,,,,,,,,,,,,,,,,,,,,,,,,,,,,6,3,0,1,2025-03-10_11h37.26.052,rtmindeye,2024.2.4,59.945066369512546,2025-03-10 11h38.02.713554 -0400,
practice_images/w_kitchen2.jpg,4,0,4,4,0,None,0,None,,,,,,,,,,,,,,,,,,,,0,4,4,4,,,,,,,,,0.1835879001300782,,,,,,,0.06543550011701882,0.0654670000076294,None,0,None,,,,,,,,,,,,,,,,,,,,,,,,,,,,,,,,,,,,,,,,,,,,6,3,0,1,2025-03-10_11h37.26.052,rtmindeye,2024.2.4,59.945066369512546,2025-03-10 11h38.02.713554 -0400,
practice_images/w_auditorium1.jpg,5,0,5,5,0,None,0,None,,,,,,,,,,,,,,,,,,,,0,5,5,5,,,,,,,,,0.1835879001300782,,,,,,,0.07337420014664531,0.07341259997338057,None,0,None,,,,,,,,,,,,,,,,,,,,,,,,,,,,,,,,,,,,,,,,,,,,6,3,0,1,2025-03-10_11h37.26.052,rtmindeye,2024.2.4,59.945066369512546,2025-03-10 11h38.02.713554 -0400,
practice_images/w_bedroom2.jpg,6,0,6,6,0,None,0,None,,,,,,,,,,,,,,,,,,,,0,6,6,6,,,,,,,,,0.1835879001300782,,,,,,,0.08287070016376674,0.08290190016850829,None,0,None,,,,,,,,,,,,,,,,,,,,,,,,,,,,,,,,,,,,,,,,,,,,6,3,0,1,2025-03-10_11h37.26.052,rtmindeye,2024.2.4,59.945066369512546,2025-03-10 11h38.02.713554 -0400,
practice_images/w_kitchen1.jpg,7,0,7,7,0,None,0,None,,,,,,,,,,,,,,,,,,,,0,7,7,7,,,,,,,,,0.1835879001300782,,,,,,,0.14422910008579493,0.14426750014536083,None,0,None,,,,,,,,,,,,,,,,,,,,,,,,,,,,,,,,,,,,,,,,,,,,6,3,0,1,2025-03-10_11h37.26.052,rtmindeye,2024.2.4,59.945066369512546,2025-03-10 11h38.02.713554 -0400,
practice_images/w_bedroom1.jpg,8,0,8,8,0,None,0,None,,,,,,,,,,,,,,,,,,,,0,8,8,8,,,,,,,,,0.1835879001300782,,,,,,,0.17048580013215542,0.17053140001371503,None,0,None,,,,,,,,,,,,,,,,,,,,,,,,,,,,,,,,,,,,,,,,,,,,6,3,0,1,2025-03-10_11h37.26.052,rtmindeye,2024.2.4,59.945066369512546,2025-03-10 11h38.02.713554 -0400,
practice_images/w_monument2.jpg,9,0,9,9,0,None,0,None,,,,,,,,,,,,,,,,,,,,0,9,9,9,,,,,,,,,0.1835879001300782,,,,,,,0.1751097000669688,0.17515610018745065,None,0,None,,,,,,,,,,,,,,,,,,,,,,,,,,,,,,,,,,,,,,,,,,,,6,3,0,1,2025-03-10_11h37.26.052,rtmindeye,2024.2.4,59.945066369512546,2025-03-10 11h38.02.713554 -0400,
,,,,,,,,,,,,,,,,,,,,,,,,,,,,,,,,,,,,,,,,,,,,,,,,,,,,0.18114830018021166,0.18117440002970397,None,,,,,,,,,,,,,,,,,,,,,,,,,,,,,,,,,,,,,,,,,6,3,0,1,2025-03-10_11h37.26.052,rtmindeye,2024.2.4,59.945066369512546,2025-03-10 11h38.02.713554 -0400,
,,,,,,,,,,,,,,,,,,,,,,,,,,,,,,,,,,,,,,,,,,,,,,,,,,,,,,,0.18119790009222925,0.1835879001300782,0.1835879001300782,95.56752210017294,equal,95.35772179998457,None,,,,,,,,,,,,,,,,,,,,,,,,,,,,,,,,,,6,3,0,1,2025-03-10_11h37.26.052,rtmindeye,2024.2.4,59.945066369512546,2025-03-10 11h38.02.713554 -0400,
all_stimuli/special515/special_13613.jpg,0,0,0,0,0,,,,0,0,0,3,1,"[9, 21, 31, 45, 56, 68, 69]",1,1,0.7998289000242949,0.21705640014261007,None,None,None,,,,,,,,,,,0,0,0,0,0,0,0,0,95.60455070016906,,,,,,,,,,,,,,,,,,,,,,95.59148259996437,95.59153109998442,95.60087159997784,95.60455070016906,95.60455070016906,95.60455070016906,95.60455070016906,98.60701559996232,98.60701559996232,99.607513200026,99.607513200026,99.59093130007386,1,1,0.7998289000242949,0.21705640014261007,None,99.59099719999358,99.59102090005763,None,99.59104389999993,99.59106140001677,None,,,,,,,,,,,6,3,0,1,2025-03-10_11h37.26.052,rtmindeye,2024.2.4,59.945066369512546,2025-03-10 11h38.02.713554 -0400,
all_stimuli/shared1000_notspecial/notspecial_31049.png,1,0,1,1,0,,,,0,0,0,3,1,"[9, 21, 31, 45, 56, 68, 69]",1,1,0.7239806998986751,0.18587330006994307,None,None,None,,,,,,,,,,,0,0,0,0,0,1,1,1,99.607513200026,,,,,,,,,,,,,,,,,,,,,,99.59121310012415,99.59125580010004,99.60100869997405,99.607513200026,99.607513200026,99.607513200026,99.607513200026,102.60705290012993,102.60705290012993,103.60777040012181,103.60777040012181,103.59069400001317,1,1,0.7239806998986751,0.18587330006994307,None,103.59075820003636,103.59077850007452,None,103.59080220013857,103.59081890014932,None,,,,,,,,,,,6,3,0,1,2025-03-10_11h37.26.052,rtmindeye,2024.2.4,59.945066369512546,2025-03-10 11h38.02.713554 -0400,
all_stimuli/special515/special_28096.jpg,2,0,2,2,0,,,,0,0,0,3,1,"[9, 21, 31, 45, 56, 68, 69]",1,1,0.49076300021260977,0.17395949992351234,None,None,None,,,,,,,,,,,0,0,0,0,0,2,2,2,103.60777040012181,,,,,,,,,,,,,,,,,,,,,,103.59096439997666,103.59100310015492,103.59951060009189,103.60777040012181,103.60777040012181,103.60777040012181,103.60777040012181,106.60754380002618,106.60754380002618,107.60708660003729,107.60708660003729,107.59084680001251,1,1,0.49076300021260977,0.17395949992351234,None,107.59091230016202,107.59093299997039,None,107.5909563000314,107.59097330016084,None,,,,,,,,,,,6,3,0,1,2025-03-10_11h37.26.052,rtmindeye,2024.2.4,59.945066369512546,2025-03-10 11h38.02.713554 -0400,
all_stimuli/shared1000_notspecial/notspecial_68471.png,3,0,3,3,0,,,,0,0,0,3,1,"[9, 21, 31, 45, 56, 68, 69]",1,1,0.4372109000105411,0.20215689996257424,None,None,None,,,,,,,,,,,0,0,0,0,0,3,3,3,107.60708660003729,,,,,,,,,,,,,,,,,,,,,,107.59111730009317,107.59115600003861,107.60437940014526,107.60708660003729,107.60708660003729,107.60708660003729,107.60708660003729,110.60759750008583,110.60759750008583,111.6190307000652,111.6190307000652,111.59090890013613,1,1,0.4372109000105411,0.20215689996257424,None,111.59097220003605,111.59099250007421,None,111.59101580013521,111.59103310015053,None,,,,,,,,,,,6,3,0,1,2025-03-10_11h37.26.052,rtmindeye,2024.2.4,59.945066369512546,2025-03-10 11h38.02.713554 -0400,
all_stimuli/special515/special_15506.jpg,4,0,4,4,0,,,,0,0,0,3,1,"[9, 21, 31, 45, 56, 68, 69]",1,1,0.6432849999982864,0.18399669998325408,None,None,None,,,,,,,,,,,0,0,0,0,0,4,4,4,111.6190307000652,,,,,,,,,,,,,,,,,,,,,,111.59117810009047,111.59121660003439,111.61726700002328,111.6190307000652,111.6190307000652,111.6190307000652,111.6190307000652,114.62421580008231,114.62421580008231,,,115.60747570008971,1,1,0.6432849999982864,0.18399669998325408,None,115.60754500003532,115.60756699997,None,115.60759080015123,115.60760840005241,None,,,,,,,,,,,6,3,0,1,2025-03-10_11h37.26.052,rtmindeye,2024.2.4,59.945066369512546,2025-03-10 11h38.02.713554 -0400,
all_stimuli/MST_pairs1/pair_24_nsd_158_1_cocoid_2285.png,5,0,5,5,0,,,,0,0,0,3,1,"[9, 21, 31, 45, 56, 68, 69]",1,1,0.6838719001971185,0.1677879998460412,None,None,None,,,,,,,,,,,0,0,0,0,0,5,5,5,115.62966470001265,,,,,,,,,,,,,,,,,,,,,,115.60776700009592,115.60781210009009,115.6277358001098,115.62966470001265,115.62966470001265,115.62966470001265,115.62966470001265,118.64070930005983,118.64070930005983,,,119.6238518001046,1,1,0.6838719001971185,0.1677879998460412,None,119.62392140016891,119.6239430999849,None,119.62396730016917,119.62398490007035,None,,,,,,,,,,,6,3,0,1,2025-03-10_11h37.26.052,rtmindeye,2024.2.4,59.945066369512546,2025-03-10 11h38.02.713554 -0400,
all_stimuli/MST_pairs1/pair_10_14_89.png,6,0,6,6,0,,,,0,0,0,3,1,"[9, 21, 31, 45, 56, 68, 69]",1,1,0.6141017000190914,0.22880359995178878,None,None,None,,,,,,,,,,,0,0,0,0,0,6,6,6,119.64044920005836,,,,,,,,,,,,,,,,,,,,,,119.62413340015337,119.62417790014297,119.63661180017516,119.64044920005836,119.64044920005836,119.64044920005836,119.64044920005836,122.6406980000902,122.6406980000902,123.64134600013494,123.64134600013494,123.62417350010946,1,1,0.6141017000190914,0.22880359995178878,None,123.62423840002157,123.62425920017995,None,123.62428390001878,123.62430110014975,None,,,,,,,,,,,6,3,0,1,2025-03-10_11h37.26.052,rtmindeye,2024.2.4,59.945066369512546,2025-03-10 11h38.02.713554 -0400,
all_stimuli/special515/special_62015.jpg,7,0,7,7,0,,,,0,0,0,3,1,"[9, 21, 31, 45, 56, 68, 69]",1,1,0.6498555999714881,0.20409260015003383,None,None,None,,,,,,,,,,,0,0,0,0,0,7,7,7,123.64134600013494,,,,,,,,,,,,,,,,,,,,,,123.62444799998775,123.62449690001085,123.63326040003449,123.64134600013494,123.64134600013494,123.64134600013494,123.64134600013494,126.64019190007821,126.64019190007821,127.64046690007672,127.64046690007672,127.62418050016277,1,1,0.6498555999714881,0.20409260015003383,None,127.62424609996378,127.62426710012369,None,127.624291599961,127.62430869997479,None,,,,,,,,,,,6,3,0,1,2025-03-10_11h37.26.052,rtmindeye,2024.2.4,59.945066369512546,2025-03-10 11h38.02.713554 -0400,
all_stimuli/special515/special_47687.jpg,8,0,8,8,0,,,,0,0,0,3,1,"[9, 21, 31, 45, 56, 68, 69]",1,1,0.7018229998648167,0.16217100014910102,None,None,None,,,,,,,,,,,0,0,0,0,0,8,8,8,127.64046690007672,,,,,,,,,,,,,,,,,,,,,,127.62445500004105,127.62449309998192,127.63341000000946,127.64046690007672,127.64046690007672,127.64046690007672,127.64046690007672,130.6407321000006,130.6407321000006,131.64083210006356,131.64083210006356,131.62418500008062,1,1,0.7018229998648167,0.16217100014910102,None,131.62424960010685,131.62427060003392,None,131.62429510010406,131.6243123000022,None,,,,,,,,,,,6,3,0,1,2025-03-10_11h37.26.052,rtmindeye,2024.2.4,59.945066369512546,2025-03-10 11h38.02.713554 -0400,
blank.jpg,9,1,9,9,0,,,,0,0,0,3,1,"[9, 21, 31, 45, 56, 68, 69]",1,1,1.0726113999262452,0.23701820010319352,None,None,None,,,,,,,,,,,0,0,0,0,0,9,9,9,131.64083210006356,,,,,,,,,,,,,,,,,,,,,,131.62445880007,131.62449780013412,131.63221250008792,131.64083210006356,131.64083210006356,131.64083210006356,131.64083210006356,134.64081630017608,134.64081630017608,135.64214999997057,135.64214999997057,135.62425190000795,1,1,1.0726113999262452,0.23701820010319352,None,135.62431680015288,135.6243378999643,None,135.6243612000253,135.62437840015627,None,,,,,,,,,,,6,3,0,1,2025-03-10_11h37.26.052,rtmindeye,2024.2.4,59.945066369512546,2025-03-10 11h38.02.713554 -0400,
all_stimuli/special515/special_4249.jpg,10,0,10,10,0,,,,0,0,0,3,1,"[9, 21, 31, 45, 56, 68, 69]",1,1,0.6531365998089314,0.17210010020062327,None,None,None,,,,,,,,,,,0,0,0,0,0,10,10,10,135.64214999997057,,,,,,,,,,,,,,,,,,,,,,135.62452610000037,135.62457450013608,135.640261300141,135.64214999997057,135.64214999997057,135.64214999997057,135.64214999997057,138.65727209998295,138.65727209998295,,,139.64065330009907,1,1,0.6531365998089314,0.17210010020062327,None,139.64072240004316,139.64074370008893,None,139.6407681000419,139.64078530017287,None,,,,,,,,,,,6,3,0,1,2025-03-10_11h37.26.052,rtmindeye,2024.2.4,59.945066369512546,2025-03-10 11h38.02.713554 -0400,
all_stimuli/special515/special_54361.jpg,11,0,11,11,0,,,,0,0,0,3,1,"[9, 21, 31, 45, 56, 68, 69]",1,1,0.8028334002010524,0.17676659999415278,None,None,None,,,,,,,,,,,0,0,0,0,0,11,11,11,139.66266190004535,,,,,,,,,,,,,,,,,,,,,,139.6409355001524,139.64097990002483,139.66097780014388,139.66266190004535,139.66266190004535,139.66266190004535,139.66266190004535,142.67395419999957,142.67395419999957,,,143.65721410000697,1,1,0.8028334002010524,0.17676659999415278,None,143.65728590008803,143.6573077000212,None,143.6573318000883,143.65734930010512,None,,,,,,,,,,,6,3,0,1,2025-03-10_11h37.26.052,rtmindeye,2024.2.4,59.945066369512546,2025-03-10 11h38.02.713554 -0400,
all_stimuli/special515/special_6489.jpg,12,0,12,12,0,,,,0,0,0,3,1,"[9, 21, 31, 45, 56, 68, 69]",1,1,0.6704029999673367,0.21888100006617606,None,None,None,,,,,,,,,,,0,0,0,0,0,12,12,12,143.699954100186,,,,,,,,,,,,,,,,,,,,,,143.65749910008162,143.65754330018535,143.6981135001406,143.699954100186,143.699954100186,143.699954100186,143.699954100186,146.70717189996503,146.70717189996503,,,147.67394420015626,1,1,0.6704029999673367,0.21888100006617606,None,147.67401399998926,147.6740359000396,None,147.67406009999104,147.67407790012658,None,,,,,,,,,,,6,3,0,1,2025-03-10_11h37.26.052,rtmindeye,2024.2.4,59.945066369512546,2025-03-10 11h38.02.713554 -0400,
all_stimuli/special515/special_38641.jpg,13,0,13,13,0,,,,0,0,0,3,1,"[9, 21, 31, 45, 56, 68, 69]",1,1,0.6158048000652343,0.19290339993312955,None,None,None,,,,,,,,,,,0,0,0,0,0,13,13,13,147.69051120011136,,,,,,,,,,,,,,,,,,,,,,147.67423300002702,147.67427750001661,147.68244170001708,147.69051120011136,147.69051120011136,147.69051120011136,147.69051120011136,150.69063720013946,150.69063720013946,151.69041320006363,151.69041320006363,151.67412970005535,1,1,0.6158048000652343,0.19290339993312955,None,151.6741961000953,151.67421730002388,None,151.67424100008793,151.6742583999876,None,,,,,,,,,,,6,3,0,1,2025-03-10_11h37.26.052,rtmindeye,2024.2.4,59.945066369512546,2025-03-10 11h38.02.713554 -0400,
all_stimuli/shared1000_notspecial/notspecial_67168.png,14,0,14,14,0,,,,0,0,0,3,1,"[9, 21, 31, 45, 56, 68, 69]",1,1,0.4950498000252992,0.18782879994250834,None,None,None,,,,,,,,,,,0,0,0,0,0,14,14,14,151.69041320006363,,,,,,,,,,,,,,,,,,,,,,151.6744109999854,151.6744491001591,151.68538010003977,151.69041320006363,151.69041320006363,151.69041320006363,151.69041320006363,154.69080019998364,154.69080019998364,155.69052820000798,155.69052820000798,155.67405640007928,1,1,0.4950498000252992,0.18782879994250834,None,155.67412020009942,155.67414050013758,None,155.67416390008293,155.67418120009825,None,,,,,,,,,,,6,3,0,1,2025-03-10_11h37.26.052,rtmindeye,2024.2.4,59.945066369512546,2025-03-10 11h38.02.713554 -0400,
all_stimuli/shared1000_notspecial/notspecial_59079.png,15,0,15,15,0,,,,0,0,0,3,1,"[9, 21, 31, 45, 56, 68, 69]",1,1,0.5676439001690596,0.24111819989047945,None,None,None,,,,,,,,,,,0,0,0,0,0,15,15,15,155.69052820000798,,,,,,,,,,,,,,,,,,,,,,155.67432690015994,155.67436489998363,155.68605060013942,155.69052820000798,155.69052820000798,155.69052820000798,155.69052820000798,158.6907526999712,158.6907526999712,159.70353500009514,159.70353500009514,159.67411050014198,1,1,0.5676439001690596,0.24111819989047945,None,159.67417450016364,159.6741953000892,None,159.67421880015172,159.67423600004986,None,,,,,,,,,,,6,3,0,1,2025-03-10_11h37.26.052,rtmindeye,2024.2.4,59.945066369512546,2025-03-10 11h38.02.713554 -0400,
all_stimuli/MST_pairs1/pair_2_4_89.png,16,0,16,16,0,,,,0,0,0,3,1,"[9, 21, 31, 45, 56, 68, 69]",1,1,0.6818701000884175,0.1799810000229627,None,None,None,,,,,,,,,,,0,0,0,0,0,16,16,16,159.70353500009514,,,,,,,,,,,,,,,,,,,,,,159.6743836000096,159.67442529997788,159.70190530014224,159.70353500009514,159.70353500009514,159.70353500009514,159.70353500009514,162.7073745999951,162.7073745999951,,,163.69073170004413,1,1,0.6818701000884175,0.1799810000229627,None,163.69080300000496,163.6908293000888,None,163.69085360015742,163.6908715001773,None,,,,,,,,,,,6,3,0,1,2025-03-10_11h37.26.052,rtmindeye,2024.2.4,59.945066369512546,2025-03-10 11h38.02.713554 -0400,
all_stimuli/shared1000_notspecial/notspecial_26127.png,17,0,17,17,0,,,,0,0,0,3,1,"[9, 21, 31, 45, 56, 68, 69]",1,1,0.9942874000407755,0.19187390012666583,None,None,None,,,,,,,,,,,0,0,0,0,0,17,17,17,163.70708870003,,,,,,,,,,,,,,,,,,,,,,163.69102920009755,163.69107370008714,163.70188560010865,163.70708870003,163.70708870003,163.70708870003,163.70708870003,166.70733990008011,166.70733990008011,167.7069745999761,167.7069745999761,167.69075169996358,1,1,0.9942874000407755,0.19187390012666583,None,167.69081469997764,167.69083540001884,None,167.6908589999657,167.69087589997798,None,,,,,,,,,,,6,3,0,1,2025-03-10_11h37.26.052,rtmindeye,2024.2.4,59.945066369512546,2025-03-10 11h38.02.713554 -0400,
all_stimuli/shared1000_notspecial/notspecial_20223.png,18,0,18,18,0,,,,0,0,0,3,1,"[9, 21, 31, 45, 56, 68, 69]",1,1,0.6062578000128269,0.19497439987026155,None,None,None,,,,,,,,,,,0,0,0,0,0,18,18,18,167.7069745999761,,,,,,,,,,,,,,,,,,,,,,167.6910185001325,167.69105729996227,167.70142589998432,167.7069745999761,167.7069745999761,167.7069745999761,167.7069745999761,170.70721330004744,170.70721330004744,171.7074313000776,171.7074313000776,171.6905376999639,1,1,0.6062578000128269,0.19497439987026155,None,171.69060309999622,171.69062370015308,None,171.69064759998582,171.69066510000266,None,,,,,,,,,,,6,3,0,1,2025-03-10_11h37.26.052,rtmindeye,2024.2.4,59.945066369512546,2025-03-10 11h38.02.713554 -0400,
all_stimuli/special515/special_62015.jpg,19,0,19,19,0,,,,1,0,0,3,1,"[9, 21, 31, 45, 56, 68, 69]",1,0,0.4497620998881757,0.23605490010231733,None,None,None,,,,,,,,,,,0,0,0,0,0,19,19,19,171.7074313000776,,,,,,,,,,,,,,,,,,,,,,171.69081180007197,171.69085040013306,171.69954030006193,171.7074313000776,171.7074313000776,171.7074313000776,171.7074313000776,174.70706170005724,174.70706170005724,175.70917340018786,175.70917340018786,175.6908684000373,1,0,0.4497620998881757,0.23605490010231733,None,175.69093300006352,175.69095419999212,None,175.69097780017182,175.69099490018561,None,,,,,,,,,,,6,3,0,1,2025-03-10_11h37.26.052,rtmindeye,2024.2.4,59.945066369512546,2025-03-10 11h38.02.713554 -0400,
all_stimuli/special515/special_10244.jpg,20,0,20,20,0,,,,0,0,0,3,1,"[9, 21, 31, 45, 56, 68, 69]",1,1,0.9141265999060124,0.20992910000495613,None,None,None,,,,,,,,,,,0,0,0,0,0,20,20,20,175.70917340018786,,,,,,,,,,,,,,,,,,,,,,175.69115389999934,175.69119330006652,175.7074327999726,175.70917340018786,175.70917340018786,175.70917340018786,175.70917340018786,178.7238441000227,178.7238441000227,,,179.70715890009888,1,1,0.9141265999060124,0.20992910000495613,None,179.7072287001647,179.70725050009787,None,179.70727460016496,179.7072926000692,None,,,,,,,,,,,6,3,0,1,2025-03-10_11h37.26.052,rtmindeye,2024.2.4,59.945066369512546,2025-03-10 11h38.02.713554 -0400,
blank.jpg,21,1,21,21,0,,,,0,0,0,3,1,"[9, 21, 31, 45, 56, 68, 69]",2,0,0.8831146999727935,0.2599845000077039,None,None,None,,,,,,,,,,,0,0,0,0,0,21,21,21,179.73738940013573,,,,,,,,,,,,,,,,,,,,,,179.70744150015526,179.7074853000231,179.73579649999738,179.73738940013573,179.73738940013573,179.73738940013573,179.73738940013573,182.74064670014195,182.74064670014195,,,183.72407170012593,2,0,0.8831146999727935,0.2599845000077039,None,183.72414770000614,183.72416950017214,None,183.72419330012053,183.7242110001389,None,,,,,,,,,,,6,3,0,1,2025-03-10_11h37.26.052,rtmindeye,2024.2.4,59.945066369512546,2025-03-10 11h38.02.713554 -0400,
all_stimuli/special515/special_28524.jpg,22,0,22,22,0,,,,0,0,0,3,1,"[9, 21, 31, 45, 56, 68, 69]",1,1,0.7565943000372499,0.20289660012349486,None,None,None,,,,,,,,,,,0,0,0,0,0,22,22,22,183.74083330016583,,,,,,,,,,,,,,,,,,,,,,183.72436470002867,183.72440910013393,183.7329496999737,183.74083330016583,183.74083330016583,183.74083330016583,183.74083330016583,186.74069740017876,186.74069740017876,187.74081280012615,187.74081280012615,187.7239957000129,1,1,0.7565943000372499,0.20289660012349486,None,187.7240604001563,187.7240876001306,None,187.7241130999755,187.72413039999083,None,,,,,,,,,,,6,3,0,1,2025-03-10_11h37.26.052,rtmindeye,2024.2.4,59.945066369512546,2025-03-10 11h38.02.713554 -0400,
all_stimuli/special515/special_30430.jpg,23,0,23,23,0,,,,0,0,0,3,1,"[9, 21, 31, 45, 56, 68, 69]",1,1,0.9003656001295894,0.2241807000245899,None,None,None,,,,,,,,,,,0,0,0,0,0,23,23,23,187.74081280012615,,,,,,,,,,,,,,,,,,,,,,187.72428199998103,187.72432110016234,187.73262600018643,187.74081280012615,187.74081280012615,187.74081280012615,187.74081280012615,190.74067279999144,190.74067279999144,191.74028909998015,191.74028909998015,191.72403490007855,1,1,0.9003656001295894,0.2241807000245899,None,191.72409930010326,191.72411980014294,None,191.72414329997264,191.72416039998643,None,,,,,,,,,,,6,3,0,1,2025-03-10_11h37.26.052,rtmindeye,2024.2.4,59.945066369512546,2025-03-10 11h38.02.713554 -0400,
all_stimuli/MST_pairs1/pair_10_14_33.png,24,0,24,24,0,,,,0,0,0,3,1,"[9, 21, 31, 45, 56, 68, 69]",1,1,1.1312027000822127,0.22486479999497533,None,None,None,,,,,,,,,,,0,0,0,0,0,24,24,24,191.74028909998015,,,,,,,,,,,,,,,,,,,,,,191.72430480015464,191.72434310009703,191.73862530011684,191.74028909998015,191.74028909998015,191.74028909998015,191.74028909998015,194.74028800008819,194.74028800008819,195.740234100027,195.740234100027,195.7240120000206,1,1,1.1312027000822127,0.22486479999497533,None,195.72407710016705,195.72409859998152,None,195.72412290005013,195.72414000006393,None,,,,,,,,,,,6,3,0,1,2025-03-10_11h37.26.052,rtmindeye,2024.2.4,59.945066369512546,2025-03-10 11h38.02.713554 -0400,
all_stimuli/shared1000_notspecial/notspecial_10907.png,25,0,25,25,0,,,,0,0,0,3,1,"[9, 21, 31, 45, 56, 68, 69]",1,1,1.008141600061208,0.25190500007010996,None,None,None,,,,,,,,,,,0,0,0,0,0,25,25,25,195.740234100027,,,,,,,,,,,,,,,,,,,,,,195.72428640001453,195.72432470018975,195.73658849997446,195.740234100027,195.740234100027,195.740234100027,195.740234100027,198.74076439999044,198.74076439999044,199.74056620011106,199.74056620011106,199.7240671000909,1,1,1.008141600061208,0.25190500007010996,None,199.724130500108,199.72415100014769,None,199.72417489998043,199.7241921001114,None,,,,,,,,,,,6,3,0,1,2025-03-10_11h37.26.052,rtmindeye,2024.2.4,59.945066369512546,2025-03-10 11h38.02.713554 -0400,
all_stimuli/special515/special_22587.jpg,26,0,26,26,0,,,,0,0,0,3,1,"[9, 21, 31, 45, 56, 68, 69]",1,1,0.7819219999946654,0.24888260010629892,None,None,None,,,,,,,,,,,0,0,0,0,0,26,26,26,199.74056620011106,,,,,,,,,,,,,,,,,,,,,,199.72434350010008,199.72438210016116,199.73246369999833,199.74056620011106,199.74056620011106,199.74056620011106,199.74056620011106,202.74052170012146,202.74052170012146,203.74066480016336,203.74066480016336,203.72414260008372,1,1,0.7819219999946654,0.24888260010629892,None,203.72420569998212,203.72422600002028,None,203.72424930008128,203.72426609997638,None,,,,,,,,,,,6,3,0,1,2025-03-10_11h37.26.052,rtmindeye,2024.2.4,59.945066369512546,2025-03-10 11h38.02.713554 -0400,
all_stimuli/special515/special_3687.jpg,27,0,27,27,0,,,,0,0,0,3,1,"[9, 21, 31, 45, 56, 68, 69]",1,1,0.8277109998743981,0.2228177001234144,None,None,None,,,,,,,,,,,0,0,0,0,0,27,27,27,203.74066480016336,,,,,,,,,,,,,,,,,,,,,,203.7244078000076,203.72444660007022,203.73381270002574,203.74066480016336,203.74066480016336,203.74066480016336,203.74066480016336,206.74062980012968,206.74062980012968,207.74981290008873,207.74981290008873,207.72389780008234,1,1,0.8277109998743981,0.2228177001234144,None,207.72396300011314,207.72398430015892,None,207.72400799999014,207.72402530000545,None,,,,,,,,,,,6,3,0,1,2025-03-10_11h37.26.052,rtmindeye,2024.2.4,59.945066369512546,2025-03-10 11h38.02.713554 -0400,
all_stimuli/shared1000_notspecial/notspecial_58164.png,28,0,28,28,0,,,,0,0,0,3,1,"[9, 21, 31, 45, 56, 68, 69]",1,1,0.930660700192675,0.21986229997128248,None,None,None,,,,,,,,,,,0,0,0,0,0,28,28,28,207.74981290008873,,,,,,,,,,,,,,,,,,,,,,207.72417309996672,207.72421400016174,207.74815600016154,207.74981290008873,207.74981290008873,207.74981290008873,207.74981290008873,210.75723149999976,210.75723149999976,,,211.74045210005715,1,1,0.930660700192675,0.21986229997128248,None,211.74052240001038,211.74054420017637,None,211.74056800012477,211.7405855001416,None,,,,,,,,,,,6,3,0,1,2025-03-10_11h37.26.052,rtmindeye,2024.2.4,59.945066369512546,2025-03-10 11h38.02.713554 -0400,
all_stimuli/special515/special_38494.jpg,29,0,29,29,0,,,,0,0,0,3,1,"[9, 21, 31, 45, 56, 68, 69]",1,1,0.81978700007312,0.23598769982345402,None,None,None,,,,,,,,,,,0,0,0,0,0,29,29,29,211.75743550015613,,,,,,,,,,,,,,,,,,,,,,211.74073930014856,211.74078410002403,211.74945220001973,211.75743550015613,211.75743550015613,211.75743550015613,211.75743550015613,214.7571837999858,214.7571837999858,215.75696659996174,215.75696659996174,215.74078220012598,1,1,0.81978700007312,0.23598769982345402,None,215.7408458001446,215.74086640006863,None,215.7408895001281,215.74090640014037,None,,,,,,,,,,,6,3,0,1,2025-03-10_11h37.26.052,rtmindeye,2024.2.4,59.945066369512546,2025-03-10 11h38.02.713554 -0400,
all_stimuli/MST_pairs1/pair_12_16_22.png,30,0,30,30,0,,,,0,0,0,3,1,"[9, 21, 31, 45, 56, 68, 69]",1,1,1.0202570999972522,0.24605960003100336,None,None,None,,,,,,,,,,,0,0,0,0,0,30,30,30,215.75696659996174,,,,,,,,,,,,,,,,,,,,,,215.7410489001777,215.74108770000748,215.75388030009344,215.75696659996174,215.75696659996174,215.75696659996174,215.75696659996174,218.7568255001679,218.7568255001679,219.75707910000347,219.75707910000347,219.7407476999797,1,1,1.0202570999972522,0.24605960003100336,None,219.74081380013376,219.74083410017192,None,219.74085790012032,219.74087530001998,None,,,,,,,,,,,6,3,0,1,2025-03-10_11h37.26.052,rtmindeye,2024.2.4,59.945066369512546,2025-03-10 11h38.02.713554 -0400,
blank.jpg,31,1,31,31,0,,,,0,0,0,3,1,"[9, 21, 31, 45, 56, 68, 69]",2,0,0.9151989000383765,0.2571069998666644,None,None,None,,,,,,,,,,,0,0,0,0,0,31,31,31,219.75707910000347,,,,,,,,,,,,,,,,,,,,,,219.74102229997516,219.74106060015038,219.74695469997823,219.75707910000347,219.75707910000347,219.75707910000347,219.75707910000347,222.75708440016024,222.75708440016024,223.76611199998297,223.76611199998297,223.74059320008382,2,0,0.9151989000383765,0.2571069998666644,None,223.74065809999593,223.7406789001543,None,223.7407063001301,223.74072350002825,None,,,,,,,,,,,6,3,0,1,2025-03-10_11h37.26.052,rtmindeye,2024.2.4,59.945066369512546,2025-03-10 11h38.02.713554 -0400,
all_stimuli/special515/special_66489.jpg,32,0,32,32,0,,,,0,0,0,3,1,"[9, 21, 31, 45, 56, 68, 69]",1,1,0.845038800034672,0.22122059995308518,None,None,None,,,,,,,,,,,0,0,0,0,0,32,32,32,223.76611199998297,,,,,,,,,,,,,,,,,,,,,,223.7408722001128,223.7409115000628,223.76420810003765,223.76611199998297,223.76611199998297,223.76611199998297,223.76611199998297,226.7737804001663,226.7737804001663,,,227.75719940010458,1,1,0.845038800034672,0.22122059995308518,None,227.75726730003953,227.75728900008835,None,227.75731210014783,227.757329700049,None,,,,,,,,,,,6,3,0,1,2025-03-10_11h37.26.052,rtmindeye,2024.2.4,59.945066369512546,2025-03-10 11h38.02.713554 -0400,
all_stimuli/MST_pairs1/pair_28_nsd_547_1_cocoid_60932.png,33,0,33,33,0,,,,0,0,0,3,1,"[9, 21, 31, 45, 56, 68, 69]",1,1,0.9365008999593556,0.2409676001407206,None,None,None,,,,,,,,,,,0,0,0,0,0,33,33,33,227.79488290008157,,,,,,,,,,,,,,,,,,,,,,227.7576182000339,227.75766320014372,227.79291300009936,227.79488290008157,227.79488290008157,227.79488290008157,227.79488290008157,230.80705579998903,230.80705579998903,,,231.77391390013508,1,1,0.9365008999593556,0.2409676001407206,None,231.77398360008374,231.77400520001538,None,231.77402860019356,231.7740462999791,None,,,,,,,,,,,6,3,0,1,2025-03-10_11h37.26.052,rtmindeye,2024.2.4,59.945066369512546,2025-03-10 11h38.02.713554 -0400,
all_stimuli/shared1000_notspecial/notspecial_46002.png,34,0,34,34,0,,,,0,0,0,3,1,"[9, 21, 31, 45, 56, 68, 69]",1,1,1.0434367000125349,0.21916620014235377,None,None,None,,,,,,,,,,,0,0,0,0,0,34,34,34,231.80080360011198,,,,,,,,,,,,,,,,,,,,,,231.77419490017928,231.7742386001628,231.7991723001469,231.80080360011198,231.80080360011198,231.80080360011198,231.80080360011198,234.80688820010982,234.80688820010982,,,235.7907210001722,1,1,1.0434367000125349,0.21916620014235377,None,235.79079140000977,235.79081350006163,None,235.79083750001155,235.79085510014556,None,,,,,,,,,,,6,3,0,1,2025-03-10_11h37.26.052,rtmindeye,2024.2.4,59.945066369512546,2025-03-10 11h38.02.713554 -0400,
all_stimuli/special515/special_30632.jpg,35,0,35,35,0,,,,0,0,0,3,1,"[9, 21, 31, 45, 56, 68, 69]",1,1,0.8670302999671549,0.22008090000599623,None,None,None,,,,,,,,,,,0,0,0,0,0,35,35,35,235.80712100001983,,,,,,,,,,,,,,,,,,,,,,235.7910257000476,235.7910703001544,235.8007942000404,235.80712100001983,235.80712100001983,235.80712100001983,235.80712100001983,238.8071576000657,238.8071576000657,239.81549159996212,239.81549159996212,239.79072340019047,1,1,0.8670302999671549,0.22008090000599623,None,239.79078779998235,239.7908089000266,None,239.79083240008913,239.79084959998727,None,,,,,,,,,,,6,3,0,1,2025-03-10_11h37.26.052,rtmindeye,2024.2.4,59.945066369512546,2025-03-10 11h38.02.713554 -0400,
all_stimuli/special515/special_31936.jpg,36,0,36,36,0,,,,0,0,0,3,1,"[9, 21, 31, 45, 56, 68, 69]",1,1,0.9078581999056041,0.23585109994746745,None,None,None,,,,,,,,,,,0,0,0,0,0,36,36,36,239.81549159996212,,,,,,,,,,,,,,,,,,,,,,239.79099790006876,239.79103680001572,239.81377070001327,239.81549159996212,239.81549159996212,239.81549159996212,239.81549159996212,242.82345160003752,242.82345160003752,,,243.80690210009925,1,1,0.9078581999056041,0.23585109994746745,None,243.8069721001666,243.80699359998107,None,243.80701730004512,243.80703460006043,None,,,,,,,,,,,6,3,0,1,2025-03-10_11h37.26.052,rtmindeye,2024.2.4,59.945066369512546,2025-03-10 11h38.02.713554 -0400,
all_stimuli/MST_pairs1/pair_8_12_56.png,37,0,37,37,0,,,,0,0,0,3,1,"[9, 21, 31, 45, 56, 68, 69]",1,1,1.0485304000321776,0.2420730998273939,None,None,None,,,,,,,,,,,0,0,0,0,0,37,37,37,243.83275060006417,,,,,,,,,,,,,,,,,,,,,,243.80719089997,243.80723510007374,243.83107309998013,243.83275060006417,243.83275060006417,243.83275060006417,243.83275060006417,246.84055049996823,246.84055049996823,,,247.82384330010973,1,1,1.0485304000321776,0.2420730998273939,None,247.82391300005838,247.8239351999946,None,247.8239585000556,247.82397570018657,None,,,,,,,,,,,6,3,0,1,2025-03-10_11h37.26.052,rtmindeye,2024.2.4,59.945066369512546,2025-03-10 11h38.02.713554 -0400,
all_stimuli/special515/special_19074.jpg,38,0,38,38,0,,,,0,0,0,3,1,"[9, 21, 31, 45, 56, 68, 69]",1,1,0.9117498998530209,0.21979860006831586,None,None,None,,,,,,,,,,,0,0,0,0,0,38,38,38,247.84071380016394,,,,,,,,,,,,,,,,,,,,,,247.82412600005046,247.82417050004005,247.83284660009667,247.84071380016394,247.84071380016394,247.84071380016394,247.84071380016394,250.84053000016138,250.84053000016138,251.8401799001731,251.8401799001731,251.82374000013806,1,1,0.9117498998530209,0.21979860006831586,None,251.8238035000395,251.82382340007462,None,251.8238473001402,251.82386470003985,None,,,,,,,,,,,6,3,0,1,2025-03-10_11h37.26.052,rtmindeye,2024.2.4,59.945066369512546,2025-03-10 11h38.02.713554 -0400,
all_stimuli/shared1000_notspecial/notspecial_42648.png,39,0,39,39,0,,,,0,0,0,3,1,"[9, 21, 31, 45, 56, 68, 69]",1,1,0.9102807999588549,0.22375000012107193,None,None,None,,,,,,,,,,,0,0,0,0,0,39,39,39,251.8401799001731,,,,,,,,,,,,,,,,,,,,,,251.8240092000924,251.82404790003784,251.8367854000535,251.8401799001731,251.8401799001731,251.8401799001731,251.8401799001731,254.84028610005043,254.84028610005043,255.84044730011374,255.84044730011374,255.82370950002223,1,1,0.9102807999588549,0.22375000012107193,None,255.82377490005456,255.82379589998163,None,255.82381970016286,255.8238379000686,None,,,,,,,,,,,6,3,0,1,2025-03-10_11h37.26.052,rtmindeye,2024.2.4,59.945066369512546,2025-03-10 11h38.02.713554 -0400,
all_stimuli/MST_pairs1/pair_12_16_22.png,40,0,40,40,0,,,,1,0,0,3,1,"[9, 21, 31, 45, 56, 68, 69]",2,1,0.8877481000963598,0.27115059993229806,None,None,None,,,,,,,,,,,0,0,0,0,0,40,40,40,255.84044730011374,,,,,,,,,,,,,,,,,,,,,,255.8239875000436,255.82402610010467,255.83421110012569,255.84044730011374,255.84044730011374,255.84044730011374,255.84044730011374,258.84050390007906,258.84050390007906,259.8614444001578,259.8614444001578,259.8238320001401,2,1,0.8877481000963598,0.27115059993229806,None,259.82389550004154,259.8239162999671,None,259.8239409001544,259.8239585000556,None,,,,,,,,,,,6,3,0,1,2025-03-10_11h37.26.052,rtmindeye,2024.2.4,59.945066369512546,2025-03-10 11h38.02.713554 -0400,
all_stimuli/shared1000_notspecial/notspecial_3951.png,41,0,41,41,0,,,,0,0,0,3,1,"[9, 21, 31, 45, 56, 68, 69]",1,1,0.8087807998526841,0.22296520019881427,None,None,None,,,,,,,,,,,0,0,0,0,0,41,41,41,259.8614444001578,,,,,,,,,,,,,,,,,,,,,,259.82410530000925,259.82415370014496,259.8598359001335,259.8614444001578,259.8614444001578,259.8614444001578,259.8614444001578,262.8736798001919,262.8736798001919,,,263.8405394000001,1,1,0.8087807998526841,0.22296520019881427,None,263.84061080007814,263.8406326000113,None,263.8406565000769,263.8406742999796,None,,,,,,,,,,,6,3,0,1,2025-03-10_11h37.26.052,rtmindeye,2024.2.4,59.945066369512546,2025-03-10 11h38.02.713554 -0400,
all_stimuli/MST_pairs1/pair_12_16_78.png,42,0,42,42,0,,,,0,0,0,3,1,"[9, 21, 31, 45, 56, 68, 69]",1,1,1.197492599952966,0.22077660006470978,None,None,None,,,,,,,,,,,0,0,0,0,0,42,42,42,263.8568168000784,,,,,,,,,,,,,,,,,,,,,,263.8408254000824,263.840869900072,263.85268810018897,263.8568168000784,263.8568168000784,263.8568168000784,263.8568168000784,266.8569652000442,266.8569652000442,267.8619812000543,267.8619812000543,267.8406217000447,1,1,1.197492599952966,0.22077660006470978,None,267.8406860001851,267.840706899995,None,267.84073110017926,267.84074820019305,None,,,,,,,,,,,6,3,0,1,2025-03-10_11h37.26.052,rtmindeye,2024.2.4,59.945066369512546,2025-03-10 11h38.02.713554 -0400,
all_stimuli/special515/special_11952.jpg,43,0,43,43,0,,,,0,0,0,3,1,"[9, 21, 31, 45, 56, 68, 69]",1,1,0.9582634000107646,0.2691800999455154,None,None,None,,,,,,,,,,,0,0,0,0,0,43,43,43,267.8619812000543,,,,,,,,,,,,,,,,,,,,,,267.8409023000859,267.8409420000389,267.86005949997343,267.8619812000543,267.8619812000543,267.8619812000543,267.8619812000543,270.87364810006693,270.87364810006693,,,271.85716690006666,1,1,0.9582634000107646,0.2691800999455154,None,271.8572358000092,271.8572579000611,None,271.857281900011,271.857299100142,None,,,,,,,,,,,6,3,0,1,2025-03-10_11h37.26.052,rtmindeye,2024.2.4,59.945066369512546,2025-03-10 11h38.02.713554 -0400,
all_stimuli/MST_pairs1/pair_14_18_22.png,44,0,44,44,0,,,,0,0,0,3,1,"[9, 21, 31, 45, 56, 68, 69]",2,0,1.545187999960035,0.25416320003569126,None,None,None,,,,,,,,,,,0,0,0,0,0,44,44,44,271.8990500001237,,,,,,,,,,,,,,,,,,,,,,271.8574481999967,271.8574924999848,271.89723040000536,271.8990500001237,271.8990500001237,271.8990500001237,271.8990500001237,274.90710259997286,274.90710259997286,,,275.8738635999616,2,0,1.545187999960035,0.25416320003569126,None,275.8739320000168,275.87395340017974,None,275.87397690000944,275.87399420002475,None,,,,,,,,,,,6,3,0,1,2025-03-10_11h37.26.052,rtmindeye,2024.2.4,59.945066369512546,2025-03-10 11h38.02.713554 -0400,
blank.jpg,45,1,45,45,0,,,,0,0,0,3,1,"[9, 21, 31, 45, 56, 68, 69]",2,0,0.9576795999892056,0.19900220003910363,None,None,None,,,,,,,,,,,0,0,0,0,0,45,45,45,275.89057240006514,,,,,,,,,,,,,,,,,,,,,,275.8741475001443,275.8741917000152,275.8815542999655,275.89057240006514,275.89057240006514,275.89057240006514,275.89057240006514,278.89059299998917,278.89059299998917,279.8900705999695,279.8900705999695,279.87383150006644,2,0,0.9576795999892056,0.19900220003910363,None,279.8738953000866,279.8739157000091,None,279.87393890018575,279.87395559996367,None,,,,,,,,,,,6,3,0,1,2025-03-10_11h37.26.052,rtmindeye,2024.2.4,59.945066369512546,2025-03-10 11h38.02.713554 -0400,
all_stimuli/MST_pairs1/pair_16_20_56.png,46,0,46,46,0,,,,0,0,0,3,1,"[9, 21, 31, 45, 56, 68, 69]",1,1,0.8082942999899387,0.21796899987384677,None,None,None,,,,,,,,,,,0,0,0,0,0,46,46,46,279.8900705999695,,,,,,,,,,,,,,,,,,,,,,279.874102700036,279.87414119997993,279.88542530010454,279.8900705999695,279.8900705999695,279.8900705999695,279.8900705999695,282.89013539999723,282.89013539999723,283.890485299984,283.890485299984,283.8736414001323,1,1,0.8082942999899387,0.21796899987384677,None,283.87370650004596,283.87373240012676,None,283.87375700008124,283.8737747000996,None,,,,,,,,,,,6,3,0,1,2025-03-10_11h37.26.052,rtmindeye,2024.2.4,59.945066369512546,2025-03-10 11h38.02.713554 -0400,
all_stimuli/special515/special_8933.jpg,47,0,47,47,0,,,,0,0,0,3,1,"[9, 21, 31, 45, 56, 68, 69]",1,1,1.002710800152272,0.21794799994677305,None,None,None,,,,,,,,,,,0,0,0,0,0,47,47,47,283.890485299984,,,,,,,,,,,,,,,,,,,,,,283.87392390007153,283.8739628000185,283.8832260000054,283.890485299984,283.890485299984,283.890485299984,283.890485299984,286.8904874001164,286.8904874001164,287.89070620015264,287.89070620015264,287.8738691001199,1,1,1.002710800152272,0.21794799994677305,None,287.8739330000244,287.8739532001782,None,287.87397690000944,287.87399370013736,None,,,,,,,,,,,6,3,0,1,2025-03-10_11h37.26.052,rtmindeye,2024.2.4,59.945066369512546,2025-03-10 11h38.02.713554 -0400,
all_stimuli/MST_pairs1/pair_16_20_56.png,48,0,48,48,0,,,,1,0,0,3,1,"[9, 21, 31, 45, 56, 68, 69]",2,1,0.8067415999248624,0.24569229991175234,None,None,None,,,,,,,,,,,0,0,0,0,0,48,48,48,287.89070620015264,,,,,,,,,,,,,,,,,,,,,,287.8741576001048,287.8741978001781,287.88167510018684,287.89070620015264,287.89070620015264,287.89070620015264,287.89070620015264,290.8900578999892,290.8900578999892,291.8905224001501,291.8905224001501,291.8738236001227,2,1,0.8067415999248624,0.24569229991175234,None,291.87388810003176,291.8739087001886,None,291.87393240001984,291.87394970003515,None,,,,,,,,,,,6,3,0,1,2025-03-10_11h37.26.052,rtmindeye,2024.2.4,59.945066369512546,2025-03-10 11h38.02.713554 -0400,
all_stimuli/special515/special_5034.jpg,49,0,49,49,0,,,,0,0,0,3,1,"[9, 21, 31, 45, 56, 68, 69]",1,1,0.7967081000097096,0.2059033999685198,None,None,None,,,,,,,,,,,0,0,0,0,0,49,49,49,291.8905224001501,,,,,,,,,,,,,,,,,,,,,,291.87410490005277,291.87414430011995,291.8820299000945,291.8905224001501,291.8905224001501,291.8905224001501,291.8905224001501,294.8904635000508,294.8904635000508,295.89991730009206,295.89991730009206,295.8737051000353,1,1,0.7967081000097096,0.2059033999685198,None,295.87376910005696,295.8737912999932,None,295.8738159001805,295.87383299996145,None,,,,,,,,,,,6,3,0,1,2025-03-10_11h37.26.052,rtmindeye,2024.2.4,59.945066369512546,2025-03-10 11h38.02.713554 -0400,
all_stimuli/MST_pairs1/pair_16_20_0.png,50,0,50,50,0,,,,0,0,0,3,1,"[9, 21, 31, 45, 56, 68, 69]",1,1,1.2072266999166459,0.22209890000522137,None,None,None,,,,,,,,,,,0,0,0,0,0,50,50,50,295.89991730009206,,,,,,,,,,,,,,,,,,,,,,295.87398000014946,295.87401910009794,295.8982735001482,295.89991730009206,295.89991730009206,295.89991730009206,295.89991730009206,298.9070245001931,298.9070245001931,,,299.89026610017754,1,1,1.2072266999166459,0.22209890000522137,None,299.8903344999999,299.8903567001689,None,299.8903799999971,299.8903973000124,None,,,,,,,,,,,6,3,0,1,2025-03-10_11h37.26.052,rtmindeye,2024.2.4,59.945066369512546,2025-03-10 11h38.02.713554 -0400,
all_stimuli/MST_pairs1/pair_46_w_pool2.jpg,51,0,51,51,0,,,,0,0,0,3,1,"[9, 21, 31, 45, 56, 68, 69]",1,1,1.0113101999741048,0.21996739995665848,None,None,None,,,,,,,,,,,0,0,0,0,0,51,51,51,299.90697560017,,,,,,,,,,,,,,,,,,,,,,299.8905462999828,299.89059050008655,299.90092190005817,299.90697560017,299.90697560017,299.90697560017,299.90697560017,302.9068777000066,302.9068777000066,303.91170720010996,303.91170720010996,303.8903944999911,1,1,1.0113101999741048,0.21996739995665848,None,303.8904613000341,303.8904824999627,None,303.89050590014085,303.890523100039,None,,,,,,,,,,,6,3,0,1,2025-03-10_11h37.26.052,rtmindeye,2024.2.4,59.945066369512546,2025-03-10 11h38.02.713554 -0400,
all_stimuli/special515/special_62228.jpg,52,0,52,52,0,,,,0,0,0,3,1,"[9, 21, 31, 45, 56, 68, 69]",1,1,1.4195667000021785,0.2128275001887232,None,None,None,,,,,,,,,,,0,0,0,0,0,52,52,52,303.91170720010996,,,,,,,,,,,,,,,,,,,,,,303.8906708001159,303.89070870005526,303.9098442001268,303.91170720010996,303.91170720010996,303.91170720010996,303.91170720010996,306.92357109999284,306.92357109999284,,,307.90695360000245,1,1,1.4195667000021785,0.2128275001887232,None,307.90702240006067,307.90704390010796,None,307.90706880018115,307.90708660008386,None,,,,,,,,,,,6,3,0,1,2025-03-10_11h37.26.052,rtmindeye,2024.2.4,59.945066369512546,2025-03-10 11h38.02.713554 -0400,
all_stimuli/MST_pairs1/pair_40_w_escalator2.jpg,53,0,53,53,0,,,,0,0,0,3,1,"[9, 21, 31, 45, 56, 68, 69]",1,1,1.0255536998156458,0.23909250018186867,None,None,None,,,,,,,,,,,0,0,0,0,0,53,53,53,307.9236920000985,,,,,,,,,,,,,,,,,,,,,,307.9072368000634,307.9072806001641,307.9157889999915,307.9236920000985,307.9236920000985,307.9236920000985,307.9236920000985,310.9234054000117,310.9234054000117,311.9425470000133,311.9425470000133,311.9069993000012,1,1,1.0255536998156458,0.23909250018186867,None,311.9070621000137,311.90708230016753,None,311.9071057001129,311.9071227000095,None,,,,,,,,,,,6,3,0,1,2025-03-10_11h37.26.052,rtmindeye,2024.2.4,59.945066369512546,2025-03-10 11h38.02.713554 -0400,
all_stimuli/MST_pairs1/pair_20_nsd_41_2_cocoid_63715.png,54,0,54,54,0,,,,0,0,0,3,1,"[9, 21, 31, 45, 56, 68, 69]",1,1,0.8815854000858963,0.20510870008729398,None,None,None,,,,,,,,,,,0,0,0,0,0,54,54,54,311.9425470000133,,,,,,,,,,,,,,,,,,,,,,311.90727029996924,311.9073093000334,311.9406618999783,311.9425470000133,311.9425470000133,311.9425470000133,311.9425470000133,314.9567448000889,314.9567448000889,,,315.9236789001152,1,1,0.8815854000858963,0.20510870008729398,None,315.92374810017645,315.92376999999397,None,315.92379330005497,315.92381100007333,None,,,,,,,,,,,6,3,0,1,2025-03-10_11h37.26.052,rtmindeye,2024.2.4,59.945066369512546,2025-03-10 11h38.02.713554 -0400,
all_stimuli/shared1000_notspecial/notspecial_22155.png,55,0,55,55,0,,,,0,0,0,3,1,"[9, 21, 31, 45, 56, 68, 69]",1,1,0.6943440998438746,0.17419080017134547,None,None,None,,,,,,,,,,,0,0,0,0,0,55,55,55,315.945764800068,,,,,,,,,,,,,,,,,,,,,,315.92396210017614,315.9240080001764,315.9441377001349,315.945764800068,315.945764800068,315.945764800068,315.945764800068,318.9569020001218,318.9569020001218,,,319.9405112999957,1,1,0.6943440998438746,0.17419080017134547,None,319.9405828001909,319.9406047000084,None,319.94062820007093,319.9406455999706,None,,,,,,,,,,,6,3,0,1,2025-03-10_11h37.26.052,rtmindeye,2024.2.4,59.945066369512546,2025-03-10 11h38.02.713554 -0400,
blank.jpg,56,1,56,56,0,,,,0,0,0,3,1,"[9, 21, 31, 45, 56, 68, 69]",2,0,0.840345400152728,0.23694059997797012,None,None,None,,,,,,,,,,,0,0,0,0,0,56,56,56,319.95700730010867,,,,,,,,,,,,,,,,,,,,,,319.9408047001343,319.94084960012697,319.9471388000529,319.95700730010867,319.95700730010867,319.95700730010867,319.95700730010867,322.9567826001439,322.9567826001439,323.9682510001585,323.9682510001585,323.94039790006354,2,0,0.840345400152728,0.23694059997797012,None,323.9404651999939,323.9404863000382,None,323.9405098001007,323.94052670011297,None,,,,,,,,,,,6,3,0,1,2025-03-10_11h37.26.052,rtmindeye,2024.2.4,59.945066369512546,2025-03-10 11h38.02.713554 -0400,
all_stimuli/special515/special_11617.jpg,57,0,57,57,0,,,,0,0,0,3,1,"[9, 21, 31, 45, 56, 68, 69]",1,1,1.0621486001182348,0.20188459986820817,None,None,None,,,,,,,,,,,0,0,0,0,0,57,57,57,323.9682510001585,,,,,,,,,,,,,,,,,,,,,,323.9406759000849,323.94071480003186,323.9664817000739,323.9682510001585,323.9682510001585,323.9682510001585,323.9682510001585,326.97370110009797,326.97370110009797,,,327.95697370008565,1,1,1.0621486001182348,0.20188459986820817,None,327.9570442000404,327.9570659000892,None,327.95708930003457,327.95710620004684,None,,,,,,,,,,,6,3,0,1,2025-03-10_11h37.26.052,rtmindeye,2024.2.4,59.945066369512546,2025-03-10 11h38.02.713554 -0400,
all_stimuli/MST_pairs1/pair_14_18_22.png,58,0,58,58,0,,,,1,0,0,3,1,"[9, 21, 31, 45, 56, 68, 69]",2,1,0.8067834000103176,0.1910246000625193,None,None,None,,,,,,,,,,,0,0,0,0,0,58,58,58,327.97361420001835,,,,,,,,,,,,,,,,,,,,,,327.95725990016945,327.957304000156,327.96784689999186,327.97361420001835,327.97361420001835,327.97361420001835,327.97361420001835,330.973698399961,330.973698399961,331.97324630012736,331.97324630012736,331.95695969997905,2,1,0.8067834000103176,0.1910246000625193,None,331.95702390000224,331.9570440000389,None,331.9570671999827,331.957084099995,None,,,,,,,,,,,6,3,0,1,2025-03-10_11h37.26.052,rtmindeye,2024.2.4,59.945066369512546,2025-03-10 11h38.02.713554 -0400,
all_stimuli/shared1000_notspecial/notspecial_63081.png,59,0,59,59,0,,,,0,0,0,3,1,"[9, 21, 31, 45, 56, 68, 69]",1,1,0.7760486002080142,0.24790199985727668,None,None,None,,,,,,,,,,,0,0,0,0,0,59,59,59,331.97324630012736,,,,,,,,,,,,,,,,,,,,,,331.9572318000719,331.95726990001276,331.96897340007126,331.97324630012736,331.97324630012736,331.97324630012736,331.97324630012736,334.9733600001782,334.9733600001782,335.97384580015205,335.97384580015205,335.9567723001819,1,1,0.7760486002080142,0.24790199985727668,None,335.9568356999662,335.95685590012,None,335.95687930006534,335.9568964999635,None,,,,,,,,,,,6,3,0,1,2025-03-10_11h37.26.052,rtmindeye,2024.2.4,59.945066369512546,2025-03-10 11h38.02.713554 -0400,
all_stimuli/MST_pairs1/pair_42_w_icerink2.jpg,60,0,60,60,0,,,,0,0,0,3,1,"[9, 21, 31, 45, 56, 68, 69]",1,1,0.9172806001733989,0.21596649987623096,None,None,None,,,,,,,,,,,0,0,0,0,0,60,60,60,335.97384580015205,,,,,,,,,,,,,,,,,,,,,,335.95704230014235,335.95708080008626,335.9661960999947,335.97384580015205,335.97384580015205,335.97384580015205,335.97384580015205,338.9737448000815,338.9737448000815,339.9736821001861,339.9736821001861,339.9570010001771,1,1,0.9172806001733989,0.21596649987623096,None,339.9570643999614,339.9570844001137,None,339.95710820006207,339.95712500019,None,,,,,,,,,,,6,3,0,1,2025-03-10_11h37.26.052,rtmindeye,2024.2.4,59.945066369512546,2025-03-10 11h38.02.713554 -0400,
all_stimuli/MST_pairs1/pair_46_w_pool1.jpg,61,0,61,61,0,,,,0,0,0,3,1,"[9, 21, 31, 45, 56, 68, 69]",2,0,1.433400999987498,0.21697880001738667,None,None,None,,,,,,,,,,,0,0,0,0,0,61,61,61,339.9736821001861,,,,,,,,,,,,,,,,,,,,,,339.95727360015735,339.95731440000236,339.96522500016727,339.9736821001861,339.9736821001861,339.9736821001861,339.9736821001861,342.9736655000597,342.9736655000597,343.9738570000045,343.9738570000045,343.9569879001938,2,0,1.433400999987498,0.21697880001738667,None,343.95705670001917,343.9570781001821,None,343.9571042000316,343.9571218001656,None,,,,,,,,,,,6,3,0,1,2025-03-10_11h37.26.052,rtmindeye,2024.2.4,59.945066369512546,2025-03-10 11h38.02.713554 -0400,
all_stimuli/special515/special_40840.jpg,62,0,62,62,0,,,,0,0,0,3,1,"[9, 21, 31, 45, 56, 68, 69]",2,0,1.5764510000590235,0.17578119994141161,None,None,None,,,,,,,,,,,0,0,0,0,0,62,62,62,343.9738570000045,,,,,,,,,,,,,,,,,,,,,,343.95728290011175,343.95732330018654,343.9669009000063,343.9738570000045,343.9738570000045,343.9738570000045,343.9738570000045,346.9735346001107,346.9735346001107,347.98608100018464,347.98608100018464,347.9568442001473,2,0,1.5764510000590235,0.17578119994141161,None,347.9569090001751,347.95692969998345,None,347.95695380005054,347.9569710001815,None,,,,,,,,,,,6,3,0,1,2025-03-10_11h37.26.052,rtmindeye,2024.2.4,59.945066369512546,2025-03-10 11h38.02.713554 -0400,
all_stimuli/special515/special_29837.jpg,63,0,63,63,0,,,,0,0,0,3,1,"[9, 21, 31, 45, 56, 68, 69]",1,1,1.2080936999991536,0.19900169991888106,None,None,None,,,,,,,,,,,0,0,0,0,0,63,63,63,347.98608100018464,,,,,,,,,,,,,,,,,,,,,,347.9571172001306,347.95715950010344,347.9843856000807,347.98608100018464,347.98608100018464,347.98608100018464,347.98608100018464,350.9900856001768,350.9900856001768,,,351.9735668001231,1,1,1.2080936999991536,0.19900169991888106,None,351.97363600018434,351.97365640010685,None,351.9736792000476,351.9736963000614,None,,,,,,,,,,,6,3,0,1,2025-03-10_11h37.26.052,rtmindeye,2024.2.4,59.945066369512546,2025-03-10 11h38.02.713554 -0400,
all_stimuli/shared1000_notspecial/notspecial_4768.png,64,0,64,64,0,,,,0,0,0,3,1,"[9, 21, 31, 45, 56, 68, 69]",1,1,0.6647389999125153,0.2321505001746118,None,None,None,,,,,,,,,,,0,0,0,0,0,64,64,64,351.9963152001146,,,,,,,,,,,,,,,,,,,,,,351.9738470001612,351.97389050014317,351.99470250005834,351.9963152001146,351.9963152001146,351.9963152001146,351.9963152001146,355.0065903000068,355.0065903000068,,,355.9901531001087,1,1,0.6647389999125153,0.2321505001746118,None,355.9902207001578,355.99024199997075,None,355.99026530003175,355.9902823001612,None,,,,,,,,,,,6,3,0,1,2025-03-10_11h37.26.052,rtmindeye,2024.2.4,59.945066369512546,2025-03-10 11h38.02.713554 -0400,
all_stimuli/MST_pairs1/pair_20_nsd_41_1_cocoid_15472.png,65,0,65,65,0,,,,0,0,0,3,1,"[9, 21, 31, 45, 56, 68, 69]",1,1,0.9460542998276651,0.21901720017194748,None,None,None,,,,,,,,,,,0,0,0,0,0,65,65,65,356.01412090007216,,,,,,,,,,,,,,,,,,,,,,355.9904355001636,355.9906268999912,356.01217430015095,356.01412090007216,356.01412090007216,356.01412090007216,356.01412090007216,359.0234782001935,359.0234782001935,,,360.0069155001547,1,1,0.9460542998276651,0.21901720017194748,None,360.0069854001049,360.00700780004263,None,360.0070319001097,360.007048800122,None,,,,,,,,,,,6,3,0,1,2025-03-10_11h37.26.052,rtmindeye,2024.2.4,59.945066369512546,2025-03-10 11h38.02.713554 -0400,
all_stimuli/shared1000_notspecial/notspecial_53157.png,66,0,66,66,0,,,,0,0,0,3,1,"[9, 21, 31, 45, 56, 68, 69]",1,1,0.8940975998993963,0.20108320005238056,None,None,None,,,,,,,,,,,0,0,0,0,0,66,66,66,360.02311870013364,,,,,,,,,,,,,,,,,,,,,,360.0072017000057,360.00724550010636,360.02037330018356,360.02311870013364,360.02311870013364,360.02311870013364,360.02311870013364,363.0233995001763,363.0233995001763,364.0235087000765,364.0235087000765,364.0067112001125,1,1,0.8940975998993963,0.20108320005238056,None,364.00677550002,364.00679560005665,None,364.00681970012374,364.0068372001406,None,,,,,,,,,,,6,3,0,1,2025-03-10_11h37.26.052,rtmindeye,2024.2.4,59.945066369512546,2025-03-10 11h38.02.713554 -0400,
all_stimuli/special515/special_38641.jpg,67,0,67,67,0,,,,1,0,0,3,1,"[9, 21, 31, 45, 56, 68, 69]",2,1,0.9505803000647575,0.2680496000684798,None,None,None,,,,,,,,,,,0,0,0,0,0,67,67,67,364.0235087000765,,,,,,,,,,,,,,,,,,,,,,364.0069838000927,364.0070223000366,364.01479490008205,364.0235087000765,364.0235087000765,364.0235087000765,364.0235087000765,367.02354970015585,367.02354970015585,368.02338670007885,368.02338670007885,368.0068787999917,2,1,0.9505803000647575,0.2680496000684798,None,368.00694390013814,368.00696450006217,None,368.0069882001262,368.0070056000259,None,,,,,,,,,,,6,3,0,1,2025-03-10_11h37.26.052,rtmindeye,2024.2.4,59.945066369512546,2025-03-10 11h38.02.713554 -0400,
blank.jpg,68,1,68,68,0,,,,0,0,0,3,1,"[9, 21, 31, 45, 56, 68, 69]",2,0,0.8259416001383215,0.2050384997855872,None,None,None,,,,,,,,,,,0,0,0,0,0,68,68,68,368.02338670007885,,,,,,,,,,,,,,,,,,,,,,368.00715520000085,368.0071939001791,368.0134062001016,368.02338670007885,368.02338670007885,368.02338670007885,368.02338670007885,371.02348259999417,371.02348259999417,372.02360510011204,372.02360510011204,372.0068126001861,2,0,0.8259416001383215,0.2050384997855872,None,372.00687550008297,372.006896100007,None,372.0069197001867,372.00693679996766,None,,,,,,,,,,,6,3,0,1,2025-03-10_11h37.26.052,rtmindeye,2024.2.4,59.945066369512546,2025-03-10 11h38.02.713554 -0400,
blank.jpg,69,1,69,69,0,,,,0,1,0,3,0,"[9, 21, 31, 45, 56, 68, 69]",2,0,0.6425778002012521,0.199000199791044,None,1,equal,32.92672370001674,None,25.06189510016702,None,,,,,,,0,0,0,0,0,69,69,69,372.02360510011204,,,,,,,,,,,,,,,,,,,,,,372.0070811000187,372.0071233001072,372.0122742000967,372.02360510011204,372.02360510011204,372.02360510011204,372.02360510011204,375.02351760002784,375.02351760002784,376.023484100122,376.023484100122,376.0069151001517,2,0,0.6425778002012521,0.199000199791044,None,376.0138018000871,408.95693450002,1,408.95699229999445,434.03989910008386,equal,376.023484100122,376.023484100122,32.92672370001674,None,408.97342579998076,408.97342579998076,25.06189510016702,None,,,6,3,0,1,2025-03-10_11h37.26.052,rtmindeye,2024.2.4,59.945066369512546,2025-03-10 11h38.02.713554 -0400,
,,,0,0,0,,,,,,,,,,,,,,,,,,,,,,,,,,,0,0,0,0,,,,,,,,,,,,,,,,,,,,,,,,,,,,,,,,,,,,,,,,,,,,,,,,,,,,,,,,,,,,6,3,0,1,2025-03-10_11h37.26.052,rtmindeye,2024.2.4,59.945066369512546,2025-03-10 11h38.02.713554 -0400,
all_stimuli/special515/special_71450.jpg,0,0,0,0,0,,,,0,0,1,3,1,"[9, 21, 31, 45, 56, 68, 69]",1,1,0.9344140999019146,0.1932037000078708,None,None,None,,,,,,,,,,,1,0,1,0,0,0,0,0,434.1036847999785,,,,,,,,,,,,,,,,,,,,,,434.07278140005656,434.072882700013,434.0994365999941,434.1036847999785,434.1036847999785,434.1036847999785,434.1036847999785,437.1068476000801,437.1068476000801,,,438.07355320011266,1,1,0.9344140999019146,0.1932037000078708,None,438.07362590008415,438.073649500031,None,438.07367580011487,438.0736939001363,None,,,,,,,,,,,6,3,0,1,2025-03-10_11h37.26.052,rtmindeye,2024.2.4,59.945066369512546,2025-03-10 11h38.02.713554 -0400,
all_stimuli/special515/special_38246.jpg,1,0,1,1,0,,,,0,0,1,3,1,"[9, 21, 31, 45, 56, 68, 69]",1,1,0.784082300029695,0.2008753998670727,None,None,None,,,,,,,,,,,1,0,1,0,0,1,1,1,438.0900407000445,,,,,,,,,,,,,,,,,,,,,,438.07385180005804,438.07389840018004,438.0837691000197,438.0900407000445,438.0900407000445,438.0900407000445,438.0900407000445,441.0900606000796,441.0900606000796,442.10196400014684,442.10196400014684,442.0736259999685,1,1,0.784082300029695,0.2008753998670727,None,442.07369190012105,442.07371210004203,None,442.07373560010456,442.0737525001168,None,,,,,,,,,,,6,3,0,1,2025-03-10_11h37.26.052,rtmindeye,2024.2.4,59.945066369512546,2025-03-10 11h38.02.713554 -0400,
all_stimuli/special515/special_10046.jpg,2,0,2,2,0,,,,0,0,1,3,1,"[9, 21, 31, 45, 56, 68, 69]",1,1,0.7961246999911964,0.1880565001629293,None,None,None,,,,,,,,,,,1,0,1,0,0,2,2,2,442.10196400014684,,,,,,,,,,,,,,,,,,,,,,442.0738988001831,442.073947600089,442.1001124000177,442.10196400014684,442.10196400014684,442.10196400014684,442.10196400014684,445.1066768001765,445.1066768001765,,,446.08997980016284,1,1,0.7961246999911964,0.1880565001629293,None,446.0900493999943,446.09007060015574,None,446.09009409998544,446.09011170011945,None,,,,,,,,,,,6,3,0,1,2025-03-10_11h37.26.052,rtmindeye,2024.2.4,59.945066369512546,2025-03-10 11h38.02.713554 -0400,
all_stimuli/MST_pairs1/pair_38_w_arch2.jpg,3,0,3,3,0,,,,0,0,1,3,1,"[9, 21, 31, 45, 56, 68, 69]",1,1,0.758459699805826,0.2061056001111865,None,None,None,,,,,,,,,,,1,0,1,0,0,3,3,3,446.10668640001677,,,,,,,,,,,,,,,,,,,,,,446.0902615999803,446.090305400081,446.099405300105,446.10668640001677,446.10668640001677,446.10668640001677,446.10668640001677,449.1063717000652,449.1063717000652,450.1067751001101,450.1067751001101,450.08983670012094,1,1,0.758459699805826,0.2061056001111865,None,450.0899061001837,450.0899275999982,None,450.08995180018246,450.08996860007755,None,,,,,,,,,,,6,3,0,1,2025-03-10_11h37.26.052,rtmindeye,2024.2.4,59.945066369512546,2025-03-10 11h38.02.713554 -0400,
all_stimuli/special515/special_30395.jpg,4,0,4,4,0,,,,0,0,1,3,1,"[9, 21, 31, 45, 56, 68, 69]",1,1,0.6313348000403494,0.19801559997722507,None,None,None,,,,,,,,,,,1,0,1,0,0,4,4,4,450.1067751001101,,,,,,,,,,,,,,,,,,,,,,450.09012670000084,450.0901660001837,450.098132800078,450.1067751001101,450.1067751001101,450.1067751001101,450.1067751001101,453.106735000154,453.106735000154,454.1069806001615,454.1069806001615,454.0900233001448,1,1,0.6313348000403494,0.19801559997722507,None,454.0900880000554,454.090107700089,None,454.09013110003434,454.0901480000466,None,,,,,,,,,,,6,3,0,1,2025-03-10_11h37.26.052,rtmindeye,2024.2.4,59.945066369512546,2025-03-10 11h38.02.713554 -0400,
all_stimuli/special515/special_38494.jpg,5,0,5,5,0,,,,1,0,1,3,1,"[9, 21, 31, 45, 56, 68, 69]",2,1,1.0781480998266488,0.4290369001682848,None,None,None,,,,,,,,,,,1,0,1,0,0,5,5,5,454.1069806001615,,,,,,,,,,,,,,,,,,,,,,454.0902939001098,454.09033270017244,454.0984096999746,454.1069806001615,454.1069806001615,454.1069806001615,454.1069806001615,457.1062415000051,457.1062415000051,458.1076667001471,458.1076667001471,458.0899688000791,2,1,1.0781480998266488,0.4290369001682848,None,458.09003269998357,458.0900526000187,None,458.0900765999686,458.09009329997934,None,,,,,,,,,,,6,3,0,1,2025-03-10_11h37.26.052,rtmindeye,2024.2.4,59.945066369512546,2025-03-10 11h38.02.713554 -0400,
all_stimuli/MST_pairs1/pair_28_nsd_547_1_cocoid_60932.png,6,0,6,6,0,,,,1,0,1,3,1,"[9, 21, 31, 45, 56, 68, 69]",2,1,0.767402800032869,0.19997129985131323,None,None,None,,,,,,,,,,,1,0,1,0,0,6,6,6,458.1076667001471,,,,,,,,,,,,,,,,,,,,,,458.09023930015974,458.0902772000991,458.1058082000818,458.1076667001471,458.1076667001471,458.1076667001471,458.1076667001471,461.10668520000763,461.10668520000763,,,462.10668390011415,2,1,0.767402800032869,0.19997129985131323,None,462.1067556999624,462.10677780001424,None,462.1068015000783,462.106819299981,None,,,,,,,,,,,6,3,0,1,2025-03-10_11h37.26.052,rtmindeye,2024.2.4,59.945066369512546,2025-03-10 11h38.02.713554 -0400,
all_stimuli/special515/special_61133.jpg,7,0,7,7,0,,,,0,0,1,3,1,"[9, 21, 31, 45, 56, 68, 69]",1,1,0.9327328000217676,0.17414049990475178,None,None,None,,,,,,,,,,,1,0,1,0,0,7,7,7,462.1233517001383,,,,,,,,,,,,,,,,,,,,,,462.10697730001993,462.10702130012214,462.11709269997664,462.1233517001383,462.1233517001383,462.1233517001383,462.1233517001383,465.1234850001056,465.1234850001056,466.1229849001393,466.1229849001393,466.10675669997,1,1,0.9327328000217676,0.17414049990475178,None,466.1068214001134,466.1068419001531,None,466.1068655999843,466.1068824999966,None,,,,,,,,,,,6,3,0,1,2025-03-10_11h37.26.052,rtmindeye,2024.2.4,59.945066369512546,2025-03-10 11h38.02.713554 -0400,
all_stimuli/shared1000_notspecial/notspecial_16635.png,8,0,8,8,0,,,,0,0,1,3,1,"[9, 21, 31, 45, 56, 68, 69]",1,1,1.0102213001810014,0.20402579987421632,None,None,None,,,,,,,,,,,1,0,1,0,0,8,8,8,466.1229849001393,,,,,,,,,,,,,,,,,,,,,,466.1070295001846,466.1070680001285,466.118528699968,466.1229849001393,466.1229849001393,466.1229849001393,466.1229849001393,469.1234309000429,469.1234309000429,470.12351560010575,470.12351560010575,470.1067515001632,1,1,1.0102213001810014,0.20402579987421632,None,470.10681640007533,470.10683710011654,None,470.1068615000695,470.10687840008177,None,,,,,,,,,,,6,3,0,1,2025-03-10_11h37.26.052,rtmindeye,2024.2.4,59.945066369512546,2025-03-10 11h38.02.713554 -0400,
blank.jpg,9,1,9,9,0,,,,0,0,1,3,1,"[9, 21, 31, 45, 56, 68, 69]",2,0,0.6865978999994695,0.181964399991557,None,None,None,,,,,,,,,,,1,0,1,0,0,9,9,9,470.12351560010575,,,,,,,,,,,,,,,,,,,,,,470.10703160008416,470.1070708001498,470.1142407001462,470.12351560010575,470.12351560010575,470.12351560010575,470.12351560010575,473.1232462001499,473.1232462001499,474.1270238000434,474.1270238000434,474.1067352001555,2,0,0.6865978999994695,0.181964399991557,None,474.1067989000585,474.1068194999825,None,474.10684320004657,474.1068600001745,None,,,,,,,,,,,6,3,0,1,2025-03-10_11h37.26.052,rtmindeye,2024.2.4,59.945066369512546,2025-03-10 11h38.02.713554 -0400,
all_stimuli/MST_pairs1/pair_18_nsd_6_1_cocoid_13417.png,10,0,10,10,0,,,,0,0,1,3,1,"[9, 21, 31, 45, 56, 68, 69]",1,1,0.8810064001008868,0.17113439994864166,None,None,None,,,,,,,,,,,1,0,1,0,0,10,10,10,474.1270238000434,,,,,,,,,,,,,,,,,,,,,,474.1070089000277,474.1070477999747,474.1251234000083,474.1270238000434,474.1270238000434,474.1270238000434,474.1270238000434,477.13982470007613,477.13982470007613,,,478.12338700005785,1,1,0.8810064001008868,0.17113439994864166,None,478.12345840013586,478.12347990018316,None,478.1235032000113,478.12352050002664,None,,,,,,,,,,,6,3,0,1,2025-03-10_11h37.26.052,rtmindeye,2024.2.4,59.945066369512546,2025-03-10 11h38.02.713554 -0400,
all_stimuli/shared1000_notspecial/notspecial_21703.png,11,0,11,11,0,,,,0,0,1,3,1,"[9, 21, 31, 45, 56, 68, 69]",1,1,0.8467267998494208,0.18572610011324286,None,None,None,,,,,,,,,,,1,0,1,0,0,11,11,11,478.13958870014176,,,,,,,,,,,,,,,,,,,,,,478.12367940018885,478.1237234000582,478.13461340009235,478.13958870014176,478.13958870014176,478.13958870014176,478.13958870014176,481.13981300010346,481.13981300010346,482.14820579998195,482.14820579998195,482.1230880001094,1,1,0.8467267998494208,0.18572610011324286,None,482.12315080012195,482.12317070015706,None,482.1231937999837,482.1232108999975,None,,,,,,,,,,,6,3,0,1,2025-03-10_11h37.26.052,rtmindeye,2024.2.4,59.945066369512546,2025-03-10 11h38.02.713554 -0400,
all_stimuli/special515/special_24530.jpg,12,0,12,12,0,,,,0,0,1,3,1,"[9, 21, 31, 45, 56, 68, 69]",1,1,1.0448761000297964,0.17511720000766218,None,None,None,,,,,,,,,,,1,0,1,0,0,12,12,12,482.14820579998195,,,,,,,,,,,,,,,,,,,,,,482.1233569001779,482.12339480011724,482.1464130000677,482.14820579998195,482.14820579998195,482.14820579998195,482.14820579998195,485.1566666001454,485.1566666001454,,,486.1402022000402,1,1,1.0448761000297964,0.17511720000766218,None,486.14027120009996,486.1402926000301,None,486.14031619997695,486.14033409999683,None,,,,,,,,,,,6,3,0,1,2025-03-10_11h37.26.052,rtmindeye,2024.2.4,59.945066369512546,2025-03-10 11h38.02.713554 -0400,
all_stimuli/shared1000_notspecial/notspecial_6222.png,13,0,13,13,0,,,,0,0,1,3,1,"[9, 21, 31, 45, 56, 68, 69]",1,1,0.8848167001269758,0.16206480003893375,None,None,None,,,,,,,,,,,1,0,1,0,0,13,13,13,486.1562234000303,,,,,,,,,,,,,,,,,,,,,,486.14048600010574,486.14053279999644,486.15106040006503,486.1562234000303,486.1562234000303,486.1562234000303,486.1562234000303,489.1564397001639,489.1564397001639,490.15643070009537,490.15643070009537,490.13991030002944,1,1,0.8848167001269758,0.16206480003893375,None,490.13997500017285,490.13999589998275,None,490.14002050017007,490.14003760018386,None,,,,,,,,,,,6,3,0,1,2025-03-10_11h37.26.052,rtmindeye,2024.2.4,59.945066369512546,2025-03-10 11h38.02.713554 -0400,
all_stimuli/MST_pairs1/pair_44_w_log_cabin2.jpg,14,0,14,14,0,,,,0,0,1,3,1,"[9, 21, 31, 45, 56, 68, 69]",1,1,0.8118940000422299,0.13290710002183914,None,None,None,,,,,,,,,,,1,0,1,0,0,14,14,14,490.15643070009537,,,,,,,,,,,,,,,,,,,,,,490.1401978000067,490.1402367001865,490.1502121000085,490.15643070009537,490.15643070009537,490.15643070009537,490.15643070009537,493.1565074000973,493.1565074000973,494.1752023000736,494.1752023000736,494.13996700011194,1,1,0.8118940000422299,0.13290710002183914,None,494.1400313000195,494.14005669998005,None,494.1400804000441,494.1400980001781,None,,,,,,,,,,,6,3,0,1,2025-03-10_11h37.26.052,rtmindeye,2024.2.4,59.945066369512546,2025-03-10 11h38.02.713554 -0400,
all_stimuli/special515/special_28068.jpg,15,0,15,15,0,,,,0,0,1,3,1,"[9, 21, 31, 45, 56, 68, 69]",1,1,0.9220424999948591,0.20085850008763373,None,None,None,,,,,,,,,,,1,0,1,0,0,15,15,15,494.1752023000736,,,,,,,,,,,,,,,,,,,,,,494.14024410001,494.14028240018524,494.1731259999797,494.1752023000736,494.1752023000736,494.1752023000736,494.1752023000736,497.18982059997506,497.18982059997506,,,498.156205000123,1,1,0.9220424999948591,0.20085850008763373,None,498.15627400018275,498.1562958001159,None,498.1563191001769,498.15633640019223,None,,,,,,,,,,,6,3,0,1,2025-03-10_11h37.26.052,rtmindeye,2024.2.4,59.945066369512546,2025-03-10 11h38.02.713554 -0400,
all_stimuli/shared1000_notspecial/notspecial_60978.png,16,0,16,16,0,,,,0,0,1,3,1,"[9, 21, 31, 45, 56, 68, 69]",1,1,0.9097374000120908,0.2131367998663336,None,None,None,,,,,,,,,,,1,0,1,0,0,16,16,16,498.1793724000454,,,,,,,,,,,,,,,,,,,,,,498.1564919000957,498.1565356000792,498.17772420006804,498.1793724000454,498.1793724000454,498.1793724000454,498.1793724000454,501.189668700099,501.189668700099,,,502.15663620014675,1,1,0.9097374000120908,0.2131367998663336,None,502.15670710010454,502.1567289000377,None,502.15675240010023,502.1567703001201,None,,,,,,,,,,,6,3,0,1,2025-03-10_11h37.26.052,rtmindeye,2024.2.4,59.945066369512546,2025-03-10 11h38.02.713554 -0400,
all_stimuli/MST_pairs1/pair_2_4_22.png,17,0,17,17,0,,,,0,0,1,3,1,"[9, 21, 31, 45, 56, 68, 69]",1,1,1.166089199949056,0.2230080000590533,None,None,None,,,,,,,,,,,1,0,1,0,0,17,17,17,502.1729943000246,,,,,,,,,,,,,,,,,,,,,,502.1569400001317,502.15698460000567,502.16825170000084,502.1729943000246,502.1729943000246,502.1729943000246,502.1729943000246,505.1729727999773,505.1729727999773,506.1727571999654,506.1727571999654,506.1561686000787,1,1,1.166089199949056,0.2230080000590533,None,506.15623329998925,506.15625380002894,None,506.15627730009146,506.15629409998655,None,,,,,,,,,,,6,3,0,1,2025-03-10_11h37.26.052,rtmindeye,2024.2.4,59.945066369512546,2025-03-10 11h38.02.713554 -0400,
all_stimuli/shared1000_notspecial/notspecial_46160.png,18,0,18,18,0,,,,0,0,1,3,1,"[9, 21, 31, 45, 56, 68, 69]",1,1,1.1363617999013513,0.1910341999027878,None,None,None,,,,,,,,,,,1,0,1,0,0,18,18,18,506.1727571999654,,,,,,,,,,,,,,,,,,,,,,506.15644260006957,506.15648120013066,506.16788269998506,506.1727571999654,506.1727571999654,506.1727571999654,506.1727571999654,509.17315430007875,509.17315430007875,510.1734970000107,510.1734970000107,510.15656680008397,1,1,1.1363617999013513,0.1910341999027878,None,510.15663260011934,510.15665350016207,None,510.15667779999785,510.1566953000147,None,,,,,,,,,,,6,3,0,1,2025-03-10_11h37.26.052,rtmindeye,2024.2.4,59.945066369512546,2025-03-10 11h38.02.713554 -0400,
all_stimuli/special515/special_64880.jpg,19,0,19,19,0,,,,0,0,1,3,1,"[9, 21, 31, 45, 56, 68, 69]",1,1,0.892675600014627,0.23002230003476143,None,None,None,,,,,,,,,,,1,0,1,0,0,19,19,19,510.1734970000107,,,,,,,,,,,,,,,,,,,,,,510.1568526001647,510.1568917001132,510.16522460011765,510.1734970000107,510.1734970000107,510.1734970000107,510.1734970000107,513.1730919000693,513.1730919000693,514.1788777001202,514.1788777001202,514.1566040001344,1,1,0.892675600014627,0.23002230003476143,None,514.1566699000541,514.1566908000968,None,514.156715300167,514.1567326001823,None,,,,,,,,,,,6,3,0,1,2025-03-10_11h37.26.052,rtmindeye,2024.2.4,59.945066369512546,2025-03-10 11h38.02.713554 -0400,
all_stimuli/MST_pairs1/pair_36_nsd_949_1_cocoid_43196.png,20,0,20,20,0,,,,0,0,1,3,1,"[9, 21, 31, 45, 56, 68, 69]",1,1,0.9553348999470472,0.2519010999239981,None,None,None,,,,,,,,,,,1,0,1,0,0,20,20,20,514.1788777001202,,,,,,,,,,,,,,,,,,,,,,514.1568887000903,514.156927900156,514.1768820001744,514.1788777001202,514.1788777001202,514.1788777001202,514.1788777001202,517.1898831999861,517.1898831999861,,,518.1731426999904,1,1,0.9553348999470472,0.2519010999239981,None,518.1732130001765,518.1732342999894,None,518.1732583001722,518.1732759000733,None,,,,,,,,,,,6,3,0,1,2025-03-10_11h37.26.052,rtmindeye,2024.2.4,59.945066369512546,2025-03-10 11h38.02.713554 -0400,
blank.jpg,21,1,21,21,0,,,,0,0,1,3,1,"[9, 21, 31, 45, 56, 68, 69]",2,0,0.773267799988389,0.20491129998117685,None,None,None,,,,,,,,,,,1,0,1,0,0,21,21,21,518.1900363001041,,,,,,,,,,,,,,,,,,,,,,518.1734275000636,518.1734715001658,518.1807701999787,518.1900363001041,518.1900363001041,518.1900363001041,518.1900363001041,521.1894639001694,521.1894639001694,522.1901718999725,522.1901718999725,522.1732308000792,2,0,0.773267799988389,0.20491129998117685,None,522.1732938999776,522.173314700136,None,522.1733395999763,522.1733574999962,None,,,,,,,,,,,6,3,0,1,2025-03-10_11h37.26.052,rtmindeye,2024.2.4,59.945066369512546,2025-03-10 11h38.02.713554 -0400,
all_stimuli/special515/special_30632.jpg,22,0,22,22,0,,,,1,0,1,3,1,"[9, 21, 31, 45, 56, 68, 69]",1,0,1.0900193999987096,0.17888909997418523,None,None,None,,,,,,,,,,,1,0,1,0,0,22,22,22,522.1901718999725,,,,,,,,,,,,,,,,,,,,,,522.1735072999727,522.1735473000444,522.1822246999945,522.1901718999725,522.1901718999725,522.1901718999725,522.1901718999725,525.1896736000199,525.1896736000199,526.1910421999637,526.1910421999637,526.173252100125,1,0,1.0900193999987096,0.17888909997418523,None,526.1733210000675,526.1733415001072,None,526.173364700051,526.1733816000633,None,,,,,,,,,,,6,3,0,1,2025-03-10_11h37.26.052,rtmindeye,2024.2.4,59.945066369512546,2025-03-10 11h38.02.713554 -0400,
all_stimuli/MST_pairs1/pair_20_nsd_41_2_cocoid_63715.png,23,0,23,23,0,,,,1,0,1,3,1,"[9, 21, 31, 45, 56, 68, 69]",1,0,1.273966500069946,0.1759955999441445,None,None,None,,,,,,,,,,,1,0,1,0,0,23,23,23,526.1910421999637,,,,,,,,,,,,,,,,,,,,,,526.1735325001646,526.1735714999959,526.1892391999718,526.1910421999637,526.1910421999637,526.1910421999637,526.1910421999637,529.2065528000239,529.2065528000239,,,530.1896814000793,1,0,1.273966500069946,0.1759955999441445,None,530.1897526001558,530.1897742000874,None,530.1897989001591,530.1898161000572,None,,,,,,,,,,,6,3,0,1,2025-03-10_11h37.26.052,rtmindeye,2024.2.4,59.945066369512546,2025-03-10 11h38.02.713554 -0400,
all_stimuli/MST_pairs1/pair_22_nsd_115_2_cocoid_65194.png,24,0,24,24,0,,,,0,0,1,3,1,"[9, 21, 31, 45, 56, 68, 69]",1,1,0.9343193999957293,0.19899340020492673,None,None,None,,,,,,,,,,,1,0,1,0,0,24,24,24,530.2097614000086,,,,,,,,,,,,,,,,,,,,,,530.1899690001737,530.1900129001588,530.2079132001381,530.2097614000086,530.2097614000086,530.2097614000086,530.2097614000086,533.2229317000601,533.2229317000601,,,534.2064877999946,1,1,0.9343193999957293,0.19899340020492673,None,534.2065583001822,534.2065806000028,None,534.2066045000684,534.206621899968,None,,,,,,,,,,,6,3,0,1,2025-03-10_11h37.26.052,rtmindeye,2024.2.4,59.945066369512546,2025-03-10 11h38.02.713554 -0400,
all_stimuli/shared1000_notspecial/notspecial_26292.png,25,0,25,25,0,,,,0,0,1,3,1,"[9, 21, 31, 45, 56, 68, 69]",1,1,0.9881337000988424,0.2431595998350531,None,None,None,,,,,,,,,,,1,0,1,0,0,25,25,25,534.2229111001361,,,,,,,,,,,,,,,,,,,,,,534.2067808001302,534.2068247001152,534.2172101000324,534.2229111001361,534.2229111001361,534.2229111001361,534.2229111001361,537.2230069001671,537.2230069001671,538.2234432999976,538.2234432999976,538.2063981001265,1,1,0.9881337000988424,0.2431595998350531,None,538.2064678000752,538.2064888000023,None,538.2065125000663,538.2065292999614,None,,,,,,,,,,,6,3,0,1,2025-03-10_11h37.26.052,rtmindeye,2024.2.4,59.945066369512546,2025-03-10 11h38.02.713554 -0400,
all_stimuli/special515/special_6489.jpg,26,0,26,26,0,,,,1,0,1,3,1,"[9, 21, 31, 45, 56, 68, 69]",2,1,1.354657599935308,0.18807230005040765,None,None,None,,,,,,,,,,,1,0,1,0,0,26,26,26,538.2234432999976,,,,,,,,,,,,,,,,,,,,,,538.206682600081,538.2067224001512,538.2151305000298,538.2234432999976,538.2234432999976,538.2234432999976,538.2234432999976,541.2231472001877,541.2231472001877,542.2320189001039,542.2320189001039,542.2064031001646,2,1,1.354657599935308,0.18807230005040765,None,542.2064698000904,542.2064928000327,None,542.2065173001029,542.2065346001182,None,,,,,,,,,,,6,3,0,1,2025-03-10_11h37.26.052,rtmindeye,2024.2.4,59.945066369512546,2025-03-10 11h38.02.713554 -0400,
all_stimuli/special515/special_55678.jpg,27,0,27,27,0,,,,0,0,1,3,1,"[9, 21, 31, 45, 56, 68, 69]",1,1,0.8430504000280052,0.1870928001590073,None,None,None,,,,,,,,,,,1,0,1,0,0,27,27,27,542.2320189001039,,,,,,,,,,,,,,,,,,,,,,542.2066826999653,542.2067220001481,542.2303153001703,542.2320189001039,542.2320189001039,542.2320189001039,542.2320189001039,545.2394143000711,545.2394143000711,,,546.2231171000749,1,1,0.8430504000280052,0.1870928001590073,None,546.2231856000144,546.2232062001713,None,546.223229000112,546.2232463001274,None,,,,,,,,,,,6,3,0,1,2025-03-10_11h37.26.052,rtmindeye,2024.2.4,59.945066369512546,2025-03-10 11h38.02.713554 -0400,
all_stimuli/special515/special_40909.jpg,28,0,28,28,0,,,,0,0,1,3,1,"[9, 21, 31, 45, 56, 68, 69]",2,0,0.8536300999112427,0.18800959992222488,None,None,None,,,,,,,,,,,1,0,1,0,0,28,28,28,546.2394604000729,,,,,,,,,,,,,,,,,,,,,,546.2233993001282,546.2234434999991,546.2342944999691,546.2394604000729,546.2394604000729,546.2394604000729,546.2394604000729,549.239678800106,549.239678800106,550.2745819000993,550.2745819000993,550.223234700039,2,0,0.8536300999112427,0.18800959992222488,None,550.223301100079,550.2233220001217,None,550.2233459001873,550.2233627000824,None,,,,,,,,,,,6,3,0,1,2025-03-10_11h37.26.052,rtmindeye,2024.2.4,59.945066369512546,2025-03-10 11h38.02.713554 -0400,
all_stimuli/special515/special_70360.jpg,29,0,29,29,0,,,,0,0,1,3,1,"[9, 21, 31, 45, 56, 68, 69]",2,0,0.8145349998958409,0.18684370000846684,None,None,None,,,,,,,,,,,1,0,1,0,0,29,29,29,550.2745819000993,,,,,,,,,,,,,,,,,,,,,,550.2235257001594,550.223566000117,550.2727260000538,550.2745819000993,550.2745819000993,550.2745819000993,550.2745819000993,553.2896837000735,553.2896837000735,,,554.2396182999946,2,0,0.8145349998958409,0.18684370000846684,None,554.2396881000604,554.2397090001032,None,554.2397336000577,554.2397514001932,None,,,,,,,,,,,6,3,0,1,2025-03-10_11h37.26.052,rtmindeye,2024.2.4,59.945066369512546,2025-03-10 11h38.02.713554 -0400,
all_stimuli/MST_pairs1/pair_42_w_icerink1.jpg,30,0,30,30,0,,,,0,0,1,3,1,"[9, 21, 31, 45, 56, 68, 69]",2,0,0.9927606000564992,0.19902669987641275,None,None,None,,,,,,,,,,,1,0,1,0,0,30,30,30,554.2564910000656,,,,,,,,,,,,,,,,,,,,,,554.2399057000875,554.2399502000771,554.2489513000473,554.2564910000656,554.2564910000656,554.2564910000656,554.2564910000656,557.2561828000471,557.2561828000471,558.2562994000036,558.2562994000036,558.2397364999633,2,0,0.9927606000564992,0.19902669987641275,None,558.2398006999865,558.2398215001449,None,558.2398457999807,558.2398628001101,None,,,,,,,,,,,6,3,0,1,2025-03-10_11h37.26.052,rtmindeye,2024.2.4,59.945066369512546,2025-03-10 11h38.02.713554 -0400,
blank.jpg,31,1,31,31,0,,,,0,0,1,3,1,"[9, 21, 31, 45, 56, 68, 69]",2,0,0.6989782999735326,0.1948504000902176,None,None,None,,,,,,,,,,,1,0,1,0,0,31,31,31,558.2562994000036,,,,,,,,,,,,,,,,,,,,,,558.2400142999832,558.2400524001569,558.2470886001829,558.2562994000036,558.2562994000036,558.2562994000036,558.2562994000036,561.256686600158,561.256686600158,562.2563299001195,562.2563299001195,562.2396911000833,2,0,0.6989782999735326,0.1948504000902176,None,562.2397545999847,562.2397744001355,None,562.2397973001935,562.2398143999744,None,,,,,,,,,,,6,3,0,1,2025-03-10_11h37.26.052,rtmindeye,2024.2.4,59.945066369512546,2025-03-10 11h38.02.713554 -0400,
all_stimuli/special515/special_30430.jpg,32,0,32,32,0,,,,1,0,1,3,1,"[9, 21, 31, 45, 56, 68, 69]",2,1,1.1818723001051694,0.1950096997898072,None,None,None,,,,,,,,,,,1,0,1,0,0,32,32,32,562.2563299001195,,,,,,,,,,,,,,,,,,,,,,562.2399663000833,562.2400045001414,562.2480223001912,562.2563299001195,562.2563299001195,562.2563299001195,562.2563299001195,565.2562711001374,565.2562711001374,566.2706170000602,566.2706170000602,566.2397117000073,2,1,1.1818723001051694,0.1950096997898072,None,566.2397765000351,566.2397974000778,None,566.2398217001464,566.239838700043,None,,,,,,,,,,,6,3,0,1,2025-03-10_11h37.26.052,rtmindeye,2024.2.4,59.945066369512546,2025-03-10 11h38.02.713554 -0400,
all_stimuli/shared1000_notspecial/notspecial_43746.png,33,0,33,33,0,,,,0,0,1,3,1,"[9, 21, 31, 45, 56, 68, 69]",1,1,1.4863203999120742,0.18826829991303384,None,None,None,,,,,,,,,,,1,0,1,0,0,33,33,33,566.2706170000602,,,,,,,,,,,,,,,,,,,,,,566.2399946001824,566.2400332000107,566.2689698000904,566.2706170000602,566.2706170000602,566.2706170000602,566.2706170000602,569.2731135999784,569.2731135999784,,,570.2564826000016,1,1,1.4863203999120742,0.18826829991303384,None,570.2565554999746,570.256577400025,None,570.2566023000982,570.2566201000009,None,,,,,,,,,,,6,3,0,1,2025-03-10_11h37.26.052,rtmindeye,2024.2.4,59.945066369512546,2025-03-10 11h38.02.713554 -0400,
all_stimuli/MST_pairs1/pair_34_nsd_875_1_cocoid_67762.png,34,0,34,34,0,,,,0,0,1,3,1,"[9, 21, 31, 45, 56, 68, 69]",1,1,1.5430594000499696,0.21204869984649122,None,None,None,,,,,,,,,,,1,0,1,0,0,34,34,34,570.3000147000421,,,,,,,,,,,,,,,,,,,,,,570.2567883001175,570.256833499996,570.298062399961,570.3000147000421,570.3000147000421,570.3000147000421,570.3000147000421,573.3060065000318,573.3060065000318,,,574.2729772999883,1,1,1.5430594000499696,0.21204869984649122,None,574.273045900045,574.2730672999751,None,574.273090200033,574.273107400164,None,,,,,,,,,,,6,3,0,1,2025-03-10_11h37.26.052,rtmindeye,2024.2.4,59.945066369512546,2025-03-10 11h38.02.713554 -0400,
all_stimuli/MST_pairs1/pair_12_16_78.png,35,0,35,35,0,,,,1,0,1,3,1,"[9, 21, 31, 45, 56, 68, 69]",2,1,0.9145464999601245,0.2127922000363469,None,None,None,,,,,,,,,,,1,0,1,0,0,35,35,35,574.2896502001677,,,,,,,,,,,,,,,,,,,,,,574.2732592001557,574.2733032000251,574.2836500999983,574.2896502001677,574.2896502001677,574.2896502001677,574.2896502001677,577.2894258999731,577.2894258999731,578.2896271001082,578.2896271001082,578.2733077001758,2,1,0.9145464999601245,0.2127922000363469,None,578.2733718999662,578.273392500123,None,578.2734166001901,578.2734439000487,None,,,,,,,,,,,6,3,0,1,2025-03-10_11h37.26.052,rtmindeye,2024.2.4,59.945066369512546,2025-03-10 11h38.02.713554 -0400,
all_stimuli/special515/special_4249.jpg,36,0,36,36,0,,,,1,0,1,3,1,"[9, 21, 31, 45, 56, 68, 69]",2,1,0.9104858001228422,0.20103810005821288,None,None,None,,,,,,,,,,,1,0,1,0,0,36,36,36,578.2896271001082,,,,,,,,,,,,,,,,,,,,,,578.2735925000161,578.2736416000407,578.2825993001461,578.2896271001082,578.2896271001082,578.2896271001082,578.2896271001082,581.2898028001655,581.2898028001655,582.2899335999973,582.2899335999973,582.2730231001042,2,1,0.9104858001228422,0.20103810005821288,None,582.2730904000346,582.2731108001899,None,582.2731348001398,582.2731523001567,None,,,,,,,,,,,6,3,0,1,2025-03-10_11h37.26.052,rtmindeye,2024.2.4,59.945066369512546,2025-03-10 11h38.02.713554 -0400,
all_stimuli/MST_pairs1/pair_42_w_icerink2.jpg,37,0,37,37,0,,,,1,0,1,3,1,"[9, 21, 31, 45, 56, 68, 69]",2,1,0.7641505000647157,0.19810779998078942,None,None,None,,,,,,,,,,,1,0,1,0,0,37,37,37,582.2899335999973,,,,,,,,,,,,,,,,,,,,,,582.2733049001545,582.2733538001776,582.2806786000729,582.2899335999973,582.2899335999973,582.2899335999973,582.2899335999973,585.2896842001937,585.2896842001937,586.2898163001519,586.2898163001519,586.2729267000686,2,1,0.7641505000647157,0.19810779998078942,None,586.2729911000933,586.2730114001315,None,586.273035600083,586.2730527999811,None,,,,,,,,,,,6,3,0,1,2025-03-10_11h37.26.052,rtmindeye,2024.2.4,59.945066369512546,2025-03-10 11h38.02.713554 -0400,
all_stimuli/shared1000_notspecial/notspecial_70038.png,38,0,38,38,0,,,,0,0,1,3,1,"[9, 21, 31, 45, 56, 68, 69]",1,1,1.010281499940902,0.18901109998114407,None,None,None,,,,,,,,,,,1,0,1,0,0,38,38,38,586.2898163001519,,,,,,,,,,,,,,,,,,,,,,586.2732011000626,586.2732390000019,586.2832657000981,586.2898163001519,586.2898163001519,586.2898163001519,586.2898163001519,589.289538100129,589.289538100129,590.289663700154,590.289663700154,590.2729919999838,1,1,1.010281499940902,0.18901109998114407,None,590.2730575001333,590.2730783000588,None,590.2731026001275,590.2731200000271,None,,,,,,,,,,,6,3,0,1,2025-03-10_11h37.26.052,rtmindeye,2024.2.4,59.945066369512546,2025-03-10 11h38.02.713554 -0400,
all_stimuli/special515/special_53155.jpg,39,0,39,39,0,,,,0,0,1,3,1,"[9, 21, 31, 45, 56, 68, 69]",1,1,1.0862825000658631,0.20412190002389252,None,None,None,,,,,,,,,,,1,0,1,0,0,39,39,39,590.289663700154,,,,,,,,,,,,,,,,,,,,,,590.2732711001299,590.2733096000738,590.2831392001826,590.289663700154,590.289663700154,590.289663700154,590.289663700154,593.2896716000978,593.2896716000978,594.2897661000025,594.2897661000025,594.2727747000754,1,1,1.0862825000658631,0.20412190002389252,None,594.272839799989,594.2728602001444,None,594.2728842000943,594.2729017999955,None,,,,,,,,,,,6,3,0,1,2025-03-10_11h37.26.052,rtmindeye,2024.2.4,59.945066369512546,2025-03-10 11h38.02.713554 -0400,
all_stimuli/special515/special_24530.jpg,40,0,40,40,0,,,,1,0,1,3,1,"[9, 21, 31, 45, 56, 68, 69]",2,1,0.7655157002154738,0.18873379984870553,None,None,None,,,,,,,,,,,1,0,1,0,0,40,40,40,594.2897661000025,,,,,,,,,,,,,,,,,,,,,,594.2730511999689,594.2730890000239,594.2816488000099,594.2897661000025,594.2897661000025,594.2897661000025,594.2897661000025,597.2894150000066,597.2894150000066,598.2896553000901,598.2896553000901,598.272987900069,2,1,0.7655157002154738,0.18873379984870553,None,598.2730533001013,598.273073800141,None,598.2730978000909,598.273114999989,None,,,,,,,,,,,6,3,0,1,2025-03-10_11h37.26.052,rtmindeye,2024.2.4,59.945066369512546,2025-03-10 11h38.02.713554 -0400,
all_stimuli/special515/special_32232.jpg,41,0,41,41,0,,,,0,0,1,3,1,"[9, 21, 31, 45, 56, 68, 69]",1,1,1.000335399992764,0.19216460012830794,None,None,None,,,,,,,,,,,1,0,1,0,0,41,41,41,598.2896553000901,,,,,,,,,,,,,,,,,,,,,,598.2732667000964,598.273305100156,598.2818557000719,598.2896553000901,598.2896553000901,598.2896553000901,598.2896553000901,601.2895976,601.2895976,602.2894882000983,602.2894882000983,602.273026100127,1,1,1.000335399992764,0.19216460012830794,None,602.2730934000574,602.2731133999769,None,602.273137500044,602.2731549001765,None,,,,,,,,,,,6,3,0,1,2025-03-10_11h37.26.052,rtmindeye,2024.2.4,59.945066369512546,2025-03-10 11h38.02.713554 -0400,
all_stimuli/special515/special_41814.jpg,42,0,42,42,0,,,,0,0,1,3,1,"[9, 21, 31, 45, 56, 68, 69]",1,1,1.193603799911216,0.20299170003272593,None,None,None,,,,,,,,,,,1,0,1,0,0,42,42,42,602.2894882000983,,,,,,,,,,,,,,,,,,,,,,602.2733065001667,602.273344800109,602.2825911000837,602.2894882000983,602.2894882000983,602.2894882000983,602.2894882000983,605.2893725000322,605.2893725000322,606.2924554999918,606.2924554999918,606.2729913000949,1,1,1.193603799911216,0.20299170003272593,None,606.2730575001333,606.2730777000543,None,606.2731010999996,606.2731181001291,None,,,,,,,,,,,6,3,0,1,2025-03-10_11h37.26.052,rtmindeye,2024.2.4,59.945066369512546,2025-03-10 11h38.02.713554 -0400,
all_stimuli/shared1000_notspecial/notspecial_23883.png,43,0,43,43,0,,,,0,0,1,3,1,"[9, 21, 31, 45, 56, 68, 69]",1,1,0.997492500115186,0.2251228999812156,None,None,None,,,,,,,,,,,1,0,1,0,0,43,43,43,606.2924554999918,,,,,,,,,,,,,,,,,,,,,,606.2732700000051,606.2733120000921,606.2908381000161,606.2924554999918,606.2924554999918,606.2924554999918,606.2924554999918,609.3060534000397,609.3060534000397,,,610.2897012000903,1,1,0.997492500115186,0.2251228999812156,None,610.2897731000558,610.2897944001015,None,610.2898180000484,610.2898355000652,None,,,,,,,,,,,6,3,0,1,2025-03-10_11h37.26.052,rtmindeye,2024.2.4,59.945066369512546,2025-03-10 11h38.02.713554 -0400,
all_stimuli/shared1000_notspecial/notspecial_4436.png,44,0,44,44,0,,,,0,0,1,3,1,"[9, 21, 31, 45, 56, 68, 69]",1,1,0.936051300028339,0.16921939980238676,None,None,None,,,,,,,,,,,1,0,1,0,0,44,44,44,610.3058899000753,,,,,,,,,,,,,,,,,,,,,,610.2899913000874,610.2900356000755,610.3009317000397,610.3058899000753,610.3058899000753,610.3058899000753,610.3058899000753,613.306138999993,613.306138999993,614.3060704001691,614.3060704001691,614.2895365001168,1,1,0.936051300028339,0.16921939980238676,None,614.28960070014,614.2896208001766,None,614.2896440001205,614.2896609001327,None,,,,,,,,,,,6,3,0,1,2025-03-10_11h37.26.052,rtmindeye,2024.2.4,59.945066369512546,2025-03-10 11h38.02.713554 -0400,
blank.jpg,45,1,45,45,0,,,,0,0,1,3,1,"[9, 21, 31, 45, 56, 68, 69]",2,0,0.7271738999988884,0.22367229987867177,None,None,None,,,,,,,,,,,1,0,1,0,0,45,45,45,614.3060704001691,,,,,,,,,,,,,,,,,,,,,,614.289808300091,614.289846900152,614.2970110999886,614.3060704001691,614.3060704001691,614.3060704001691,614.3060704001691,617.3060222000349,617.3060222000349,618.3062816001475,618.3062816001475,618.2897920999676,2,0,0.7271738999988884,0.22367229987867177,None,618.2898558999877,618.289877000032,None,618.2899021001067,618.2899192001205,None,,,,,,,,,,,6,3,0,1,2025-03-10_11h37.26.052,rtmindeye,2024.2.4,59.945066369512546,2025-03-10 11h38.02.713554 -0400,
all_stimuli/special515/special_61133.jpg,46,0,46,46,0,,,,1,0,1,3,1,"[9, 21, 31, 45, 56, 68, 69]",2,1,1.2846911998931319,0.20707520004361868,None,None,None,,,,,,,,,,,1,0,1,0,0,46,46,46,618.3062816001475,,,,,,,,,,,,,,,,,,,,,,618.2900698999874,618.2901088001672,618.2991991001181,618.3062816001475,618.3062816001475,618.3062816001475,618.3062816001475,621.3061047999654,621.3061047999654,622.312179800123,622.312179800123,622.289691900136,2,1,1.2846911998931319,0.20707520004361868,None,622.2897583001759,622.2897785999812,None,622.2898027000483,622.2898200000636,None,,,,,,,,,,,6,3,0,1,2025-03-10_11h37.26.052,rtmindeye,2024.2.4,59.945066369512546,2025-03-10 11h38.02.713554 -0400,
all_stimuli/MST_pairs1/pair_24_nsd_158_2_cocoid_3673.png,47,0,47,47,0,,,,0,0,1,3,1,"[9, 21, 31, 45, 56, 68, 69]",2,0,0.7968055000528693,0.1969277998432517,None,None,None,,,,,,,,,,,1,0,1,0,0,47,47,47,622.312179800123,,,,,,,,,,,,,,,,,,,,,,622.2899736000691,622.2900128001347,622.3102150000632,622.312179800123,622.312179800123,622.312179800123,622.312179800123,625.3225954000372,625.3225954000372,,,626.3057674001902,2,0,0.7968055000528693,0.1969277998432517,None,626.3058399001602,626.3058617000934,None,626.305886000162,626.3059036000632,None,,,,,,,,,,,6,3,0,1,2025-03-10_11h37.26.052,rtmindeye,2024.2.4,59.945066369512546,2025-03-10 11h38.02.713554 -0400,
all_stimuli/MST_pairs1/pair_34_nsd_875_2_cocoid_72398.png,48,0,48,48,0,,,,0,0,1,3,1,"[9, 21, 31, 45, 56, 68, 69]",2,0,0.7535228999331594,0.20604939991608262,None,None,None,,,,,,,,,,,1,0,1,0,0,48,48,48,626.3394971000962,,,,,,,,,,,,,,,,,,,,,,626.306065000128,626.3061113001313,626.3377696999814,626.3394971000962,626.3394971000962,626.3394971000962,626.3394971000962,629.3396155000664,629.3396155000664,,,630.3062199000269,2,0,0.7535228999331594,0.20604939991608262,None,630.3062934000045,630.306315400172,None,630.3063393000048,630.3063561001327,None,,,,,,,,,,,6,3,0,1,2025-03-10_11h37.26.052,rtmindeye,2024.2.4,59.945066369512546,2025-03-10 11h38.02.713554 -0400,
all_stimuli/shared1000_notspecial/notspecial_51965.png,49,0,49,49,0,,,,0,0,1,3,1,"[9, 21, 31, 45, 56, 68, 69]",1,1,0.9023913000710309,0.2391965000424534,None,None,None,,,,,,,,,,,1,0,1,0,0,49,49,49,630.322587700095,,,,,,,,,,,,,,,,,,,,,,630.3065128000453,630.3065575000364,630.317665599985,630.322587700095,630.322587700095,630.322587700095,630.322587700095,633.3225150001235,633.3225150001235,634.3698095001746,634.3698095001746,634.306454700185,1,1,0.9023913000710309,0.2391965000424534,None,634.3065200001001,634.3065399001352,None,634.3065635999665,634.3065806999803,None,,,,,,,,,,,6,3,0,1,2025-03-10_11h37.26.052,rtmindeye,2024.2.4,59.945066369512546,2025-03-10 11h38.02.713554 -0400,
all_stimuli/MST_pairs1/pair_30_nsd_676_1_cocoid_48729.png,50,0,50,50,0,,,,0,0,1,3,1,"[9, 21, 31, 45, 56, 68, 69]",1,1,1.977239300031215,0.2119615999981761,None,None,None,,,,,,,,,,,1,0,1,0,0,50,50,50,634.3698095001746,,,,,,,,,,,,,,,,,,,,,,634.3067332999781,634.3067722001579,634.366048200056,634.3698095001746,634.3698095001746,634.3698095001746,634.3698095001746,637.3728543000761,637.3728543000761,,,638.3227882001083,1,1,1.977239300031215,0.2119615999981761,None,638.3228580001742,638.3228802999947,None,638.3229034000542,638.3229207000695,None,,,,,,,,,,,6,3,0,1,2025-03-10_11h37.26.052,rtmindeye,2024.2.4,59.945066369512546,2025-03-10 11h38.02.713554 -0400,
all_stimuli/shared1000_notspecial/notspecial_52328.png,51,0,51,51,0,,,,0,0,1,3,1,"[9, 21, 31, 45, 56, 68, 69]",1,1,1.4810222999658436,0.27100609987974167,None,None,None,,,,,,,,,,,1,0,1,0,0,51,51,51,638.3480895999819,,,,,,,,,,,,,,,,,,,,,,638.3230763000902,638.3231206999626,638.3465454999823,638.3480895999819,638.3480895999819,638.3480895999819,638.3480895999819,641.3558360000607,641.3558360000607,,,642.3395925001241,1,1,1.4810222999658436,0.27100609987974167,None,642.339664600091,642.3396863001399,None,642.3397097000852,642.3397295000032,None,,,,,,,,,,,6,3,0,1,2025-03-10_11h37.26.052,rtmindeye,2024.2.4,59.945066369512546,2025-03-10 11h38.02.713554 -0400,
all_stimuli/MST_pairs1/pair_4_6_44.png,52,0,52,52,0,,,,0,0,1,3,1,"[9, 21, 31, 45, 56, 68, 69]",2,0,1.5943122999742627,0.2597556000109762,None,None,None,,,,,,,,,,,1,0,1,0,0,52,52,52,642.3558809000533,,,,,,,,,,,,,,,,,,,,,,642.3398854001425,642.3399296000134,642.3509376000147,642.3558809000533,642.3558809000533,642.3558809000533,642.3558809000533,645.3559582000598,645.3559582000598,646.359879600117,646.359879600117,646.3398000001907,2,0,1.5943122999742627,0.2597556000109762,None,646.3398649999872,646.339885600144,None,646.3399106001016,646.3399275001138,None,,,,,,,,,,,6,3,0,1,2025-03-10_11h37.26.052,rtmindeye,2024.2.4,59.945066369512546,2025-03-10 11h38.02.713554 -0400,
all_stimuli/MST_pairs1/pair_48_w_runway1.jpg,53,0,53,53,0,,,,0,0,1,3,1,"[9, 21, 31, 45, 56, 68, 69]",2,0,0.8120494000613689,0.23602389986626804,None,None,None,,,,,,,,,,,1,0,1,0,0,53,53,53,646.359879600117,,,,,,,,,,,,,,,,,,,,,,646.3400777000934,646.3401198000647,646.3582021000329,646.359879600117,646.359879600117,646.359879600117,646.359879600117,649.3728508001659,649.3728508001659,,,650.3563349000178,2,0,0.8120494000613689,0.23602389986626804,None,650.3564049999695,650.3564264001325,None,650.3564496000763,650.3564667000901,None,,,,,,,,,,,6,3,0,1,2025-03-10_11h37.26.052,rtmindeye,2024.2.4,59.945066369512546,2025-03-10 11h38.02.713554 -0400,
all_stimuli/special515/special_40840.jpg,54,0,54,54,0,,,,1,0,1,3,1,"[9, 21, 31, 45, 56, 68, 69]",2,1,0.9553390999790281,0.2538453000597656,None,None,None,,,,,,,,,,,1,0,1,0,0,54,54,54,650.3728342000395,,,,,,,,,,,,,,,,,,,,,,650.3566234000027,650.3566674001049,650.3660369999707,650.3728342000395,650.3728342000395,650.3728342000395,650.3728342000395,653.3729003001936,653.3729003001936,654.3731029001065,654.3731029001065,654.356387300184,2,1,0.9553390999790281,0.2538453000597656,None,654.35645140009,654.3564718000125,None,654.3564961000811,654.3565130999777,None,,,,,,,,,,,6,3,0,1,2025-03-10_11h37.26.052,rtmindeye,2024.2.4,59.945066369512546,2025-03-10 11h38.02.713554 -0400,
all_stimuli/shared1000_notspecial/notspecial_12487.png,55,0,55,55,0,,,,0,0,1,3,1,"[9, 21, 31, 45, 56, 68, 69]",1,1,1.1369181999471039,0.1959377999883145,None,None,None,,,,,,,,,,,1,0,1,0,0,55,55,55,654.3731029001065,,,,,,,,,,,,,,,,,,,,,,654.3566637001932,654.3567026001401,654.3659455999732,654.3731029001065,654.3731029001065,654.3731029001065,654.3731029001065,657.3728041001596,657.3728041001596,658.373153100023,658.373153100023,658.3560483001638,1,1,1.1369181999471039,0.1959377999883145,None,658.3561134000774,658.3561335001141,None,658.3561582001857,658.3561754000839,None,,,,,,,,,,,6,3,0,1,2025-03-10_11h37.26.052,rtmindeye,2024.2.4,59.945066369512546,2025-03-10 11h38.02.713554 -0400,
blank.jpg,56,1,56,56,0,,,,0,0,1,3,1,"[9, 21, 31, 45, 56, 68, 69]",2,0,0.7558358998503536,0.2289229000452906,None,None,None,,,,,,,,,,,1,0,1,0,0,56,56,56,658.373153100023,,,,,,,,,,,,,,,,,,,,,,658.356327699963,658.3563662001397,658.3629326999653,658.373153100023,658.373153100023,658.373153100023,658.373153100023,661.372868000064,661.372868000064,662.3726540000644,662.3726540000644,662.3559887001757,2,0,0.7558358998503536,0.2289229000452906,None,662.3560532000847,662.3560734000057,None,662.3560981000774,662.3561148000881,None,,,,,,,,,,,6,3,0,1,2025-03-10_11h37.26.052,rtmindeye,2024.2.4,59.945066369512546,2025-03-10 11h38.02.713554 -0400,
all_stimuli/MST_pairs1/pair_16_20_0.png,57,0,57,57,0,,,,1,0,1,3,1,"[9, 21, 31, 45, 56, 68, 69]",2,1,1.1085203001275659,0.2319094999693334,None,None,None,,,,,,,,,,,1,0,1,0,0,57,57,57,662.3726540000644,,,,,,,,,,,,,,,,,,,,,,662.3562727000099,662.3563116001897,662.3677334000822,662.3726540000644,662.3726540000644,662.3726540000644,662.3726540000644,665.3726602001116,665.3726602001116,666.3725972000975,666.3725972000975,666.3563836000394,2,1,1.1085203001275659,0.2319094999693334,None,666.3564496000763,666.3564704000019,None,666.3564947000705,666.3565120999701,None,,,,,,,,,,,6,3,0,1,2025-03-10_11h37.26.052,rtmindeye,2024.2.4,59.945066369512546,2025-03-10 11h38.02.713554 -0400,
all_stimuli/shared1000_notspecial/notspecial_12685.png,58,0,58,58,0,,,,0,0,1,3,1,"[9, 21, 31, 45, 56, 68, 69]",1,1,0.7892861000727862,0.22412150003947318,None,None,None,,,,,,,,,,,1,0,1,0,0,58,58,58,666.3725972000975,,,,,,,,,,,,,,,,,,,,,,666.356663600076,666.3567022001371,666.3689449001104,666.3725972000975,666.3725972000975,666.3725972000975,666.3725972000975,669.3724130000919,669.3724130000919,670.3879342,670.3879342,670.3563761999831,1,1,0.7892861000727862,0.22412150003947318,None,670.3564437001478,670.3564645000733,None,670.3564893000294,670.3565062000416,None,,,,,,,,,,,6,3,0,1,2025-03-10_11h37.26.052,rtmindeye,2024.2.4,59.945066369512546,2025-03-10 11h38.02.713554 -0400,
all_stimuli/MST_pairs1/pair_36_nsd_949_2_cocoid_60031.png,59,0,59,59,0,,,,0,0,1,3,1,"[9, 21, 31, 45, 56, 68, 69]",2,0,1.725115800043568,0.25004059984348714,None,None,None,,,,,,,,,,,1,0,1,0,0,59,59,59,670.3879342,,,,,,,,,,,,,,,,,,,,,,670.3566662000958,670.3567061000504,670.3861297999974,670.3879342,670.3879342,670.3879342,670.3879342,673.3892598000821,673.3892598000821,,,674.3728394000791,2,0,1.725115800043568,0.25004059984348714,None,674.3729131000582,674.372935499996,None,674.37295920006,674.3729766001925,None,,,,,,,,,,,6,3,0,1,2025-03-10_11h37.26.052,rtmindeye,2024.2.4,59.945066369512546,2025-03-10 11h38.02.713554 -0400,
all_stimuli/shared1000_notspecial/notspecial_34068.png,60,0,60,60,0,,,,0,0,1,3,1,"[9, 21, 31, 45, 56, 68, 69]",1,1,0.7773359001148492,0.1887976999860257,None,None,None,,,,,,,,,,,1,0,1,0,0,60,60,60,674.3928072999697,,,,,,,,,,,,,,,,,,,,,,674.3731305000838,674.3731752000749,674.3911862999666,674.3928072999697,674.3928072999697,674.3928072999697,674.3928072999697,677.4060386000201,677.4060386000201,,,678.3894534001593,1,1,0.7773359001148492,0.1887976999860257,None,678.3895249001216,678.389547200175,None,678.3895712001249,678.3895891001448,None,,,,,,,,,,,6,3,0,1,2025-03-10_11h37.26.052,rtmindeye,2024.2.4,59.945066369512546,2025-03-10 11h38.02.713554 -0400,
all_stimuli/special515/special_11159.jpg,61,0,61,61,0,,,,0,0,1,3,1,"[9, 21, 31, 45, 56, 68, 69]",2,0,1.3439646000042558,0.22801949991844594,None,None,None,,,,,,,,,,,1,0,1,0,0,61,61,61,678.406158800004,,,,,,,,,,,,,,,,,,,,,,678.389750600094,678.3897953999694,678.3996660001576,678.406158800004,678.406158800004,678.406158800004,678.406158800004,681.4060305000748,681.4060305000748,682.4086307000834,682.4086307000834,682.3894895999692,2,0,1.3439646000042558,0.22801949991844594,None,682.389554399997,682.3895750001539,None,682.3895984999835,682.389615500113,None,,,,,,,,,,,6,3,0,1,2025-03-10_11h37.26.052,rtmindeye,2024.2.4,59.945066369512546,2025-03-10 11h38.02.713554 -0400,
all_stimuli/MST_pairs1/pair_34_nsd_875_2_cocoid_72398.png,62,0,62,62,0,,,,1,0,1,3,1,"[9, 21, 31, 45, 56, 68, 69]",2,1,0.6502567999996245,0.24219269980676472,None,None,None,,,,,,,,,,,1,0,1,0,0,62,62,62,682.4086307000834,,,,,,,,,,,,,,,,,,,,,,682.3897828999907,682.3898253000807,682.4066358001437,682.4086307000834,682.4086307000834,682.4086307000834,682.4086307000834,685.4227267999668,685.4227267999668,,,686.4059212000575,2,1,0.6502567999996245,0.24219269980676472,None,686.4059921000153,686.4060138000641,None,686.4060376000125,686.4060555000324,None,,,,,,,,,,,6,3,0,1,2025-03-10_11h37.26.052,rtmindeye,2024.2.4,59.945066369512546,2025-03-10 11h38.02.713554 -0400,
all_stimuli/special515/special_67742.jpg,63,0,63,63,0,,,,0,0,1,3,1,"[9, 21, 31, 45, 56, 68, 69]",1,1,1.2775173999834806,0.20299990009516478,None,None,None,,,,,,,,,,,1,0,1,0,0,63,63,63,686.4225684001576,,,,,,,,,,,,,,,,,,,,,,686.406213400187,686.406257300172,686.418549500173,686.4225684001576,686.4225684001576,686.4225684001576,686.4225684001576,689.4228837001137,689.4228837001137,690.4228549001273,690.4228549001273,690.4057460001204,1,1,1.2775173999834806,0.20299990009516478,None,690.4058118001558,690.4058324999642,None,690.4058567001484,690.405873700045,None,,,,,,,,,,,6,3,0,1,2025-03-10_11h37.26.052,rtmindeye,2024.2.4,59.945066369512546,2025-03-10 11h38.02.713554 -0400,
all_stimuli/MST_pairs1/pair_48_w_runway2.jpg,64,0,64,64,0,,,,0,0,1,3,1,"[9, 21, 31, 45, 56, 68, 69]",2,0,0.7723365998826921,0.22092480002902448,None,None,None,,,,,,,,,,,1,0,1,0,0,64,64,64,690.4228549001273,,,,,,,,,,,,,,,,,,,,,,690.406027500052,690.4060659999959,690.4152272001375,690.4228549001273,690.4228549001273,690.4228549001273,690.4228549001273,693.4227805000264,693.4227805000264,694.4227536001708,694.4227536001708,694.4059588999953,2,0,0.7723365998826921,0.22092480002902448,None,694.406022900017,694.4060432000551,None,694.4060680000111,694.4060857000295,None,,,,,,,,,,,6,3,0,1,2025-03-10_11h37.26.052,rtmindeye,2024.2.4,59.945066369512546,2025-03-10 11h38.02.713554 -0400,
all_stimuli/MST_pairs1/pair_40_w_escalator1.jpg,65,0,65,65,0,,,,0,0,1,3,1,"[9, 21, 31, 45, 56, 68, 69]",2,0,1.1192242000252008,0.21024639997631311,None,None,None,,,,,,,,,,,1,0,1,0,0,65,65,65,694.4227536001708,,,,,,,,,,,,,,,,,,,,,,694.4062365000136,694.4062757000793,694.4164001999889,694.4227536001708,694.4227536001708,694.4227536001708,694.4227536001708,697.4226305000484,697.4226305000484,698.4226426000241,698.4226426000241,698.4061637001578,2,0,1.1192242000252008,0.21024639997631311,None,698.4062287001871,698.4062491999939,None,698.406273700064,698.4062904000748,None,,,,,,,,,,,6,3,0,1,2025-03-10_11h37.26.052,rtmindeye,2024.2.4,59.945066369512546,2025-03-10 11h38.02.713554 -0400,
all_stimuli/special515/special_62228.jpg,66,0,66,66,0,,,,1,0,1,3,1,"[9, 21, 31, 45, 56, 68, 69]",1,0,1.5624298001639545,0.1610586999449879,None,None,None,,,,,,,,,,,1,0,1,0,0,66,66,66,698.4226426000241,,,,,,,,,,,,,,,,,,,,,,698.4064444000833,698.4064838001505,698.4164196001366,698.4226426000241,698.4226426000241,698.4226426000241,698.4226426000241,701.4228068001103,701.4228068001103,702.4263969999738,702.4263969999738,702.4059062001761,1,0,1.5624298001639545,0.1610586999449879,None,702.4059713000897,702.4059917000122,None,702.4060151001904,702.4060341999866,None,,,,,,,,,,,6,3,0,1,2025-03-10_11h37.26.052,rtmindeye,2024.2.4,59.945066369512546,2025-03-10 11h38.02.713554 -0400,
all_stimuli/MST_pairs1/pair_26_nsd_483_2_cocoid_8054.png,67,0,67,67,0,,,,0,0,1,3,1,"[9, 21, 31, 45, 56, 68, 69]",1,1,0.7898077999707311,0.5066554001532495,None,None,None,,,,,,,,,,,1,0,1,0,0,67,67,67,702.4263969999738,,,,,,,,,,,,,,,,,,,,,,702.4061849999707,702.4062230000272,702.4244365000632,702.4263969999738,702.4263969999738,702.4263969999738,702.4263969999738,705.4393756999634,705.4393756999634,,,706.4228946999647,1,1,0.7898077999707311,0.5066554001532495,None,706.4229651000351,706.4229868000839,None,706.4230100000277,706.423027300043,None,,,,,,,,,,,6,3,0,1,2025-03-10_11h37.26.052,rtmindeye,2024.2.4,59.945066369512546,2025-03-10 11h38.02.713554 -0400,
