current_image,trial_index,is_blank_trial,is_repeat,is_new_run,run_num,sess_num,is_not_last_trial,all_blanks_list,practice.thisRepN,practice.thisTrialN,practice.thisN,practice.thisIndex,loop_runs.thisRepN,loop_runs.thisTrialN,loop_runs.thisN,loop_runs.thisIndex,loop_all_images.thisRepN,loop_all_images.thisTrialN,loop_all_images.thisN,loop_all_images.thisIndex,thisRow.t,notes,set_up.started,set_up.stopped,practice_continue.started,practice_continue.stopped,key_resp_6.keys,practice_trial.started,practice_trial.stopped,press_if_repeat_2.keys,press_if_repeat_2.corr,all_keys_pressed_2.keys,testing_continue.started,testing_continue.stopped,key_resp_7.keys,waiting_fmri.started,key_resp_2.started,text_3.started,waiting_fmri.stopped,key_resp_2.keys,key_resp_2.rt,key_resp_2.duration,set_skips_and_correct_key.started,set_skips_and_correct_key.stopped,trial.started,image.started,press_if_repeat.started,polygon.started,all_keys_pressed.started,image.stopped,press_if_repeat.stopped,trial.stopped,press_if_repeat.keys,press_if_repeat.corr,press_if_repeat.rt,press_if_repeat.duration,all_keys_pressed.keys,run_wait2_2.started,run_wait2_2.stopped,key_resp_5.keys,waiting_fmri_2.started,waiting_fmri_2.stopped,key_resp_4.keys,polygon.stopped,all_keys_pressed.stopped,key_resp_5.started,text_5.started,key_resp_5.rt,key_resp_5.duration,key_resp_4.started,text_4.started,key_resp_4.rt,key_resp_4.duration,all_keys_pressed.rt,all_keys_pressed.duration,participant,session (1 2 or 3),starting_run,skip_practice,date,expName,psychopyVersion,frameRate,expStart,
,,,,,,,,,,,,,,,,,,,,,,,0.005248458997812122,0.005457334002130665,,,,,,,,,,,,,,,,,,,,,,,,,,,,,,,,,,,,,,,,,,,,,,,,,,,,1,4,0,1,2024-11-01_13h23.16.816,rtmindeye,2024.1.5,None,2024-11-01 13h23.30.661404 -0400,
,,,,,,,,,,,,,,,,,,,,,,,,,0.005472333999932744,0.012626333998923656,None,,,,,,,,,,,,,,,,,,,,,,,,,,,,,,,,,,,,,,,,,,,,,,,,,1,4,0,1,2024-11-01_13h23.16.816,rtmindeye,2024.1.5,None,2024-11-01 13h23.30.661404 -0400,
practice_images/w_kitchen2.jpg,0,0,,,,,,,0,0,0,0,,,,,,,,,0.05473708399949828,,,,,,,0.01848545900429599,0.022324750003463123,None,0,None,,,,,,,,,,,,,,,,,,,,,,,,,,,,,,,,,,,,,,,,,,,,1,4,0,1,2024-11-01_13h23.16.816,rtmindeye,2024.1.5,None,2024-11-01 13h23.30.661404 -0400,
practice_images/w_boardwalk2.jpg,1,0,,,,,,,0,1,1,1,,,,,,,,,0.05473708399949828,,,,,,,0.02275333400029922,0.02485312500357395,None,0,None,,,,,,,,,,,,,,,,,,,,,,,,,,,,,,,,,,,,,,,,,,,,1,4,0,1,2024-11-01_13h23.16.816,rtmindeye,2024.1.5,None,2024-11-01 13h23.30.661404 -0400,
practice_images/w_monument2.jpg,2,0,,,,,,,0,2,2,2,,,,,,,,,0.05473708399949828,,,,,,,0.025131374997727107,0.02745491699897684,None,0,None,,,,,,,,,,,,,,,,,,,,,,,,,,,,,,,,,,,,,,,,,,,,1,4,0,1,2024-11-01_13h23.16.816,rtmindeye,2024.1.5,None,2024-11-01 13h23.30.661404 -0400,
practice_images/w_auditorium2.jpg,3,0,,,,,,,0,3,3,3,,,,,,,,,0.05473708399949828,,,,,,,0.02775541700248141,0.029865875003451947,None,0,None,,,,,,,,,,,,,,,,,,,,,,,,,,,,,,,,,,,,,,,,,,,,1,4,0,1,2024-11-01_13h23.16.816,rtmindeye,2024.1.5,None,2024-11-01 13h23.30.661404 -0400,
practice_images/w_kitchen2.jpg,4,0,,,,,,,0,4,4,4,,,,,,,,,0.05473708399949828,,,,,,,0.030159499998262618,0.032037999997555744,None,0,None,,,,,,,,,,,,,,,,,,,,,,,,,,,,,,,,,,,,,,,,,,,,1,4,0,1,2024-11-01_13h23.16.816,rtmindeye,2024.1.5,None,2024-11-01 13h23.30.661404 -0400,
practice_images/w_auditorium1.jpg,5,0,,,,,,,0,5,5,5,,,,,,,,,0.05473708399949828,,,,,,,0.032311167000443675,0.034146250000048894,None,0,None,,,,,,,,,,,,,,,,,,,,,,,,,,,,,,,,,,,,,,,,,,,,1,4,0,1,2024-11-01_13h23.16.816,rtmindeye,2024.1.5,None,2024-11-01 13h23.30.661404 -0400,
practice_images/w_bedroom2.jpg,6,0,,,,,,,0,6,6,6,,,,,,,,,0.05473708399949828,,,,,,,0.034403083998768125,0.03620349999982864,None,0,None,,,,,,,,,,,,,,,,,,,,,,,,,,,,,,,,,,,,,,,,,,,,1,4,0,1,2024-11-01_13h23.16.816,rtmindeye,2024.1.5,None,2024-11-01 13h23.30.661404 -0400,
practice_images/w_kitchen1.jpg,7,0,,,,,,,0,7,7,7,,,,,,,,,0.05473708399949828,,,,,,,0.03646879200096009,0.03831362500204705,None,0,None,,,,,,,,,,,,,,,,,,,,,,,,,,,,,,,,,,,,,,,,,,,,1,4,0,1,2024-11-01_13h23.16.816,rtmindeye,2024.1.5,None,2024-11-01 13h23.30.661404 -0400,
practice_images/w_bedroom1.jpg,8,0,,,,,,,0,8,8,8,,,,,,,,,0.05473708399949828,,,,,,,0.03857045900076628,0.04032304199790815,None,0,None,,,,,,,,,,,,,,,,,,,,,,,,,,,,,,,,,,,,,,,,,,,,1,4,0,1,2024-11-01_13h23.16.816,rtmindeye,2024.1.5,None,2024-11-01 13h23.30.661404 -0400,
practice_images/w_monument2.jpg,9,0,,,,,,,0,9,9,9,,,,,,,,,0.05473708399949828,,,,,,,0.040567916999862064,0.04216466700017918,None,0,None,,,,,,,,,,,,,,,,,,,,,,,,,,,,,,,,,,,,,,,,,,,,1,4,0,1,2024-11-01_13h23.16.816,rtmindeye,2024.1.5,None,2024-11-01 13h23.30.661404 -0400,
,,,,,,,,,,,,,,,,,,,,,,,,,,,,,,,,,0.04233354199823225,0.05085958400013624,None,,,,,,,,,,,,,,,,,,,,,,,,,,,,,,,,,,,,,,,,,1,4,0,1,2024-11-01_13h23.16.816,rtmindeye,2024.1.5,None,2024-11-01 13h23.30.661404 -0400,
,,,,,,,,,,,,,,,,,,,,,,,,,,,,,,,,,,,,0.050877708999905735,0.05473708399949828,0.05473708399949828,1599.6896343339977,equal,1599.482927332996,None,,,,,,,,,,,,,,,,,,,,,,,,,,,,,,,,,,1,4,0,1,2024-11-01_13h23.16.816,rtmindeye,2024.1.5,None,2024-11-01 13h23.30.661404 -0400,
all_stimuli/rtmindeye_stimuli/image_686_seed_1.png,0,0,0,0,0,4,1,"[9, 19, 29, 39, 49, 59, 68, 69, 70, 71]",,,,,0,0,0,0,0,0,0,0,1599.7209579170012,,,,,,,,,,,,,,,,,,,,,,1599.6991266250043,1599.6991927920026,1599.699200916999,1599.7209579170012,1599.7209579170012,1599.7209579170012,1599.7209579170012,1602.7309659590028,1602.7309659590028,1603.7001365000033,1,1,0.792642957996577,0.21404479200282367,None,1603.7009262089996,1603.7009868750029,None,1603.7011654169983,1603.7011972920009,None,,,,,,,,,,,,,1,4,0,1,2024-11-01_13h23.16.816,rtmindeye,2024.1.5,None,2024-11-01 13h23.30.661404 -0400,
all_stimuli/rtmindeye_stimuli/image_262_seed_1.png,1,0,0,0,0,4,1,"[9, 19, 29, 39, 49, 59, 68, 69, 70, 71]",,,,,0,0,0,0,0,1,1,1,1603.7229231250021,,,,,,,,,,,,,,,,,,,,,,1603.7016127919997,1603.7016960420005,1603.7017075420008,1603.7229231250021,1603.7229231250021,1603.7229231250021,1603.7229231250021,1606.721521792002,1606.721521792002,1607.714361541999,1,1,0.5887325410003541,0.19497870799386874,None,1607.714996542003,1607.715088584002,None,1607.7152081250024,1607.715247125001,None,,,,,,,,,,,,,1,4,0,1,2024-11-01_13h23.16.816,rtmindeye,2024.1.5,None,2024-11-01 13h23.30.661404 -0400,
all_stimuli/rtmindeye_stimuli/image_508_seed_1.png,2,0,0,0,0,4,1,"[9, 19, 29, 39, 49, 59, 68, 69, 70, 71]",,,,,0,0,0,0,0,2,2,2,1607.7435656250018,,,,,,,,,,,,,,,,,,,,,,1607.7156890839979,1607.7158261250006,1607.7158452090007,1607.7435656250018,1607.7435656250018,1607.7435656250018,1607.7435656250018,1610.7500316250007,1610.7500316250007,1611.7176458340036,1,1,0.5391055820000474,0.18389645899878815,None,1611.7182758749987,1611.718354042001,None,1611.7184748750005,1611.718515583998,None,,,,,,,,,,,,,1,4,0,1,2024-11-01_13h23.16.816,rtmindeye,2024.1.5,None,2024-11-01 13h23.30.661404 -0400,
all_stimuli/rtmindeye_stimuli/image_671_seed_1.png,3,0,0,0,0,4,1,"[9, 19, 29, 39, 49, 59, 68, 69, 70, 71]",,,,,0,0,0,0,0,3,3,3,1611.7433657090005,,,,,,,,,,,,,,,,,,,,,,1611.7189942920013,1611.7191141250005,1611.7191306250024,1611.7433657090005,1611.7433657090005,1611.7433657090005,1611.7433657090005,1614.7477206250041,1614.7477206250041,1615.7310376669993,1,1,0.6221947499943781,0.17812237500038464,None,1615.731536625004,1615.7315954590013,None,1615.7316800000044,1615.7317076250038,None,,,,,,,,,,,,,1,4,0,1,2024-11-01_13h23.16.816,rtmindeye,2024.1.5,None,2024-11-01 13h23.30.661404 -0400,
all_stimuli/rtmindeye_stimuli/image_555_seed_1.png,4,0,0,0,0,4,1,"[9, 19, 29, 39, 49, 59, 68, 69, 70, 71]",,,,,0,0,0,0,0,4,4,4,1615.7552848749983,,,,,,,,,,,,,,,,,,,,,,1615.7320530420038,1615.732158167004,1615.7321854589973,1615.7552848749983,1615.7552848749983,1615.7552848749983,1615.7552848749983,1618.764354125,1618.764354125,1619.7338794169991,1,1,0.6404039160042885,0.17800812499626772,None,1619.7345126670043,1619.7345873340018,None,1619.734710417004,1619.7347497919982,None,,,,,,,,,,,,,1,4,0,1,2024-11-01_13h23.16.816,rtmindeye,2024.1.5,None,2024-11-01 13h23.30.661404 -0400,
all_stimuli/rtmindeye_stimuli/image_376_seed_1.png,5,0,0,0,0,4,1,"[9, 19, 29, 39, 49, 59, 68, 69, 70, 71]",,,,,0,0,0,0,0,5,5,5,1619.7601136250014,,,,,,,,,,,,,,,,,,,,,,1619.7351823339995,1619.735298874999,1619.73531525,1619.7601136250014,1619.7601136250014,1619.7601136250014,1619.7601136250014,1622.7642636669989,1622.7642636669989,1623.7514002919997,1,1,0.6296222910023062,0.18597183299425524,None,1623.7525547920013,1623.7526565840017,None,1623.7527457500037,1623.752773125001,None,,,,,,,,,,,,,1,4,0,1,2024-11-01_13h23.16.816,rtmindeye,2024.1.5,None,2024-11-01 13h23.30.661404 -0400,
all_stimuli/rtmindeye_stimuli/image_321_seed_1.png,6,0,0,0,0,4,1,"[9, 19, 29, 39, 49, 59, 68, 69, 70, 71]",,,,,0,0,0,0,0,6,6,6,1623.774231000003,,,,,,,,,,,,,,,,,,,,,,1623.7531451250034,1623.7532674169997,1623.753277584001,1623.774231000003,1623.774231000003,1623.774231000003,1623.774231000003,1626.768456167003,1626.768456167003,1627.7644156669994,1,1,0.5774104570009513,0.19504679199599195,None,1627.7649401250019,1627.765003667002,None,1627.765111834,1627.7651441670023,None,,,,,,,,,,,,,1,4,0,1,2024-11-01_13h23.16.816,rtmindeye,2024.1.5,None,2024-11-01 13h23.30.661404 -0400,
all_stimuli/rtmindeye_stimuli/image_729_seed_1.png,7,0,0,0,0,4,1,"[9, 19, 29, 39, 49, 59, 68, 69, 70, 71]",,,,,0,0,0,0,0,7,7,7,1627.789418166998,,,,,,,,,,,,,,,,,,,,,,1627.7654970840013,1627.7656048339995,1627.7656180839986,1627.789418166998,1627.789418166998,1627.789418166998,1627.789418166998,1630.7998951249974,1630.7998951249974,1631.7668243340013,1,1,0.531215290997352,0.19207483300124295,None,1631.7677911249993,1631.7679041250012,None,1631.7680514169988,1631.7681060000032,None,,,,,,,,,,,,,1,4,0,1,2024-11-01_13h23.16.816,rtmindeye,2024.1.5,None,2024-11-01 13h23.30.661404 -0400,
all_stimuli/rtmindeye_stimuli/image_106_seed_1.png,8,0,0,0,0,4,1,"[9, 19, 29, 39, 49, 59, 68, 69, 70, 71]",,,,,0,0,0,0,0,8,8,8,1631.7909092089976,,,,,,,,,,,,,,,,,,,,,,1631.768795709002,1631.7690792089998,1631.7691125420024,1631.7909092089976,1631.7909092089976,1631.7909092089976,1631.7909092089976,1634.7999312500033,1634.7999312500033,1635.781201292004,1,1,0.4677938740060199,0.20704933399974834,None,1635.7817242500023,1635.781785500003,None,1635.7818826669973,1635.7819149589996,None,,,,,,,,,,,,,1,4,0,1,2024-11-01_13h23.16.816,rtmindeye,2024.1.5,None,2024-11-01 13h23.30.661404 -0400,
blank.jpg,9,1,0,0,0,4,1,"[9, 19, 29, 39, 49, 59, 68, 69, 70, 71]",,,,,0,0,0,0,0,9,9,9,1635.7916750840013,,,,,,,,,,,,,,,,,,,,,,1635.7823099590023,1635.7824192920016,1635.7824353340038,1635.7916750840013,1635.7916750840013,1635.7916750840013,1635.7916750840013,1638.797622500002,1638.797622500002,1639.7811378749975,None,0,,,None,1639.7815225419981,1639.7815799590026,None,1639.7816827920033,1639.7817133339995,None,1639.808024083999,1639.808024083999,,,,,,,,,,,1,4,0,1,2024-11-01_13h23.16.816,rtmindeye,2024.1.5,None,2024-11-01 13h23.30.661404 -0400,
all_stimuli/rtmindeye_stimuli/image_518_seed_1.png,10,0,0,0,0,4,1,"[9, 19, 29, 39, 49, 59, 68, 69, 70, 71]",,,,,0,0,0,0,0,10,10,10,1639.808024083999,,,,,,,,,,,,,,,,,,,,,,1639.7820900419974,1639.7821822499973,1639.7821955000036,1639.808024083999,1639.808024083999,1639.808024083999,1639.808024083999,1642.8190039170004,1642.8190039170004,1643.7827755420003,1,1,0.647706208001182,0.1540037079976173,None,1643.7839309170013,1643.7840577090028,None,1643.784195166998,1643.784238209002,None,,,,,,,,,,,,,1,4,0,1,2024-11-01_13h23.16.816,rtmindeye,2024.1.5,None,2024-11-01 13h23.30.661404 -0400,
all_stimuli/rtmindeye_stimuli/image_359_seed_1.png,11,0,0,0,0,4,1,"[9, 19, 29, 39, 49, 59, 68, 69, 70, 71]",,,,,0,0,0,0,0,11,11,11,1643.8066461249982,,,,,,,,,,,,,,,,,,,,,,1643.7847655000005,1643.7849416250028,1643.7849585840013,1643.8066461249982,1643.8066461249982,1643.8066461249982,1643.8066461249982,1646.801370125002,1646.801370125002,1647.7867709999991,1,1,0.5280348329979461,0.18509529100265354,None,1647.7872527090003,1647.7873167090002,None,1647.7874135419988,1647.7874486250003,None,,,,,,,,,,,,,1,4,0,1,2024-11-01_13h23.16.816,rtmindeye,2024.1.5,None,2024-11-01 13h23.30.661404 -0400,
all_stimuli/rtmindeye_stimuli/image_234_seed_1.png,12,0,0,0,0,4,1,"[9, 19, 29, 39, 49, 59, 68, 69, 70, 71]",,,,,0,0,0,0,0,12,12,12,1647.8142682500038,,,,,,,,,,,,,,,,,,,,,,1647.787824334002,1647.7879467090024,1647.7879598340005,1647.8142682500038,1647.8142682500038,1647.8142682500038,1647.8142682500038,1650.8008976670026,1650.8008976670026,1651.797815292004,1,1,0.6244540409970796,0.16297045900137164,None,1651.7984487089998,1651.7985230420018,None,1651.7986437090003,1651.798697750004,None,,,,,,,,,,,,,1,4,0,1,2024-11-01_13h23.16.816,rtmindeye,2024.1.5,None,2024-11-01 13h23.30.661404 -0400,
all_stimuli/rtmindeye_stimuli/image_424_seed_1.png,13,0,0,0,0,4,1,"[9, 19, 29, 39, 49, 59, 68, 69, 70, 71]",,,,,0,0,0,0,0,13,13,13,1651.8238625840022,,,,,,,,,,,,,,,,,,,,,,1651.799149999999,1651.799268333998,1651.7992981670031,1651.8238625840022,1651.8238625840022,1651.8238625840022,1651.8238625840022,1654.8338158749975,1654.8338158749975,1655.8005956670022,1,1,0.6068806660041446,0.19609712500096066,None,1655.8011403339988,1655.8012063749993,None,1655.8013070419984,1655.8013421249998,None,,,,,,,,,,,,,1,4,0,1,2024-11-01_13h23.16.816,rtmindeye,2024.1.5,None,2024-11-01 13h23.30.661404 -0400,
all_stimuli/rtmindeye_stimuli/image_203_seed_1.png,14,0,0,0,0,4,1,"[9, 19, 29, 39, 49, 59, 68, 69, 70, 71]",,,,,0,0,0,0,0,14,14,14,1655.8247093340033,,,,,,,,,,,,,,,,,,,,,,1655.8017131250017,1655.801819417,1655.801832834004,1655.8247093340033,1655.8247093340033,1655.8247093340033,1655.8247093340033,1658.8176906669978,1658.8176906669978,1659.816981750002,1,1,0.6001166249989183,0.1608852079953067,None,1659.8175928339988,1659.817683375004,None,1659.817769084002,1659.8177982499983,None,,,,,,,,,,,,,1,4,0,1,2024-11-01_13h23.16.816,rtmindeye,2024.1.5,None,2024-11-01 13h23.30.661404 -0400,
all_stimuli/rtmindeye_stimuli/image_664_seed_1.png,15,0,0,0,0,4,1,"[9, 19, 29, 39, 49, 59, 68, 69, 70, 71]",,,,,0,0,0,0,0,15,15,15,1659.838535458999,,,,,,,,,,,,,,,,,,,,,,1659.818117333998,1659.818218542001,1659.8182300420012,1659.838535458999,1659.838535458999,1659.838535458999,1659.838535458999,1662.8342359590024,1662.8342359590024,1663.8311502920042,1,1,0.6362242489994969,0.1660119170046528,None,1663.831794167003,1663.8318902090032,None,1663.8320332090007,1663.8320735840025,None,,,,,,,,,,,,,1,4,0,1,2024-11-01_13h23.16.816,rtmindeye,2024.1.5,None,2024-11-01 13h23.30.661404 -0400,
all_stimuli/rtmindeye_stimuli/image_450_seed_1.png,16,0,0,0,0,4,1,"[9, 19, 29, 39, 49, 59, 68, 69, 70, 71]",,,,,0,0,0,0,0,16,16,16,1663.8584327920034,,,,,,,,,,,,,,,,,,,,,,1663.8326263749987,1663.8327806250018,1663.832801000004,1663.8584327920034,1663.8584327920034,1663.8584327920034,1663.8584327920034,1666.8517258339998,1666.8517258339998,1667.8503357500012,1,1,0.5413368320005247,0.17002241699810838,None,1667.8518477920006,1667.8520139169996,None,1667.8521548749995,1667.8522070839972,None,,,,,,,,,,,,,1,4,0,1,2024-11-01_13h23.16.816,rtmindeye,2024.1.5,None,2024-11-01 13h23.30.661404 -0400,
all_stimuli/rtmindeye_stimuli/3_89.png,17,0,0,0,0,4,1,"[9, 19, 29, 39, 49, 59, 68, 69, 70, 71]",,,,,0,0,0,0,0,17,17,17,1667.8691756249973,,,,,,,,,,,,,,,,,,,,,,1667.852902874998,1667.8532346249995,1667.8532522919995,1667.8691756249973,1667.8691756249973,1667.8691756249973,1667.8691756249973,1670.864604084003,1670.864604084003,1671.8641625000018,1,1,0.6876542909958516,0.18601545800629538,None,1671.864820584,1671.864896375002,None,1671.865031084002,1671.865072667002,None,,,,,,,,,,,,,1,4,0,1,2024-11-01_13h23.16.816,rtmindeye,2024.1.5,None,2024-11-01 13h23.30.661404 -0400,
all_stimuli/rtmindeye_stimuli/image_260_seed_1.png,18,0,0,0,0,4,1,"[9, 19, 29, 39, 49, 59, 68, 69, 70, 71]",,,,,0,0,0,0,0,18,18,18,1671.8914559999976,,,,,,,,,,,,,,,,,,,,,,1671.8655170420025,1671.8656532090026,1671.8656696670005,1671.8914559999976,1671.8914559999976,1671.8914559999976,1671.8914559999976,1674.900067417002,1674.900067417002,1675.8679657090033,1,1,0.5634447490010643,0.17793204200279433,None,1675.8689849170041,1675.869109542,None,1675.8692659590015,1675.8693254169993,None,,,,,,,,,,,,,1,4,0,1,2024-11-01_13h23.16.816,rtmindeye,2024.1.5,None,2024-11-01 13h23.30.661404 -0400,
blank.jpg,19,1,0,0,0,4,1,"[9, 19, 29, 39, 49, 59, 68, 69, 70, 71]",,,,,0,0,0,0,0,19,19,19,1675.880556917,,,,,,,,,,,,,,,,,,,,,,1675.870132875003,1675.8702717089982,1675.8702931669977,1675.880556917,1675.880556917,1675.880556917,1675.880556917,1678.8671614170016,1678.8671614170016,1679.864734625,None,0,,,None,1679.8651087500039,1679.865167625001,None,1679.865286334003,1679.865317374999,None,1679.892136417002,1679.892136417002,,,,,,,,,,,1,4,0,1,2024-11-01_13h23.16.816,rtmindeye,2024.1.5,None,2024-11-01 13h23.30.661404 -0400,
all_stimuli/rtmindeye_stimuli/image_281_seed_1.png,20,0,0,0,0,4,1,"[9, 19, 29, 39, 49, 59, 68, 69, 70, 71]",,,,,0,0,0,0,0,20,20,20,1679.892136417002,,,,,,,,,,,,,,,,,,,,,,1679.8656968340001,1679.865787750001,1679.8658005420002,1679.892136417002,1679.892136417002,1679.892136417002,1679.892136417002,1682.883927709001,1682.883927709001,1683.8665501249998,1,1,0.6477087910025148,0.18000466599914944,None,1683.8678242500027,1683.8680391250018,None,1683.8682423749997,1683.868292459003,None,,,,,,,,,,,,,1,4,0,1,2024-11-01_13h23.16.816,rtmindeye,2024.1.5,None,2024-11-01 13h23.30.661404 -0400,
all_stimuli/rtmindeye_stimuli/image_585_seed_1.png,21,0,0,0,0,4,1,"[9, 19, 29, 39, 49, 59, 68, 69, 70, 71]",,,,,0,0,0,0,0,21,21,21,1683.8932354999997,,,,,,,,,,,,,,,,,,,,,,1683.8690121250038,1683.869333542003,1683.8693514589977,1683.8932354999997,1683.8932354999997,1683.8932354999997,1683.8932354999997,1686.884317666998,1686.884317666998,1687.8836304170036,1,1,0.7346604159974959,0.1869202080051764,None,1687.8840543339975,1687.8841046250018,None,1687.8841775420005,1687.8842010000008,None,,,,,,,,,,,,,1,4,0,1,2024-11-01_13h23.16.816,rtmindeye,2024.1.5,None,2024-11-01 13h23.30.661404 -0400,
all_stimuli/rtmindeye_stimuli/image_609_seed_1.png,22,0,0,0,0,4,1,"[9, 19, 29, 39, 49, 59, 68, 69, 70, 71]",,,,,0,0,0,0,0,22,22,22,1687.904101209002,,,,,,,,,,,,,,,,,,,,,,1687.884474917002,1687.8845478750009,1687.8845604590024,1687.904101209002,1687.904101209002,1687.904101209002,1687.904101209002,1690.914673459003,1690.914673459003,1691.8980183750027,1,1,0.708819666004274,0.21203166699706344,None,1691.8985853749982,1691.8986535840013,None,1691.8987530000013,1691.8987853340004,None,,,,,,,,,,,,,1,4,0,1,2024-11-01_13h23.16.816,rtmindeye,2024.1.5,None,2024-11-01 13h23.30.661404 -0400,
all_stimuli/rtmindeye_stimuli/image_477_seed_1.png,23,0,0,0,0,4,1,"[9, 19, 29, 39, 49, 59, 68, 69, 70, 71]",,,,,0,0,0,0,0,23,23,23,1691.922304874999,,,,,,,,,,,,,,,,,,,,,,1691.8991896250009,1691.8992875839976,1691.899300750003,1691.922304874999,1691.922304874999,1691.922304874999,1691.922304874999,1694.9342843749982,1694.9342843749982,1695.9007930419975,1,1,0.7156420409955899,0.2040067500056466,None,1695.9016129590018,1695.9016742919994,None,1695.9017727090031,1695.9018050840023,None,,,,,,,,,,,,,1,4,0,1,2024-11-01_13h23.16.816,rtmindeye,2024.1.5,None,2024-11-01 13h23.30.661404 -0400,
all_stimuli/rtmindeye_stimuli/image_110_seed_1.png,24,0,0,0,0,4,1,"[9, 19, 29, 39, 49, 59, 68, 69, 70, 71]",,,,,0,0,0,0,0,24,24,24,1695.9250216670043,,,,,,,,,,,,,,,,,,,,,,1695.9022215419973,1695.902321667003,1695.9023348339979,1695.9250216670043,1695.9250216670043,1695.9250216670043,1695.9250216670043,1698.9312201670036,1698.9312201670036,1699.9146374170014,1,1,0.7088249989974429,0.18110025000351015,None,1699.915432458998,1699.9155183339972,None,1699.9156450840019,1699.9156897499997,None,,,,,,,,,,,,,1,4,0,1,2024-11-01_13h23.16.816,rtmindeye,2024.1.5,None,2024-11-01 13h23.30.661404 -0400,
all_stimuli/rtmindeye_stimuli/image_111_seed_1.png,25,0,0,0,0,4,1,"[9, 19, 29, 39, 49, 59, 68, 69, 70, 71]",,,,,0,0,0,0,0,25,25,25,1699.932377792,,,,,,,,,,,,,,,,,,,,,,1699.9161782500014,1699.916340374999,1699.9163576249994,1699.932377792,1699.932377792,1699.932377792,1699.932377792,1702.9320237920037,1702.9320237920037,1703.9187351670043,1,1,0.824538456996379,0.18699533399922075,None,1703.9193811250007,1703.919459292003,None,1703.9195792500032,1703.919619166998,None,,,,,,,,,,,,,1,4,0,1,2024-11-01_13h23.16.816,rtmindeye,2024.1.5,None,2024-11-01 13h23.30.661404 -0400,
all_stimuli/rtmindeye_stimuli/image_474_seed_1.png,26,0,0,0,0,4,1,"[9, 19, 29, 39, 49, 59, 68, 69, 70, 71]",,,,,0,0,0,0,0,26,26,26,1703.9423677919985,,,,,,,,,,,,,,,,,,,,,,1703.9200899999996,1703.920218500003,1703.9202347500031,1703.9423677919985,1703.9423677919985,1703.9423677919985,1703.9423677919985,1706.9479514170016,1706.9479514170016,1707.931320167001,1,1,0.8015544989975751,0.20302054200146813,None,1707.9318902500017,1707.931957959001,None,1707.9320567500035,1707.9320895420024,None,,,,,,,,,,,,,1,4,0,1,2024-11-01_13h23.16.816,rtmindeye,2024.1.5,None,2024-11-01 13h23.30.661404 -0400,
all_stimuli/rtmindeye_stimuli/image_272_seed_1.png,27,0,0,0,0,4,1,"[9, 19, 29, 39, 49, 59, 68, 69, 70, 71]",,,,,0,0,0,0,0,27,27,27,1707.9565460000013,,,,,,,,,,,,,,,,,,,,,,1707.932809292004,1707.9329104170029,1707.9329236249978,1707.9565460000013,1707.9565460000013,1707.9565460000013,1707.9565460000013,1710.951244208998,1710.951244208998,1711.9346638749994,1,1,0.6933565829967847,0.17710033299954375,None,1711.9352989590043,1711.9353744590044,None,1711.9354946669991,1711.935533459,None,,,,,,,,,,,,,1,4,0,1,2024-11-01_13h23.16.816,rtmindeye,2024.1.5,None,2024-11-01 13h23.30.661404 -0400,
all_stimuli/rtmindeye_stimuli/paired_image_886_2.png,28,0,0,0,0,4,1,"[9, 19, 29, 39, 49, 59, 68, 69, 70, 71]",,,,,0,0,0,0,0,28,28,28,1711.9598613749986,,,,,,,,,,,,,,,,,,,,,,1711.9363206249982,1711.936442625003,1711.936458791999,1711.9598613749986,1711.9598613749986,1711.9598613749986,1711.9598613749986,1714.9663749169995,1714.9663749169995,1715.9510704589993,1,1,0.7460265410045395,0.19503770799929043,None,1715.9521711249981,1715.952267583998,None,1715.9523777089998,1715.952413334002,None,,,,,,,,,,,,,1,4,0,1,2024-11-01_13h23.16.816,rtmindeye,2024.1.5,None,2024-11-01 13h23.30.661404 -0400,
blank.jpg,29,1,0,0,0,4,1,"[9, 19, 29, 39, 49, 59, 68, 69, 70, 71]",,,,,0,0,0,0,0,29,29,29,1715.9639445420034,,,,,,,,,,,,,,,,,,,,,,1715.9528361670018,1715.9529504590027,1715.9529638750028,1715.9639445420034,1715.9639445420034,1715.9639445420034,1715.9639445420034,1718.9670142090035,1718.9670142090035,1719.9506924169982,None,0,,,None,1719.9509890839981,1719.9510496669973,None,1719.9511262090018,1719.951149917004,None,1719.9699387500004,1719.9699387500004,,,,,,,,,,,1,4,0,1,2024-11-01_13h23.16.816,rtmindeye,2024.1.5,None,2024-11-01 13h23.30.661404 -0400,
all_stimuli/rtmindeye_stimuli/image_137_seed_1.png,30,0,0,0,0,4,1,"[9, 19, 29, 39, 49, 59, 68, 69, 70, 71]",,,,,0,0,0,0,0,30,30,30,1719.9699387500004,,,,,,,,,,,,,,,,,,,,,,1719.9514216250027,1719.9514897089975,1719.951499750001,1719.9699387500004,1719.9699387500004,1719.9699387500004,1719.9699387500004,1722.9680363340012,1722.9680363340012,1723.9535560000004,1,1,0.7210563740009093,0.2000208749959711,None,1723.9541890000037,1723.954260958999,None,1723.9543773749974,1723.9544171669986,None,,,,,,,,,,,,,1,4,0,1,2024-11-01_13h23.16.816,rtmindeye,2024.1.5,None,2024-11-01 13h23.30.661404 -0400,
all_stimuli/rtmindeye_stimuli/image_64_seed_1.png,31,0,0,0,0,4,1,"[9, 19, 29, 39, 49, 59, 68, 69, 70, 71]",,,,,0,0,0,0,0,31,31,31,1723.9786863749978,,,,,,,,,,,,,,,,,,,,,,1723.9548547500017,1723.954974166998,1723.9549899589983,1723.9786863749978,1723.9786863749978,1723.9786863749978,1723.9786863749978,1726.9813107090013,1726.9813107090013,1727.9647244169973,1,1,0.6873247910043574,0.19803237499581883,None,1727.9653798750005,1727.9654525000005,None,1727.965571959001,1727.9656127920025,None,,,,,,,,,,,,,1,4,0,1,2024-11-01_13h23.16.816,rtmindeye,2024.1.5,None,2024-11-01 13h23.30.661404 -0400,
all_stimuli/rtmindeye_stimuli/image_225_seed_1.png,32,0,0,0,0,4,1,"[9, 19, 29, 39, 49, 59, 68, 69, 70, 71]",,,,,0,0,0,0,0,32,32,32,1727.9900338340012,,,,,,,,,,,,,,,,,,,,,,1727.9660452919998,1727.9661749169973,1727.9661913340024,1727.9900338340012,1727.9900338340012,1727.9900338340012,1727.9900338340012,1730.9860750000007,1730.9860750000007,1731.9674158749986,1,1,0.7560560819983948,0.19897270900401054,None,1731.9680526669981,1731.9681269170032,None,1731.9682539999994,1731.968293209,None,,,,,,,,,,,,,1,4,0,1,2024-11-01_13h23.16.816,rtmindeye,2024.1.5,None,2024-11-01 13h23.30.661404 -0400,
all_stimuli/rtmindeye_stimuli/image_98_seed_1.png,33,0,0,0,0,4,1,"[9, 19, 29, 39, 49, 59, 68, 69, 70, 71]",,,,,0,0,0,0,0,33,33,33,1731.9928052500036,,,,,,,,,,,,,,,,,,,,,,1731.9687342920006,1731.9688540839998,1731.9688705840017,1731.9928052500036,1731.9928052500036,1731.9928052500036,1731.9928052500036,1734.9984037500035,1734.9984037500035,1735.983457209004,1,1,0.7852694160028477,0.2140058329969179,None,1735.9844606670013,1735.9845705000043,None,1735.9847663750043,1735.9848061669982,None,,,,,,,,,,,,,1,4,0,1,2024-11-01_13h23.16.816,rtmindeye,2024.1.5,None,2024-11-01 13h23.30.661404 -0400,
all_stimuli/rtmindeye_stimuli/image_129_seed_1.png,34,0,0,0,0,4,1,"[9, 19, 29, 39, 49, 59, 68, 69, 70, 71]",,,,,0,0,0,0,0,34,34,34,1736.0099155839998,,,,,,,,,,,,,,,,,,,,,,1735.9852681249977,1735.985420834004,1735.9854347090004,1736.0099155839998,1736.0099155839998,1736.0099155839998,1736.0099155839998,1739.0030599169986,1739.0030599169986,1740.0004991250025,1,1,0.7911184569966281,0.20610166700498667,None,1740.0011719590038,1740.0012513340043,None,1740.0013742919982,1740.0014136669997,None,,,,,,,,,,,,,1,4,0,1,2024-11-01_13h23.16.816,rtmindeye,2024.1.5,None,2024-11-01 13h23.30.661404 -0400,
all_stimuli/rtmindeye_stimuli/image_308_seed_1.png,35,0,0,0,0,4,1,"[9, 19, 29, 39, 49, 59, 68, 69, 70, 71]",,,,,0,0,0,0,0,35,35,35,1740.0268298750016,,,,,,,,,,,,,,,,,,,,,,1740.0018694169994,1740.001987542004,1740.0020040840027,1740.0268298750016,1740.0268298750016,1740.0268298750016,1740.0268298750016,1743.031422,1743.031422,1744.0178089589972,1,1,0.6752883750014007,0.20092550000117626,None,1744.0185299590012,1744.0186106670008,None,1744.018733083998,1744.0187729590034,None,,,,,,,,,,,,,1,4,0,1,2024-11-01_13h23.16.816,rtmindeye,2024.1.5,None,2024-11-01 13h23.30.661404 -0400,
all_stimuli/rtmindeye_stimuli/image_606_seed_1.png,36,0,0,0,0,4,1,"[9, 19, 29, 39, 49, 59, 68, 69, 70, 71]",,,,,0,0,0,0,0,36,36,36,1744.0416260420025,,,,,,,,,,,,,,,,,,,,,,1744.0191867920003,1744.019279250002,1744.0192905840013,1744.0416260420025,1744.0416260420025,1744.0416260420025,1744.0416260420025,1747.034752792002,1747.034752792002,1748.0199042090026,1,1,0.6963838739975472,0.19808429200202227,None,1748.0210784590017,1748.0212346249973,None,1748.0213742920023,1748.0214269170028,None,,,,,,,,,,,,,1,4,0,1,2024-11-01_13h23.16.816,rtmindeye,2024.1.5,None,2024-11-01 13h23.30.661404 -0400,
all_stimuli/rtmindeye_stimuli/image_35_seed_1.png,37,0,0,0,0,4,1,"[9, 19, 29, 39, 49, 59, 68, 69, 70, 71]",,,,,0,0,0,0,0,37,37,37,1748.0471149170044,,,,,,,,,,,,,,,,,,,,,,1748.022136959,1748.0224431669994,1748.0224606670017,1748.0471149170044,1748.0471149170044,1748.0471149170044,1748.0471149170044,1751.050851,1751.050851,1752.0339863749978,1,1,0.7550226659950567,0.20601300000271294,None,1752.0344009590044,1752.034448874998,None,1752.0345219590017,1752.0345464170023,None,,,,,,,,,,,,,1,4,0,1,2024-11-01_13h23.16.816,rtmindeye,2024.1.5,None,2024-11-01 13h23.30.661404 -0400,
all_stimuli/rtmindeye_stimuli/image_562_seed_1.png,38,0,0,0,0,4,1,"[9, 19, 29, 39, 49, 59, 68, 69, 70, 71]",,,,,0,0,0,0,0,38,38,38,1752.055921375002,,,,,,,,,,,,,,,,,,,,,,1752.0348219590014,1752.0348945000005,1752.0349041669979,1752.055921375002,1752.055921375002,1752.055921375002,1752.055921375002,1755.0674996669986,1755.0674996669986,1756.0481819999986,1,1,0.8641827489991556,0.20295991700550076,None,1756.0486390419974,1756.0486926250014,None,1756.048777750002,1756.0488050420026,None,,,,,,,,,,,,,1,4,0,1,2024-11-01_13h23.16.816,rtmindeye,2024.1.5,None,2024-11-01 13h23.30.661404 -0400,
blank.jpg,39,1,0,0,0,4,1,"[9, 19, 29, 39, 49, 59, 68, 69, 70, 71]",,,,,0,0,0,0,0,39,39,39,1756.0580882089998,,,,,,,,,,,,,,,,,,,,,,1756.0491362920002,1756.0492338749973,1756.0492479169989,1756.0580882089998,1756.0580882089998,1756.0580882089998,1756.0580882089998,1759.0530169589983,1759.0530169589983,1760.048417334001,None,0,,,None,1760.0490070419983,1760.0490960419993,None,1760.0492597499979,1760.0493090419986,None,1760.0759678340037,1760.0759678340037,,,,,,,,,,,1,4,0,1,2024-11-01_13h23.16.816,rtmindeye,2024.1.5,None,2024-11-01 13h23.30.661404 -0400,
all_stimuli/rtmindeye_stimuli/image_242_seed_1.png,40,0,0,0,0,4,1,"[9, 19, 29, 39, 49, 59, 68, 69, 70, 71]",,,,,0,0,0,0,0,40,40,40,1760.0759678340037,,,,,,,,,,,,,,,,,,,,,,1760.049882416999,1760.0500391250025,1760.0500596249985,1760.0759678340037,1760.0759678340037,1760.0759678340037,1760.0759678340037,1763.0693604589978,1763.0693604589978,1764.051381917001,1,1,0.7951933329968597,0.2309287919997587,None,1764.052032708998,1764.0521080839972,None,1764.0522263340026,1764.0522652919972,None,,,,,,,,,,,,,1,4,0,1,2024-11-01_13h23.16.816,rtmindeye,2024.1.5,None,2024-11-01 13h23.30.661404 -0400,
all_stimuli/rtmindeye_stimuli/image_590_seed_1.png,41,0,0,0,0,4,1,"[9, 19, 29, 39, 49, 59, 68, 69, 70, 71]",,,,,0,0,0,0,0,41,41,41,1764.075370958999,,,,,,,,,,,,,,,,,,,,,,1764.0527041250025,1764.0528214169972,1764.0528401249976,1764.075370958999,1764.075370958999,1764.075370958999,1764.075370958999,1767.0816058749988,1767.0816058749988,1768.0672508339994,1,1,0.6667903740017209,0.21303400000033434,None,1768.067712666998,1768.0677667920027,None,1768.0678530419973,1768.0678800000023,None,,,,,,,,,,,,,1,4,0,1,2024-11-01_13h23.16.816,rtmindeye,2024.1.5,None,2024-11-01 13h23.30.661404 -0400,
all_stimuli/rtmindeye_stimuli/image_298_seed_1.png,42,0,0,0,0,4,1,"[9, 19, 29, 39, 49, 59, 68, 69, 70, 71]",,,,,0,0,0,0,0,42,42,42,1768.0914660420021,,,,,,,,,,,,,,,,,,,,,,1768.068187375,1768.068275042002,1768.068286583999,1768.0914660420021,1768.0914660420021,1768.0914660420021,1768.0914660420021,1771.0840906250014,1771.0840906250014,1772.083594208998,1,1,0.6296538740061806,0.19110108299355488,None,1772.0840204999986,1772.0840727920004,None,1772.0841466249985,1772.0841701250029,None,,,,,,,,,,,,,1,4,0,1,2024-11-01_13h23.16.816,rtmindeye,2024.1.5,None,2024-11-01 13h23.30.661404 -0400,
all_stimuli/rtmindeye_stimuli/image_25_seed_1.png,43,0,0,0,0,4,1,"[9, 19, 29, 39, 49, 59, 68, 69, 70, 71]",,,,,0,0,0,0,0,43,43,43,1772.1083420840005,,,,,,,,,,,,,,,,,,,,,,1772.0844504589986,1772.0845259999987,1772.0845356249993,1772.1083420840005,1772.1083420840005,1772.1083420840005,1772.1083420840005,1775.1028042920007,1775.1028042920007,1776.0983052919983,1,1,0.6188384160050191,0.1950332909982535,None,1776.098881209,1776.0989589169985,None,1776.0990830419978,1776.0991219589996,None,,,,,,,,,,,,,1,4,0,1,2024-11-01_13h23.16.816,rtmindeye,2024.1.5,None,2024-11-01 13h23.30.661404 -0400,
all_stimuli/rtmindeye_stimuli/image_266_seed_1.png,44,0,0,0,0,4,1,"[9, 19, 29, 39, 49, 59, 68, 69, 70, 71]",,,,,0,0,0,0,0,44,44,44,1776.124397708998,,,,,,,,,,,,,,,,,,,,,,1776.0995786249987,1776.0997037089983,1776.0997202090002,1776.124397708998,1776.124397708998,1776.124397708998,1776.124397708998,1779.1220006669973,1779.1220006669973,1780.1013917500022,1,1,0.7137704989945632,0.17707179200078826,None,1780.1024595420022,1780.1026543749977,None,1780.102819833999,1780.1028887920038,None,,,,,,,,,,,,,1,4,0,1,2024-11-01_13h23.16.816,rtmindeye,2024.1.5,None,2024-11-01 13h23.30.661404 -0400,
all_stimuli/rtmindeye_stimuli/image_441_seed_1.png,45,0,0,0,0,4,1,"[9, 19, 29, 39, 49, 59, 68, 69, 70, 71]",,,,,0,0,0,0,0,45,45,45,1780.1263843339984,,,,,,,,,,,,,,,,,,,,,,1780.1037522920014,1780.1039893339985,1780.1040113339986,1780.1263843339984,1780.1263843339984,1780.1263843339984,1780.1263843339984,1783.1184337919985,1783.1184337919985,1784.115038333999,1,1,1.2227789990065503,0.20703466699342243,None,1784.1156430839983,1784.1157230000026,None,1784.1158581249983,1784.1158982499983,None,,,,,,,,,,,,,1,4,0,1,2024-11-01_13h23.16.816,rtmindeye,2024.1.5,None,2024-11-01 13h23.30.661404 -0400,
all_stimuli/rtmindeye_stimuli/image_440_seed_1.png,46,0,0,0,0,4,1,"[9, 19, 29, 39, 49, 59, 68, 69, 70, 71]",,,,,0,0,0,0,0,46,46,46,1784.1378109170037,,,,,,,,,,,,,,,,,,,,,,1784.1163499590039,1784.11650525,1784.1165222920026,1784.1378109170037,1784.1378109170037,1784.1378109170037,1784.1378109170037,1787.1360556670043,1787.1360556670043,1788.118524999998,1,1,0.7183710820027045,0.19297795899910852,None,1788.1199344170018,1788.1200892499983,None,1788.120229334003,1788.1202813749987,None,,,,,,,,,,,,,1,4,0,1,2024-11-01_13h23.16.816,rtmindeye,2024.1.5,None,2024-11-01 13h23.30.661404 -0400,
all_stimuli/rtmindeye_stimuli/image_180_seed_1.png,47,0,0,0,0,4,1,"[9, 19, 29, 39, 49, 59, 68, 69, 70, 71]",,,,,0,0,0,0,0,47,47,47,1788.1427434590005,,,,,,,,,,,,,,,,,,,,,,1788.1209879169983,1788.1213417920007,1788.1213730840027,1788.1427434590005,1788.1427434590005,1788.1427434590005,1788.1427434590005,1791.134814459001,1791.134814459001,1792.1316908750014,1,1,0.9155398330040043,0.2088870829975349,None,1792.1322172090004,1792.132281541999,None,1792.132380959003,1792.1324132500013,None,,,,,,,,,,,,,1,4,0,1,2024-11-01_13h23.16.816,rtmindeye,2024.1.5,None,2024-11-01 13h23.30.661404 -0400,
all_stimuli/rtmindeye_stimuli/w_log_cabin1.jpg,48,0,0,0,0,4,1,"[9, 19, 29, 39, 49, 59, 68, 69, 70, 71]",,,,,0,0,0,0,0,48,48,48,1792.1463368749974,,,,,,,,,,,,,,,,,,,,,,1792.1327756669998,1792.1328892090023,1792.1329052919973,1792.1463368749974,1792.1463368749974,1792.1463368749974,1792.1463368749974,1795.1350987089972,1795.1350987089972,1796.1321742919972,1,1,1.0469440820015734,0.18791575000068406,None,1796.1328522090043,1796.1329303340026,None,1796.1330515840018,1796.1330918750027,None,1796.1439703340002,1796.1439703340002,,,,,,,,,,,1,4,0,1,2024-11-01_13h23.16.816,rtmindeye,2024.1.5,None,2024-11-01 13h23.30.661404 -0400,
blank.jpg,49,1,0,0,0,4,1,"[9, 19, 29, 39, 49, 59, 68, 69, 70, 71]",,,,,0,0,0,0,0,49,49,49,1796.1439703340002,,,,,,,,,,,,,,,,,,,,,,1796.1335441249976,1796.1336600840004,1796.1336766669992,1796.1439703340002,1796.1439703340002,1796.1439703340002,1796.1439703340002,1799.1341997920026,1799.1341997920026,1800.1317824590005,None,0,,,None,1800.132149834004,1800.132207417002,None,1800.1323086249977,1800.1323400000038,None,1800.1581381249998,1800.1581381249998,,,,,,,,,,,1,4,0,1,2024-11-01_13h23.16.816,rtmindeye,2024.1.5,None,2024-11-01 13h23.30.661404 -0400,
all_stimuli/rtmindeye_stimuli/image_339_seed_1.png,50,0,0,0,0,4,1,"[9, 19, 29, 39, 49, 59, 68, 69, 70, 71]",,,,,0,0,0,0,0,50,50,50,1800.1581381249998,,,,,,,,,,,,,,,,,,,,,,1800.1327268750028,1800.1328194169982,1800.1328358750034,1800.1581381249998,1800.1581381249998,1800.1581381249998,1800.1581381249998,1803.164587625004,1803.164587625004,1804.1344522919971,1,1,0.6521967909939121,0.1939295000047423,None,1804.1351085839997,1804.1351839999988,None,1804.135300916998,1804.1353396249979,None,,,,,,,,,,,,,1,4,0,1,2024-11-01_13h23.16.816,rtmindeye,2024.1.5,None,2024-11-01 13h23.30.661404 -0400,
all_stimuli/rtmindeye_stimuli/image_84_seed_1.png,51,0,0,0,0,4,1,"[9, 19, 29, 39, 49, 59, 68, 69, 70, 71]",,,,,0,0,0,0,0,51,51,51,1804.159380459001,,,,,,,,,,,,,,,,,,,,,,1804.135791875,1804.135907625001,1804.135926709001,1804.159380459001,1804.159380459001,1804.159380459001,1804.159380459001,1807.1672233749996,1807.1672233749996,1808.1484447500043,1,1,0.9639384990005055,0.21798454200325068,None,1808.1490680839997,1808.1491416249992,None,1808.1492746669974,1808.1493222089994,None,,,,,,,,,,,,,1,4,0,1,2024-11-01_13h23.16.816,rtmindeye,2024.1.5,None,2024-11-01 13h23.30.661404 -0400,
all_stimuli/rtmindeye_stimuli/image_274_seed_1.png,52,0,0,0,0,4,1,"[9, 19, 29, 39, 49, 59, 68, 69, 70, 71]",,,,,0,0,0,0,0,52,52,52,1808.1747370840021,,,,,,,,,,,,,,,,,,,,,,1808.149770625001,1808.1499123340036,1808.1499282500008,1808.1747370840021,1808.1747370840021,1808.1747370840021,1808.1747370840021,1811.1816813339974,1811.1816813339974,1812.1514743340013,1,1,0.8795528740010923,0.19303670899535064,None,1812.152109417002,1812.1521847920012,None,1812.152300583999,1812.1523399170037,None,,,,,,,,,,,,,1,4,0,1,2024-11-01_13h23.16.816,rtmindeye,2024.1.5,None,2024-11-01 13h23.30.661404 -0400,
all_stimuli/rtmindeye_stimuli/image_244_seed_1.png,53,0,0,0,0,4,1,"[9, 19, 29, 39, 49, 59, 68, 69, 70, 71]",,,,,0,0,0,0,0,53,53,53,1812.1752092500028,,,,,,,,,,,,,,,,,,,,,,1812.1527701250016,1812.1528870420007,1812.1529060419998,1812.1752092500028,1812.1752092500028,1812.1752092500028,1812.1752092500028,1815.1677644169977,1815.1677644169977,1816.1675311670042,1,1,0.9251142909997725,0.21402608399512246,None,1816.1680500000002,1816.168109541999,None,1816.1682050000018,1816.1682362089996,None,,,,,,,,,,,,,1,4,0,1,2024-11-01_13h23.16.816,rtmindeye,2024.1.5,None,2024-11-01 13h23.30.661404 -0400,
all_stimuli/rtmindeye_stimuli/paired_image_158_2.png,54,0,0,0,0,4,1,"[9, 19, 29, 39, 49, 59, 68, 69, 70, 71]",,,,,0,0,0,0,0,54,54,54,1816.1928171250038,,,,,,,,,,,,,,,,,,,,,,1816.1685853340023,1816.168680584,1816.1686935840044,1816.1928171250038,1816.1928171250038,1816.1928171250038,1816.1928171250038,1819.1847597500018,1819.1847597500018,1820.1702367090038,1,1,0.9005759989959188,0.24091266700270353,None,1820.1708585000015,1820.1709316670022,None,1820.171050375,1820.1710898340025,None,,,,,,,,,,,,,1,4,0,1,2024-11-01_13h23.16.816,rtmindeye,2024.1.5,None,2024-11-01 13h23.30.661404 -0400,
all_stimuli/rtmindeye_stimuli/image_34_seed_1.png,55,0,0,0,0,4,1,"[9, 19, 29, 39, 49, 59, 68, 69, 70, 71]",,,,,0,0,0,0,0,55,55,55,1820.196900791998,,,,,,,,,,,,,,,,,,,,,,1820.1715396250002,1820.1716994590024,1820.1717155419974,1820.196900791998,1820.196900791998,1820.196900791998,1820.196900791998,1823.1868147920031,1823.1868147920031,1824.1848075000016,1,1,0.8434013750011218,0.19108112499816343,None,1824.1858620420026,1824.186036084,None,1824.186273667001,1824.1863723339993,None,,,,,,,,,,,,,1,4,0,1,2024-11-01_13h23.16.816,rtmindeye,2024.1.5,None,2024-11-01 13h23.30.661404 -0400,
all_stimuli/rtmindeye_stimuli/image_132_seed_1.png,56,0,0,0,0,4,1,"[9, 19, 29, 39, 49, 59, 68, 69, 70, 71]",,,,,0,0,0,0,0,56,56,56,1824.2076466670042,,,,,,,,,,,,,,,,,,,,,,1824.1869877499994,1824.1870970840027,1824.1871108339983,1824.2076466670042,1824.2076466670042,1824.2076466670042,1824.2076466670042,1827.2022675000044,1827.2022675000044,1828.1985684590036,1,1,0.8317577499983599,0.1909091659981641,None,1828.1992447500015,1828.1993258750008,None,1828.199442666999,1828.1994824590001,None,,,,,,,,,,,,,1,4,0,1,2024-11-01_13h23.16.816,rtmindeye,2024.1.5,None,2024-11-01 13h23.30.661404 -0400,
all_stimuli/rtmindeye_stimuli/image_576_seed_1.png,57,0,0,0,0,4,1,"[9, 19, 29, 39, 49, 59, 68, 69, 70, 71]",,,,,0,0,0,0,0,57,57,57,1828.224897334003,,,,,,,,,,,,,,,,,,,,,,1828.1999537919983,1828.2000767920035,1828.2000927089975,1828.224897334003,1828.224897334003,1828.224897334003,1828.224897334003,1831.2343794999979,1831.2343794999979,1832.2015136670016,1,1,1.0745275410008617,0.2179140410007676,None,1832.2025666249974,1832.202697583998,None,1832.2028534170022,1832.2029120000007,None,,,,,,,,,,,,,1,4,0,1,2024-11-01_13h23.16.816,rtmindeye,2024.1.5,None,2024-11-01 13h23.30.661404 -0400,
all_stimuli/rtmindeye_stimuli/image_324_seed_1.png,58,0,0,0,0,4,1,"[9, 19, 29, 39, 49, 59, 68, 69, 70, 71]",,,,,0,0,0,0,0,58,58,58,1832.2263329170019,,,,,,,,,,,,,,,,,,,,,,1832.2036093339993,1832.2037362920018,1832.2037504590044,1832.2263329170019,1832.2263329170019,1832.2263329170019,1832.2263329170019,1835.2317629590034,1835.2317629590034,1836.2159089170018,1,1,0.9811140000019805,0.18188091599586187,None,1836.216816125001,1836.2169160420017,None,1836.2170629169996,1836.2171149589994,None,,,,,,,,,,,,,1,4,0,1,2024-11-01_13h23.16.816,rtmindeye,2024.1.5,None,2024-11-01 13h23.30.661404 -0400,
blank.jpg,59,1,0,0,0,4,1,"[9, 19, 29, 39, 49, 59, 68, 69, 70, 71]",,,,,0,0,0,0,0,59,59,59,1836.2236532500028,,,,,,,,,,,,,,,,,,,,,,1836.217667625002,1836.2178683750026,1836.217891417,1836.2236532500028,1836.2236532500028,1836.2236532500028,1836.2236532500028,1839.2179638750022,1839.2179638750022,1840.2160259169978,None,0,,,None,1840.2166950419996,1840.216808875004,None,1840.2169531250038,1840.217005999999,None,1840.240082917,1840.240082917,,,,,,,,,,,1,4,0,1,2024-11-01_13h23.16.816,rtmindeye,2024.1.5,None,2024-11-01 13h23.30.661404 -0400,
all_stimuli/rtmindeye_stimuli/image_142_seed_1.png,60,0,0,0,0,4,1,"[9, 19, 29, 39, 49, 59, 68, 69, 70, 71]",,,,,0,0,0,0,0,60,60,60,1840.240082917,,,,,,,,,,,,,,,,,,,,,,1840.2178480420043,1840.217997833999,1840.2180192500018,1840.240082917,1840.240082917,1840.240082917,1840.240082917,1843.231707125,1843.231707125,1844.2223367920014,1,1,0.8703608750001877,0.20401624999794876,None,1844.222964708999,1844.2230384590002,None,1844.2231548749987,1844.2231942920043,None,,,,,,,,,,,,,1,4,0,1,2024-11-01_13h23.16.816,rtmindeye,2024.1.5,None,2024-11-01 13h23.30.661404 -0400,
all_stimuli/rtmindeye_stimuli/image_401_seed_1.png,61,0,0,0,0,4,1,"[9, 19, 29, 39, 49, 59, 68, 69, 70, 71]",,,,,0,0,0,0,0,61,61,61,1844.2464198750022,,,,,,,,,,,,,,,,,,,,,,1844.2236440839988,1844.2237840840025,1844.2238000420039,1844.2464198750022,1844.2464198750022,1844.2464198750022,1844.2464198750022,1847.2487297089974,1847.2487297089974,1848.2350477500004,1,1,0.9840399580061785,0.20694091699988348,None,1848.2362417090044,1848.2363886250023,None,1848.2365510840027,1848.2366108339993,None,,,,,,,,,,,,,1,4,0,1,2024-11-01_13h23.16.816,rtmindeye,2024.1.5,None,2024-11-01 13h23.30.661404 -0400,
all_stimuli/rtmindeye_stimuli/image_299_seed_1.png,62,0,0,0,0,4,1,"[9, 19, 29, 39, 49, 59, 68, 69, 70, 71]",,,,,0,0,0,0,0,62,62,62,1848.2622968750002,,,,,,,,,,,,,,,,,,,,,,1848.2373845420007,1848.237625709,1848.2376573340007,1848.2622968750002,1848.2622968750002,1848.2622968750002,1848.2622968750002,1851.2548514590017,1851.2548514590017,1852.248482709001,1,1,0.7831754989965702,0.20199879200663418,None,1852.249000374999,1852.2490705000018,None,1852.2491702920015,1852.249218459001,None,,,,,,,,,,,,,1,4,0,1,2024-11-01_13h23.16.816,rtmindeye,2024.1.5,None,2024-11-01 13h23.30.661404 -0400,
all_stimuli/rtmindeye_stimuli/image_434_seed_1.png,63,0,0,0,0,4,1,"[9, 19, 29, 39, 49, 59, 68, 69, 70, 71]",,,,,0,0,0,0,0,63,63,63,1852.2722722500039,,,,,,,,,,,,,,,,,,,,,,1852.2500336250014,1852.2501697499974,1852.2501865840022,1852.2722722500039,1852.2722722500039,1852.2722722500039,1852.2722722500039,1855.283598916998,1855.283598916998,1856.2518588340026,1,1,0.8172387080048793,0.20498412499728147,None,1856.2525105000022,1856.252586667004,None,1856.2527027500037,1856.2527420839979,None,,,,,,,,,,,,,1,4,0,1,2024-11-01_13h23.16.816,rtmindeye,2024.1.5,None,2024-11-01 13h23.30.661404 -0400,
all_stimuli/rtmindeye_stimuli/18_78.png,64,0,0,0,0,4,1,"[9, 19, 29, 39, 49, 59, 68, 69, 70, 71]",,,,,0,0,0,0,0,64,64,64,1856.2703743750026,,,,,,,,,,,,,,,,,,,,,,1856.2531805000035,1856.253299666998,1856.2533157090002,1856.2703743750026,1856.2703743750026,1856.2703743750026,1856.2703743750026,1859.2818898749974,1859.2818898749974,1860.2652421250023,1,1,1.0111402080001426,0.20295741700101644,None,1860.265960124998,1860.2660509589987,None,1860.2662052090018,1860.2662564589991,None,,,,,,,,,,,,,1,4,0,1,2024-11-01_13h23.16.816,rtmindeye,2024.1.5,None,2024-11-01 13h23.30.661404 -0400,
all_stimuli/rtmindeye_stimuli/image_532_seed_1.png,65,0,0,0,0,4,1,"[9, 19, 29, 39, 49, 59, 68, 69, 70, 71]",,,,,0,0,0,0,0,65,65,65,1860.293846708999,,,,,,,,,,,,,,,,,,,,,,1860.266815875002,1860.266980542001,1860.2670037920034,1860.293846708999,1860.293846708999,1860.293846708999,1860.293846708999,1863.2854671250025,1863.2854671250025,1864.2683469589974,1,1,1.1296060829990893,0.21500320799532346,None,1864.2689798749998,1864.2690574169974,None,1864.2691782500042,1864.269216917004,None,,,,,,,,,,,,,1,4,0,1,2024-11-01_13h23.16.816,rtmindeye,2024.1.5,None,2024-11-01 13h23.30.661404 -0400,
all_stimuli/rtmindeye_stimuli/image_708_seed_1.png,66,0,0,0,0,4,1,"[9, 19, 29, 39, 49, 59, 68, 69, 70, 71]",,,,,0,0,0,0,0,66,66,66,1864.292461459001,,,,,,,,,,,,,,,,,,,,,,1864.2696520000027,1864.2697735420006,1864.2697899589984,1864.292461459001,1864.292461459001,1864.292461459001,1864.292461459001,1867.3014025000011,1867.3014025000011,1868.2847137920035,1,1,0.7449861659988528,0.20200541699887253,None,1868.2852270420044,1868.2853054590014,None,1868.285389124998,1868.2854215420011,None,,,,,,,,,,,,,1,4,0,1,2024-11-01_13h23.16.816,rtmindeye,2024.1.5,None,2024-11-01 13h23.30.661404 -0400,
all_stimuli/rtmindeye_stimuli/image_178_seed_1.png,67,0,0,0,0,4,1,"[9, 19, 29, 39, 49, 59, 68, 69, 70, 71]",,,,,0,0,0,0,0,67,67,67,1868.308824959,,,,,,,,,,,,,,,,,,,,,,1868.2857935420034,1868.2859215839999,1868.2859329589992,1868.308824959,1868.308824959,1868.308824959,1868.308824959,1871.3017741250005,1871.3017741250005,1872.2985861670022,1,1,0.899746540999331,0.20894266699906439,None,1872.2991021249982,1872.299175084001,None,1872.2992710420003,1872.2993161249979,None,,,,,,,,,,,,,1,4,0,1,2024-11-01_13h23.16.816,rtmindeye,2024.1.5,None,2024-11-01 13h23.30.661404 -0400,
blank.jpg,68,1,0,0,0,4,1,"[9, 19, 29, 39, 49, 59, 68, 69, 70, 71]",,,,,0,0,0,0,0,68,68,68,1872.3099487090003,,,,,,,,,,,,,,,,,,,,,,1872.2996705839978,1872.2997792500028,1872.2997929999983,1872.3099487090003,1872.3099487090003,1872.3099487090003,1872.3099487090003,1875.3031869170009,1875.3031869170009,1876.2986168339994,None,0,,,None,1876.2988997499997,1876.2989437920041,None,1876.2990170839985,1876.2990420420028,None,1876.3060210839976,1876.3060210839976,,,,,,,,,,,1,4,0,1,2024-11-01_13h23.16.816,rtmindeye,2024.1.5,None,2024-11-01 13h23.30.661404 -0400,
blank.jpg,69,1,0,1,0,4,0,"[9, 19, 29, 39, 49, 59, 68, 69, 70, 71]",,,,,0,0,0,0,0,69,69,69,1876.3060210839976,,,,,,,,,,,,,,,,,,,,,,1876.2993191249989,1876.2993950840028,1876.2994047090033,1876.3060210839976,1876.3060210839976,1876.3060210839976,1876.3060210839976,1879.3152209590044,1879.3152209590044,1880.3013855840036,None,0,,,None,1880.3018299169998,1885.1190019589994,1,1885.1197030420008,1902.735917459002,equal,,,1880.3222615839986,1880.3222615839986,4.786382791004144,None,1885.1321917500027,1885.1321917500027,17.59549808200245,None,,,1,4,0,1,2024-11-01_13h23.16.816,rtmindeye,2024.1.5,None,2024-11-01 13h23.30.661404 -0400,
,,,,,,,,,,,,,0,0,0,0,,,,,,,,,,,,,,,,,,,,,,,,,,,,,,,,,,,,,,,,,,,,,,,,,,,,,,,,,,,,1,4,0,1,2024-11-01_13h23.16.816,rtmindeye,2024.1.5,None,2024-11-01 13h23.30.661404 -0400,
all_stimuli/rtmindeye_stimuli/image_267_seed_1.png,0,0,0,0,1,4,1,"[9, 19, 31, 42, 56, 68, 69, 70, 71]",,,,,1,0,1,0,0,0,0,0,1902.7717923750024,,,,,,,,,,,,,,,,,,,,,,1902.7508477500014,1902.7512331670005,1902.7512472919989,1902.7717923750024,1902.7717923750024,1902.7717923750024,1902.7717923750024,1905.7827064169978,1905.7827064169978,1906.7539794170007,1,1,1.1268661659996724,0.20089774999360088,None,1906.7551198750007,1906.7552026670019,None,1906.7554593340028,1906.755503667002,None,,,,,,,,,,,,,1,4,0,1,2024-11-01_13h23.16.816,rtmindeye,2024.1.5,None,2024-11-01 13h23.30.661404 -0400,
all_stimuli/rtmindeye_stimuli/image_145_seed_1.png,1,0,0,0,1,4,1,"[9, 19, 31, 42, 56, 68, 69, 70, 71]",,,,,1,0,1,0,0,1,1,1,1906.7795724169991,,,,,,,,,,,,,,,,,,,,,,1906.7560776669998,1906.7561882919981,1906.7562018750032,1906.7795724169991,1906.7795724169991,1906.7795724169991,1906.7795724169991,1909.7845759589982,1909.7845759589982,1910.7654299999995,1,1,0.7270503740001004,0.19605529199907323,None,1910.7659573749988,1910.7660214589996,None,1910.7661171250002,1910.7661493749983,None,,,,,,,,,,,,,1,4,0,1,2024-11-01_13h23.16.816,rtmindeye,2024.1.5,None,2024-11-01 13h23.30.661404 -0400,
all_stimuli/rtmindeye_stimuli/13_44.png,2,0,0,0,1,4,1,"[9, 19, 31, 42, 56, 68, 69, 70, 71]",,,,,1,0,1,0,0,2,2,2,1910.7813060420012,,,,,,,,,,,,,,,,,,,,,,1910.7665351670003,1910.7666328339983,1910.7666461249974,1910.7813060420012,1910.7813060420012,1910.7813060420012,1910.7813060420012,1913.7848053339985,1913.7848053339985,1914.765537291998,1,1,0.8654400000013993,0.18793545800144784,None,1914.766052167004,1914.7661257090003,None,1914.7662383339994,1914.766269959,None,1914.7901817500024,1914.7901817500024,,,,,,,,,,,1,4,0,1,2024-11-01_13h23.16.816,rtmindeye,2024.1.5,None,2024-11-01 13h23.30.661404 -0400,
all_stimuli/rtmindeye_stimuli/image_506_seed_1.png,3,0,0,0,1,4,1,"[9, 19, 31, 42, 56, 68, 69, 70, 71]",,,,,1,0,1,0,0,3,3,3,1914.7901817500024,,,,,,,,,,,,,,,,,,,,,,1914.766618624999,1914.7667245420016,1914.7667379589984,1914.7901817500024,1914.7901817500024,1914.7901817500024,1914.7901817500024,1917.798663499998,1917.798663499998,1918.768411459001,1,1,0.7944983749985113,0.2110702499994659,None,1918.7690332499988,1918.7691091250017,None,1918.769225666998,1918.7692642500042,None,,,,,,,,,,,,,1,4,0,1,2024-11-01_13h23.16.816,rtmindeye,2024.1.5,None,2024-11-01 13h23.30.661404 -0400,
all_stimuli/rtmindeye_stimuli/image_420_seed_1.png,4,0,0,0,1,4,1,"[9, 19, 31, 42, 56, 68, 69, 70, 71]",,,,,1,0,1,0,0,4,4,4,1918.7928860419997,,,,,,,,,,,,,,,,,,,,,,1918.7696991249977,1918.769815959,1918.7698317500035,1918.7928860419997,1918.7928860419997,1918.7928860419997,1918.7928860419997,1921.7881856250024,1921.7881856250024,1922.78201825,1,1,0.9638459160050843,0.1959313339975779,None,1922.7825287090018,1922.782605542001,None,1922.7827000840043,1922.7827319170028,None,,,,,,,,,,,,,1,4,0,1,2024-11-01_13h23.16.816,rtmindeye,2024.1.5,None,2024-11-01 13h23.30.661404 -0400,
all_stimuli/rtmindeye_stimuli/image_651_seed_1.png,5,0,0,0,1,4,1,"[9, 19, 31, 42, 56, 68, 69, 70, 71]",,,,,1,0,1,0,0,5,5,5,1922.806655417,,,,,,,,,,,,,,,,,,,,,,1922.7830822920005,1922.7831880840022,1922.783201750004,1922.806655417,1922.806655417,1922.806655417,1922.806655417,1925.817495084004,1925.817495084004,1926.785170916999,1,1,0.8201294579994283,0.20103670800017426,None,1926.7857760000043,1926.7858408340035,None,1926.7859437919979,1926.7859768749986,None,,,,,,,,,,,,,1,4,0,1,2024-11-01_13h23.16.816,rtmindeye,2024.1.5,None,2024-11-01 13h23.30.661404 -0400,
all_stimuli/rtmindeye_stimuli/image_694_seed_1.png,6,0,0,0,1,4,1,"[9, 19, 31, 42, 56, 68, 69, 70, 71]",,,,,1,0,1,0,0,6,6,6,1926.8092817920042,,,,,,,,,,,,,,,,,,,,,,1926.7863750840042,1926.7864725000036,1926.7864855419975,1926.8092817920042,1926.8092817920042,1926.8092817920042,1926.8092817920042,1929.815386084003,1929.815386084003,1930.7892250840014,1,1,0.7834822069999063,0.24498529199627228,None,1930.7898793339991,1930.7899565420012,None,1930.7900721670012,1930.7901111669998,None,,,,,,,,,,,,,1,4,0,1,2024-11-01_13h23.16.816,rtmindeye,2024.1.5,None,2024-11-01 13h23.30.661404 -0400,
all_stimuli/rtmindeye_stimuli/image_358_seed_1.png,7,0,0,0,1,4,1,"[9, 19, 31, 42, 56, 68, 69, 70, 71]",,,,,1,0,1,0,0,7,7,7,1930.816345291998,,,,,,,,,,,,,,,,,,,,,,1930.7905354590039,1930.790662667001,1930.7906785840023,1930.816345291998,1930.816345291998,1930.816345291998,1930.816345291998,1933.8182432920003,1933.8182432920003,1934.7987744999991,1,1,0.8053572489952785,0.21201258300425252,None,1934.7992863750042,1934.7993495420014,None,1934.7994550420044,1934.7994877500023,None,,,,,,,,,,,,,1,4,0,1,2024-11-01_13h23.16.816,rtmindeye,2024.1.5,None,2024-11-01 13h23.30.661404 -0400,
all_stimuli/rtmindeye_stimuli/image_153_seed_1.png,8,0,0,0,1,4,1,"[9, 19, 31, 42, 56, 68, 69, 70, 71]",,,,,1,0,1,0,0,8,8,8,1934.8237690840033,,,,,,,,,,,,,,,,,,,,,,1934.799857083999,1934.7999519170044,1934.7999675840038,1934.8237690840033,1934.8237690840033,1934.8237690840033,1934.8237690840033,1937.8346081249983,1937.8346081249983,1938.8018488750022,1,1,1.2769660819976707,0.18405995899956906,None,1938.8024756669984,1938.8025512090026,None,1938.8026697500027,1938.8027086669972,None,,,,,,,,,,,,,1,4,0,1,2024-11-01_13h23.16.816,rtmindeye,2024.1.5,None,2024-11-01 13h23.30.661404 -0400,
blank.jpg,9,1,0,0,1,4,1,"[9, 19, 31, 42, 56, 68, 69, 70, 71]",,,,,1,0,1,0,0,9,9,9,1938.815433249998,,,,,,,,,,,,,,,,,,,,,,1938.8031334589978,1938.8032500839981,1938.8032657919975,1938.815433249998,1938.815433249998,1938.815433249998,1938.815433249998,1941.8177270000015,1941.8177270000015,1942.799022375002,None,0,,,None,1942.7994249999974,1942.7994910839989,None,1942.799593542004,1942.7996259170031,None,1942.8243289590027,1942.8243289590027,,,,,,,,,,,1,4,0,1,2024-11-01_13h23.16.816,rtmindeye,2024.1.5,None,2024-11-01 13h23.30.661404 -0400,
all_stimuli/rtmindeye_stimuli/image_565_seed_1.png,10,0,0,0,1,4,1,"[9, 19, 31, 42, 56, 68, 69, 70, 71]",,,,,1,0,1,0,0,10,10,10,1942.8243289590027,,,,,,,,,,,,,,,,,,,,,,1942.800023625001,1942.800115625003,1942.800128458999,1942.8243289590027,1942.8243289590027,1942.8243289590027,1942.8243289590027,1945.8185487090013,1945.8185487090013,1946.8022610000044,1,1,0.8654141660008463,0.16200666600343538,None,1946.8034739590003,1946.803554416998,None,1946.8036772499981,1946.8037187090013,None,,,,,,,,,,,,,1,4,0,1,2024-11-01_13h23.16.816,rtmindeye,2024.1.5,None,2024-11-01 13h23.30.661404 -0400,
all_stimuli/rtmindeye_stimuli/image_8_seed_1.png,11,0,0,0,1,4,1,"[9, 19, 31, 42, 56, 68, 69, 70, 71]",,,,,1,0,1,0,0,11,11,11,1946.8287088750003,,,,,,,,,,,,,,,,,,,,,,1946.8042040420041,1946.804324124998,1946.8043397090005,1946.8287088750003,1946.8287088750003,1946.8287088750003,1946.8287088750003,1949.834638417,1949.834638417,1950.8176137920018,1,1,1.0880609580053715,0.20906749999994645,None,1950.8186120000028,1950.8187200419998,None,1950.8188559170012,1950.8189065000042,None,,,,,,,,,,,,,1,4,0,1,2024-11-01_13h23.16.816,rtmindeye,2024.1.5,None,2024-11-01 13h23.30.661404 -0400,
all_stimuli/rtmindeye_stimuli/image_152_seed_1.png,12,0,0,0,1,4,1,"[9, 19, 31, 42, 56, 68, 69, 70, 71]",,,,,1,0,1,0,0,12,12,12,1950.8421158339988,,,,,,,,,,,,,,,,,,,,,,1950.8197239590008,1950.8198708339987,1950.8198881670032,1950.8421158339988,1950.8421158339988,1950.8421158339988,1950.8421158339988,1953.848761250003,1953.848761250003,1954.8321282920006,1,1,1.2707501249969937,0.19897462500375696,None,1954.8327750840035,1954.8328682089996,None,1954.8329858750003,1954.8330251669977,None,,,,,,,,,,,,,1,4,0,1,2024-11-01_13h23.16.816,rtmindeye,2024.1.5,None,2024-11-01 13h23.30.661404 -0400,
all_stimuli/rtmindeye_stimuli/image_173_seed_1.png,13,0,0,0,1,4,1,"[9, 19, 31, 42, 56, 68, 69, 70, 71]",,,,,1,0,1,0,0,13,13,13,1954.8574558750042,,,,,,,,,,,,,,,,,,,,,,1954.833465292002,1954.8335822090012,1954.833598541998,1954.8574558750042,1954.8574558750042,1954.8574558750042,1954.8574558750042,1957.8526015419993,1957.8526015419993,1958.835787750002,1,1,0.6793814159973408,0.1669529999999213,None,1958.8362989169982,1958.8363613340043,None,1958.8364553749998,1958.8364870840014,None,,,,,,,,,,,,,1,4,0,1,2024-11-01_13h23.16.816,rtmindeye,2024.1.5,None,2024-11-01 13h23.30.661404 -0400,
all_stimuli/rtmindeye_stimuli/4_22.png,14,0,0,0,1,4,1,"[9, 19, 31, 42, 56, 68, 69, 70, 71]",,,,,1,0,1,0,0,14,14,14,1958.8516392090023,,,,,,,,,,,,,,,,,,,,,,1958.8368372920013,1958.8369319589983,1958.8369450000027,1958.8516392090023,1958.8516392090023,1958.8516392090023,1958.8516392090023,1961.852201667003,1961.852201667003,1962.8352880419989,1,1,0.8671520409989171,0.18911104099970544,None,1962.8359144170026,1962.8359875840033,None,1962.8361030000015,1962.836142334003,None,1962.8610543340037,1962.8610543340037,,,,,,,,,,,1,4,0,1,2024-11-01_13h23.16.816,rtmindeye,2024.1.5,None,2024-11-01 13h23.30.661404 -0400,
all_stimuli/rtmindeye_stimuli/image_648_seed_1.png,15,0,0,0,1,4,1,"[9, 19, 31, 42, 56, 68, 69, 70, 71]",,,,,1,0,1,0,0,15,15,15,1962.8610543340037,,,,,,,,,,,,,,,,,,,,,,1962.8365969590013,1962.8367097500013,1962.8367255420017,1962.8610543340037,1962.8610543340037,1962.8610543340037,1962.8610543340037,1965.865524959001,1965.865524959001,1966.8488329169995,1,1,0.7437923329998739,0.1760740829995484,None,1966.8493626670024,1966.849440124999,None,1966.8495492919974,1966.8495881249983,None,,,,,,,,,,,,,1,4,0,1,2024-11-01_13h23.16.816,rtmindeye,2024.1.5,None,2024-11-01 13h23.30.661404 -0400,
all_stimuli/rtmindeye_stimuli/image_618_seed_1.png,16,0,0,0,1,4,1,"[9, 19, 31, 42, 56, 68, 69, 70, 71]",,,,,1,0,1,0,0,16,16,16,1966.874728709001,,,,,,,,,,,,,,,,,,,,,,1966.8500286670023,1966.8501460420011,1966.8501622500044,1966.874728709001,1966.874728709001,1966.874728709001,1966.874728709001,1969.868835250003,1969.868835250003,1970.8524959999995,1,1,1.128112708000117,0.19212004099972546,None,1970.8530136249974,1970.8530751670041,None,1970.8531732920019,1970.853205667001,None,,,,,,,,,,,,,1,4,0,1,2024-11-01_13h23.16.816,rtmindeye,2024.1.5,None,2024-11-01 13h23.30.661404 -0400,
all_stimuli/rtmindeye_stimuli/image_13_seed_1.png,17,0,0,0,1,4,1,"[9, 19, 31, 42, 56, 68, 69, 70, 71]",,,,,1,0,1,0,0,17,17,17,1970.8798862500043,,,,,,,,,,,,,,,,,,,,,,1970.853563124998,1970.853661209003,1970.8536742920041,1970.8798862500043,1970.8798862500043,1970.8798862500043,1970.8798862500043,1973.8822515420034,1973.8822515420034,1974.865609624998,1,1,0.8140284580003936,0.20493854099913733,None,1974.86612875,1974.866192667003,None,1974.8663045420035,1974.8663367089976,None,,,,,,,,,,,,,1,4,0,1,2024-11-01_13h23.16.816,rtmindeye,2024.1.5,None,2024-11-01 13h23.30.661404 -0400,
all_stimuli/rtmindeye_stimuli/image_593_seed_1.png,18,0,0,0,1,4,1,"[9, 19, 31, 42, 56, 68, 69, 70, 71]",,,,,1,0,1,0,0,18,18,18,1974.8882562090002,,,,,,,,,,,,,,,,,,,,,,1974.8667023750022,1974.8667988750021,1974.8668119170034,1974.8882562090002,1974.8882562090002,1974.8882562090002,1974.8882562090002,1977.8852647500025,1977.8852647500025,1978.870889042002,1,1,0.7886952909975662,0.18898849999823142,None,1978.8715337500034,1978.8716136669973,None,1978.8717343750031,1978.8717732500008,None,,,,,,,,,,,,,1,4,0,1,2024-11-01_13h23.16.816,rtmindeye,2024.1.5,None,2024-11-01 13h23.30.661404 -0400,
blank.jpg,19,1,0,0,1,4,1,"[9, 19, 31, 42, 56, 68, 69, 70, 71]",,,,,1,0,1,0,0,19,19,19,1978.8990020420024,,,,,,,,,,,,,,,,,,,,,,1978.8722056670013,1978.8723502920038,1978.872369042001,1978.8990020420024,1978.8990020420024,1978.8990020420024,1978.8990020420024,1981.8889948750002,1981.8889948750002,1982.8829347920037,None,0,,,None,1982.8841309589989,1982.884270292001,None,1982.8844066250022,1982.8844549589994,None,,,,,,,,,,,,,1,4,0,1,2024-11-01_13h23.16.816,rtmindeye,2024.1.5,None,2024-11-01 13h23.30.661404 -0400,
all_stimuli/rtmindeye_stimuli/image_66_seed_1.png,20,0,0,0,1,4,1,"[9, 19, 31, 42, 56, 68, 69, 70, 71]",,,,,1,0,1,0,0,20,20,20,1982.9119102499972,,,,,,,,,,,,,,,,,,,,,,1982.8850735419983,1982.8853497090022,1982.8853670840035,1982.9119102499972,1982.9119102499972,1982.9119102499972,1982.9119102499972,1985.9179784169974,1985.9179784169974,1986.885811084001,1,1,0.7660770410002442,0.18592545799765503,None,1986.8864441250043,1986.8865236670026,None,1986.8866425840024,1986.8866835419976,None,,,,,,,,,,,,,1,4,0,1,2024-11-01_13h23.16.816,rtmindeye,2024.1.5,None,2024-11-01 13h23.30.661404 -0400,
all_stimuli/rtmindeye_stimuli/image_343_seed_1.png,21,0,0,0,1,4,1,"[9, 19, 31, 42, 56, 68, 69, 70, 71]",,,,,1,0,1,0,0,21,21,21,1986.912299167001,,,,,,,,,,,,,,,,,,,,,,1986.887186,1986.887304374999,1986.8873229169985,1986.912299167001,1986.912299167001,1986.912299167001,1986.912299167001,1989.9009072089975,1989.9009072089975,1990.9013326249988,1,1,0.9876295819994994,0.18804362499940908,None,1990.901955209003,1990.9020291670022,None,1990.9021482919998,1990.9021869999997,None,,,,,,,,,,,,,1,4,0,1,2024-11-01_13h23.16.816,rtmindeye,2024.1.5,None,2024-11-01 13h23.30.661404 -0400,
all_stimuli/rtmindeye_stimuli/image_47_seed_1.png,22,0,0,0,1,4,1,"[9, 19, 31, 42, 56, 68, 69, 70, 71]",,,,,1,0,1,0,0,22,22,22,1990.9273609590018,,,,,,,,,,,,,,,,,,,,,,1990.9026330839988,1990.902757208998,1990.9027760840036,1990.9273609590018,1990.9273609590018,1990.9273609590018,1990.9273609590018,1993.9324332920005,1993.9324332920005,1994.9158149170034,1,1,1.0126297070019064,0.20092433399986476,None,1994.9164801250008,1994.9165607500036,None,1994.9166795420024,1994.9167193750036,None,,,,,,,,,,,,,1,4,0,1,2024-11-01_13h23.16.816,rtmindeye,2024.1.5,None,2024-11-01 13h23.30.661404 -0400,
all_stimuli/rtmindeye_stimuli/15_89.png,23,0,0,0,1,4,1,"[9, 19, 31, 42, 56, 68, 69, 70, 71]",,,,,1,0,1,0,0,23,23,23,1994.9352551249976,,,,,,,,,,,,,,,,,,,,,,1994.9171935420018,1994.9173474999989,1994.917363749999,1994.9352551249976,1994.9352551249976,1994.9352551249976,1994.9352551249976,1997.9323425839975,1997.9323425839975,1998.9180885840033,1,1,0.9836889990037889,0.1870445419990574,None,1998.9187205420021,1998.918797792001,None,1998.9189125420016,1998.9189512500016,None,,,,,,,,,,,,,1,4,0,1,2024-11-01_13h23.16.816,rtmindeye,2024.1.5,None,2024-11-01 13h23.30.661404 -0400,
all_stimuli/rtmindeye_stimuli/image_280_seed_1.png,24,0,0,0,1,4,1,"[9, 19, 31, 42, 56, 68, 69, 70, 71]",,,,,1,0,1,0,0,24,24,24,1998.9432200419978,,,,,,,,,,,,,,,,,,,,,,1998.919377667,1998.919471084002,1998.9194824169972,1998.9432200419978,1998.9432200419978,1998.9432200419978,1998.9432200419978,2001.948974125,2001.948974125,2002.935526041998,1,1,0.9987615830032155,0.1979800829940359,None,2002.9361511250027,2002.9362242499992,None,2002.9363420419977,2002.9363827499983,None,,,,,,,,,,,,,1,4,0,1,2024-11-01_13h23.16.816,rtmindeye,2024.1.5,None,2024-11-01 13h23.30.661404 -0400,
all_stimuli/rtmindeye_stimuli/image_445_seed_1.png,25,0,0,0,1,4,1,"[9, 19, 31, 42, 56, 68, 69, 70, 71]",,,,,1,0,1,0,0,25,25,25,2002.9604367920037,,,,,,,,,,,,,,,,,,,,,,2002.9368176670032,2002.9369345840023,2002.9369505420036,2002.9604367920037,2002.9604367920037,2002.9604367920037,2002.9604367920037,2005.953587834003,2005.953587834003,2006.951521875002,1,1,0.902638373998343,0.20191233399964403,None,2006.9520225419983,2006.9520785420027,None,2006.952165458999,2006.9521944169974,None,,,,,,,,,,,,,1,4,0,1,2024-11-01_13h23.16.816,rtmindeye,2024.1.5,None,2024-11-01 13h23.30.661404 -0400,
all_stimuli/rtmindeye_stimuli/image_677_seed_1.png,26,0,0,0,1,4,1,"[9, 19, 31, 42, 56, 68, 69, 70, 71]",,,,,1,0,1,0,0,26,26,26,2006.9781168339978,,,,,,,,,,,,,,,,,,,,,,2006.9525088750015,2006.952594041999,2006.9526052919973,2006.9781168339978,2006.9781168339978,2006.9781168339978,2006.9781168339978,2009.9846450839977,2009.9846450839977,2010.9657507090014,1,1,1.0549301659993944,0.1869953749992419,None,2010.9663706670035,2010.9664610000036,None,2010.966578792002,2010.9666182090004,None,,,,,,,,,,,,,1,4,0,1,2024-11-01_13h23.16.816,rtmindeye,2024.1.5,None,2024-11-01 13h23.30.661404 -0400,
all_stimuli/rtmindeye_stimuli/image_16_seed_1.png,27,0,0,0,1,4,1,"[9, 19, 31, 42, 56, 68, 69, 70, 71]",,,,,1,0,1,0,0,27,27,27,2010.9941676669987,,,,,,,,,,,,,,,,,,,,,,2010.967056166999,2010.9671921670015,2010.9672107919978,2010.9941676669987,2010.9941676669987,2010.9941676669987,2010.9941676669987,2013.9856466670026,2013.9856466670026,2014.9677777090037,1,1,0.8279099159990437,0.16096899999683956,None,2014.9680980839985,2014.9681367500016,None,2014.9681947920035,2014.9682142919992,None,,,,,,,,,,,,,1,4,0,1,2024-11-01_13h23.16.816,rtmindeye,2024.1.5,None,2024-11-01 13h23.30.661404 -0400,
all_stimuli/rtmindeye_stimuli/image_530_seed_1.png,28,0,0,0,1,4,1,"[9, 19, 31, 42, 56, 68, 69, 70, 71]",,,,,1,0,1,0,0,28,28,28,2014.9845497499991,,,,,,,,,,,,,,,,,,,,,,2014.968433916998,2014.9684926249975,2014.9685000840036,2014.9845497499991,2014.9845497499991,2014.9845497499991,2014.9845497499991,2017.9823430000033,2017.9823430000033,2018.9685395839988,2,0,1.5155230410018703,0.2079503749992,None,2018.9689816669998,2018.9690341250025,None,2018.969114874999,2018.9691412090033,None,2018.9933728750038,2018.9933728750038,,,,,,,,,,,1,4,0,1,2024-11-01_13h23.16.816,rtmindeye,2024.1.5,None,2024-11-01 13h23.30.661404 -0400,
all_stimuli/rtmindeye_stimuli/image_134_seed_1.png,29,0,0,0,1,4,1,"[9, 19, 31, 42, 56, 68, 69, 70, 71]",,,,,1,0,1,0,0,29,29,29,2018.9933728750038,,,,,,,,,,,,,,,,,,,,,,2018.9694710420008,2018.9695494999978,2018.9695606250025,2018.9933728750038,2018.9933728750038,2018.9933728750038,2018.9933728750038,2022.001354084001,2022.001354084001,2022.9824746250015,1,1,1.1597032490026322,0.1839696669994737,None,2022.9830970420007,2022.983172250002,None,2022.9833010840011,2022.9833404590026,None,,,,,,,,,,,,,1,4,0,1,2024-11-01_13h23.16.816,rtmindeye,2024.1.5,None,2024-11-01 13h23.30.661404 -0400,
all_stimuli/rtmindeye_stimuli/w_pool1.jpg,30,0,0,0,1,4,1,"[9, 19, 31, 42, 56, 68, 69, 70, 71]",,,,,1,0,1,0,0,30,30,30,2022.998829917,,,,,,,,,,,,,,,,,,,,,,2022.9837807500007,2022.9839001250002,2022.9839164170044,2022.998829917,2022.998829917,2022.998829917,2022.998829917,2026.0018740840023,2026.0018740840023,2026.9826269999976,1,1,1.2442629159995704,0.18702075000328477,None,2026.9832635839994,2026.9833492090038,None,2026.9834661249988,2026.9835036669974,None,2026.993786375002,2026.993786375002,,,,,,,,,,,1,4,0,1,2024-11-01_13h23.16.816,rtmindeye,2024.1.5,None,2024-11-01 13h23.30.661404 -0400,
blank.jpg,31,1,0,0,1,4,1,"[9, 19, 31, 42, 56, 68, 69, 70, 71]",,,,,1,0,1,0,0,31,31,31,2026.993786375002,,,,,,,,,,,,,,,,,,,,,,2026.9839340420003,2026.9840463340006,2026.984062292002,2026.993786375002,2026.993786375002,2026.993786375002,2026.993786375002,2029.986125042,2029.986125042,2030.9828171670015,None,0,,,None,2030.9832499589975,2030.9833230419972,None,2030.9834461670034,2030.9834832499982,None,2031.012667791998,2031.012667791998,,,,,,,,,,,1,4,0,1,2024-11-01_13h23.16.816,rtmindeye,2024.1.5,None,2024-11-01 13h23.30.661404 -0400,
all_stimuli/rtmindeye_stimuli/image_591_seed_1.png,32,0,0,0,1,4,1,"[9, 19, 31, 42, 56, 68, 69, 70, 71]",,,,,1,0,1,0,0,32,32,32,2031.012667791998,,,,,,,,,,,,,,,,,,,,,,2030.9839162920034,2030.9840291250002,2030.9840451670025,2031.012667791998,2031.012667791998,2031.012667791998,2031.012667791998,2034.0196554170034,2034.0196554170034,2034.9847065420036,1,1,1.123408624996955,0.20098475000122562,None,2034.9851559169983,2034.985209917002,None,2034.9852926250023,2034.9853202919985,None,,,,,,,,,,,,,1,4,0,1,2024-11-01_13h23.16.816,rtmindeye,2024.1.5,None,2024-11-01 13h23.30.661404 -0400,
all_stimuli/rtmindeye_stimuli/image_523_seed_1.png,33,0,0,0,1,4,1,"[9, 19, 31, 42, 56, 68, 69, 70, 71]",,,,,1,0,1,0,0,33,33,33,2035.0112538340036,,,,,,,,,,,,,,,,,,,,,,2034.9856216249973,2034.9857025419988,2034.9857137920044,2035.0112538340036,2035.0112538340036,2035.0112538340036,2035.0112538340036,2038.0184818749985,2038.0184818749985,2038.9858407499996,1,1,1.3198769160007942,0.18518887500249548,None,2038.9864698340025,2038.9865462919988,None,2038.9866638340027,2038.9867040840036,None,,,,,,,,,,,,,1,4,0,1,2024-11-01_13h23.16.816,rtmindeye,2024.1.5,None,2024-11-01 13h23.30.661404 -0400,
all_stimuli/rtmindeye_stimuli/image_184_seed_1.png,34,0,0,0,1,4,1,"[9, 19, 31, 42, 56, 68, 69, 70, 71]",,,,,1,0,1,0,0,34,34,34,2039.011395792004,,,,,,,,,,,,,,,,,,,,,,2038.9871353339986,2038.9872562090022,2038.9872752919982,2039.011395792004,2039.011395792004,2039.011395792004,2039.011395792004,2042.0177994999976,2042.0177994999976,2042.9992734589978,1,1,0.9017682490011794,0.18401508399983868,None,2042.9997934589992,2042.9998565420028,None,2042.9999515000018,2042.99998375,None,,,,,,,,,,,,,1,4,0,1,2024-11-01_13h23.16.816,rtmindeye,2024.1.5,None,2024-11-01 13h23.30.661404 -0400,
all_stimuli/rtmindeye_stimuli/image_54_seed_1.png,35,0,0,0,1,4,1,"[9, 19, 31, 42, 56, 68, 69, 70, 71]",,,,,1,0,1,0,0,35,35,35,2043.0257925000042,,,,,,,,,,,,,,,,,,,,,,2043.000337958998,2043.0004341669992,2043.0004470839995,2043.0257925000042,2043.0257925000042,2043.0257925000042,2043.0257925000042,2046.018792709001,2046.018792709001,2047.001072334002,1,1,0.8783648329990683,0.18601508300343994,None,2047.0021246250035,2047.002227375,None,2047.0023582499998,2047.0024002920036,None,,,,,,,,,,,,,1,4,0,1,2024-11-01_13h23.16.816,rtmindeye,2024.1.5,None,2024-11-01 13h23.30.661404 -0400,
all_stimuli/rtmindeye_stimuli/image_585_seed_1.png,36,0,1,0,1,4,1,"[9, 19, 31, 42, 56, 68, 69, 70, 71]",,,,,1,0,1,0,0,36,36,36,2047.0251416669998,,,,,,,,,,,,,,,,,,,,,,2047.002911292002,2047.0030439170005,2047.0030605840002,2047.0251416669998,2047.0251416669998,2047.0251416669998,2047.0251416669998,2050.020647917001,2050.020647917001,2051.0040003340036,2,1,0.9659636249998584,0.1919677080004476,None,2051.004609042,2051.004676124998,None,2051.0047744589974,2051.0048116670005,None,,,,,,,,,,,,,1,4,0,1,2024-11-01_13h23.16.816,rtmindeye,2024.1.5,None,2024-11-01 13h23.30.661404 -0400,
all_stimuli/rtmindeye_stimuli/19_56.png,37,0,0,0,1,4,1,"[9, 19, 31, 42, 56, 68, 69, 70, 71]",,,,,1,0,1,0,0,37,37,37,2051.020702959002,,,,,,,,,,,,,,,,,,,,,,2051.005188834002,2051.005316667004,2051.005330084001,2051.020702959002,2051.020702959002,2051.020702959002,2051.020702959002,2054.035033084001,2054.035033084001,2055.015983958998,1,1,0.9264861660049064,0.2019003339955816,None,2055.0166253749994,2055.016701667002,None,2055.016821625002,2055.016861791999,None,,,,,,,,,,,,,1,4,0,1,2024-11-01_13h23.16.816,rtmindeye,2024.1.5,None,2024-11-01 13h23.30.661404 -0400,
all_stimuli/rtmindeye_stimuli/image_22_seed_1.png,38,0,0,0,1,4,1,"[9, 19, 31, 42, 56, 68, 69, 70, 71]",,,,,1,0,1,0,0,38,38,38,2055.0454536250036,,,,,,,,,,,,,,,,,,,,,,2055.0173048750003,2055.017435667003,2055.017454708999,2055.0454536250036,2055.0454536250036,2055.0454536250036,2055.0454536250036,2058.038465292004,2058.038465292004,2059.022750584001,1,1,1.0297215829996276,0.1970128749962896,None,2059.023472708999,2059.023550334001,None,2059.023665624998,2059.023704291998,None,,,,,,,,,,,,,1,4,0,1,2024-11-01_13h23.16.816,rtmindeye,2024.1.5,None,2024-11-01 13h23.30.661404 -0400,
all_stimuli/rtmindeye_stimuli/image_242_seed_1.png,39,0,1,0,1,4,1,"[9, 19, 31, 42, 56, 68, 69, 70, 71]",,,,,1,0,1,0,0,39,39,39,2059.0483475,,,,,,,,,,,,,,,,,,,,,,2059.0241319589986,2059.0242969590036,2059.0243136670033,2059.0483475,2059.0483475,2059.0483475,2059.0483475,2062.0356885,2062.0356885,2063.036058083999,2,1,1.643826123996405,0.19506600000022445,None,2063.037429584001,2063.0375891250005,None,2063.037756167003,2063.037816584001,None,,,,,,,,,,,,,1,4,0,1,2024-11-01_13h23.16.816,rtmindeye,2024.1.5,None,2024-11-01 13h23.30.661404 -0400,
all_stimuli/rtmindeye_stimuli/image_231_seed_1.png,40,0,0,0,1,4,1,"[9, 19, 31, 42, 56, 68, 69, 70, 71]",,,,,1,0,1,0,0,40,40,40,2063.0621224589995,,,,,,,,,,,,,,,,,,,,,,2063.0386139170005,2063.038766083999,2063.038784000004,2063.0621224589995,2063.0621224589995,2063.0621224589995,2063.0621224589995,2066.053736709,2066.053736709,2067.0522980000023,1,1,1.047103707001952,0.1869162500006496,None,2067.0529117089973,2067.052986292001,None,2067.053105209001,2067.0531443750006,None,,,,,,,,,,,,,1,4,0,1,2024-11-01_13h23.16.816,rtmindeye,2024.1.5,None,2024-11-01 13h23.30.661404 -0400,
all_stimuli/rtmindeye_stimuli/image_697_seed_1.png,41,0,0,0,1,4,1,"[9, 19, 31, 42, 56, 68, 69, 70, 71]",,,,,1,0,1,0,0,41,41,41,2067.079446625001,,,,,,,,,,,,,,,,,,,,,,2067.053578584004,2067.053699584001,2067.0537187500013,2067.079446625001,2067.079446625001,2067.079446625001,2067.079446625001,2070.082759584002,2070.082759584002,2071.068353333998,1,1,0.7318231659955927,0.17700575000344543,None,2071.0691731670013,2071.069262875004,None,2071.06935125,2071.0693834170015,None,,,,,,,,,,,,,1,4,0,1,2024-11-01_13h23.16.816,rtmindeye,2024.1.5,None,2024-11-01 13h23.30.661404 -0400,
blank.jpg,42,1,0,0,1,4,1,"[9, 19, 31, 42, 56, 68, 69, 70, 71]",,,,,1,0,1,0,0,42,42,42,2071.0787425000017,,,,,,,,,,,,,,,,,,,,,,2071.069772750001,2071.0699028340023,2071.0699144590035,2071.0787425000017,2071.0787425000017,2071.0787425000017,2071.0787425000017,2074.068946625004,2074.068946625004,2075.0693599590013,None,0,,,None,2075.0705239590025,2075.070681875004,None,2075.0709023750023,2075.0710336670018,None,2075.0989248749975,2075.0989248749975,,,,,,,,,,,1,4,0,1,2024-11-01_13h23.16.816,rtmindeye,2024.1.5,None,2024-11-01 13h23.30.661404 -0400,
all_stimuli/rtmindeye_stimuli/image_31_seed_1.png,43,0,0,0,1,4,1,"[9, 19, 31, 42, 56, 68, 69, 70, 71]",,,,,1,0,1,0,0,43,43,43,2075.0989248749975,,,,,,,,,,,,,,,,,,,,,,2075.071718416999,2075.071881750002,2075.0718987919972,2075.0989248749975,2075.0989248749975,2075.0989248749975,2075.0989248749975,2078.101823834004,2078.101823834004,2079.082634999999,1,1,1.3443404999998165,0.19922079100069823,None,2079.083152291998,2079.0832141670035,None,2079.083323375002,2079.0833564589993,None,,,,,,,,,,,,,1,4,0,1,2024-11-01_13h23.16.816,rtmindeye,2024.1.5,None,2024-11-01 13h23.30.661404 -0400,
all_stimuli/rtmindeye_stimuli/image_558_seed_1.png,44,0,0,0,1,4,1,"[9, 19, 31, 42, 56, 68, 69, 70, 71]",,,,,1,0,1,0,0,44,44,44,2079.1092850420027,,,,,,,,,,,,,,,,,,,,,,2079.083731833998,2079.0838514589996,2079.0838649590005,2079.1092850420027,2079.1092850420027,2079.1092850420027,2079.1092850420027,2082.1159145420024,2082.1159145420024,2083.0844757919986,2,0,1.590033291002328,0.19298866700410144,None,2083.0850469590005,2083.0851120000007,None,2083.085214874998,2083.0852485840005,None,,,,,,,,,,,,,1,4,0,1,2024-11-01_13h23.16.816,rtmindeye,2024.1.5,None,2024-11-01 13h23.30.661404 -0400,
all_stimuli/rtmindeye_stimuli/image_54_seed_1.png,45,0,1,0,1,4,1,"[9, 19, 31, 42, 56, 68, 69, 70, 71]",,,,,1,0,1,0,0,45,45,45,2083.1087824999995,,,,,,,,,,,,,,,,,,,,,,2083.085618500001,2083.0857146670023,2083.0857276250026,2083.1087824999995,2083.1087824999995,2083.1087824999995,2083.1087824999995,2086.102435917004,2086.102435917004,2087.099482874997,2,1,0.9824483330012299,0.17306824999832315,None,2087.100097542003,2087.100182791997,None,2087.100298917001,2087.100337959004,None,,,,,,,,,,,,,1,4,0,1,2024-11-01_13h23.16.816,rtmindeye,2024.1.5,None,2024-11-01 13h23.30.661404 -0400,
all_stimuli/rtmindeye_stimuli/image_474_seed_1.png,46,0,1,0,1,4,1,"[9, 19, 31, 42, 56, 68, 69, 70, 71]",,,,,1,0,1,0,0,46,46,46,2087.1252635420024,,,,,,,,,,,,,,,,,,,,,,2087.100785625,2087.100905459003,2087.100924709004,2087.1252635420024,2087.1252635420024,2087.1252635420024,2087.1252635420024,2090.1192301670017,2090.1192301670017,2091.102409625004,2,1,0.8810721240006387,0.15204587500193156,None,2091.103453584001,2091.1036302089997,None,2091.1037934589986,2091.1038561669993,None,,,,,,,,,,,,,1,4,0,1,2024-11-01_13h23.16.816,rtmindeye,2024.1.5,None,2024-11-01 13h23.30.661404 -0400,
all_stimuli/rtmindeye_stimuli/image_726_seed_1.png,47,0,0,0,1,4,1,"[9, 19, 31, 42, 56, 68, 69, 70, 71]",,,,,1,0,1,0,0,47,47,47,2091.131577291999,,,,,,,,,,,,,,,,,,,,,,2091.1046266249978,2091.105002959004,2091.1050686669987,2091.131577291999,2091.131577291999,2091.131577291999,2091.131577291999,2094.119252000004,2094.119252000004,2095.1162138340005,1,1,0.9347564580020844,0.20904745799634838,None,2095.116872958999,2095.1169521670017,None,2095.117071542001,2095.1171225840008,None,,,,,,,,,,,,,1,4,0,1,2024-11-01_13h23.16.816,rtmindeye,2024.1.5,None,2024-11-01 13h23.30.661404 -0400,
all_stimuli/rtmindeye_stimuli/image_195_seed_1.png,48,0,0,0,1,4,1,"[9, 19, 31, 42, 56, 68, 69, 70, 71]",,,,,1,0,1,0,0,48,48,48,2095.145272458998,,,,,,,,,,,,,,,,,,,,,,2095.117592499999,2095.117731874998,2095.1177478340032,2095.145272458998,2095.145272458998,2095.145272458998,2095.145272458998,2098.1359319589974,2098.1359319589974,2099.119509584001,1,1,1.2700739159990917,0.20101304099807749,None,2099.120167125002,2099.1202473340018,None,2099.1203637090002,2099.1204035420014,None,,,,,,,,,,,,,1,4,0,1,2024-11-01_13h23.16.816,rtmindeye,2024.1.5,None,2024-11-01 13h23.30.661404 -0400,
all_stimuli/rtmindeye_stimuli/image_24_seed_1.png,49,0,0,0,1,4,1,"[9, 19, 31, 42, 56, 68, 69, 70, 71]",,,,,1,0,1,0,0,49,49,49,2099.145743041998,,,,,,,,,,,,,,,,,,,,,,2099.1208414170032,2099.1209644170012,2099.1209802919984,2099.145743041998,2099.145743041998,2099.145743041998,2099.145743041998,2102.1353167920024,2102.1353167920024,2103.1353393750032,1,1,1.0105292070002179,0.39702150000084657,None,2103.1357495420016,2103.1357991250043,None,2103.1358744590034,2103.135898624998,None,,,,,,,,,,,,,1,4,0,1,2024-11-01_13h23.16.816,rtmindeye,2024.1.5,None,2024-11-01 13h23.30.661404 -0400,
all_stimuli/rtmindeye_stimuli/image_581_seed_1.png,50,0,0,0,1,4,1,"[9, 19, 31, 42, 56, 68, 69, 70, 71]",,,,,1,0,1,0,0,50,50,50,2103.1609655420034,,,,,,,,,,,,,,,,,,,,,,2103.1361697090033,2103.136256042002,2103.1362654999975,2103.1609655420034,2103.1609655420034,2103.1609655420034,2103.1609655420034,2106.1660550419983,2106.1660550419983,2107.137247167004,1,1,0.8193555820034817,0.16805120899516623,None,2107.1382764590016,2107.1384499589985,None,2107.1386833750003,2107.1387849169987,None,,,,,,,,,,,,,1,4,0,1,2024-11-01_13h23.16.816,rtmindeye,2024.1.5,None,2024-11-01 13h23.30.661404 -0400,
all_stimuli/rtmindeye_stimuli/image_403_seed_1.png,51,0,0,0,1,4,1,"[9, 19, 31, 42, 56, 68, 69, 70, 71]",,,,,1,0,1,0,0,51,51,51,2107.1642501669994,,,,,,,,,,,,,,,,,,,,,,2107.1396496250018,2107.1400174590017,2107.140060958998,2107.1642501669994,2107.1642501669994,2107.1642501669994,2107.1642501669994,2110.1526757500033,2110.1526757500033,2111.149373084001,1,1,0.9581668320024619,0.15895470899704378,None,2111.150022875001,2111.1500995840033,None,2111.1502150000015,2111.1502537920023,None,,,,,,,,,,,,,1,4,0,1,2024-11-01_13h23.16.816,rtmindeye,2024.1.5,None,2024-11-01 13h23.30.661404 -0400,
all_stimuli/rtmindeye_stimuli/image_72_seed_1.png,52,0,0,0,1,4,1,"[9, 19, 31, 42, 56, 68, 69, 70, 71]",,,,,1,0,1,0,0,52,52,52,2111.175020292001,,,,,,,,,,,,,,,,,,,,,,2111.1506874589977,2111.150822292002,2111.150838624999,2111.175020292001,2111.175020292001,2111.175020292001,2111.175020292001,2114.168841999999,2114.168841999999,2115.1532079590033,1,1,0.9773166660015704,0.1810719999994035,None,2115.154431791998,2115.154527958999,None,2115.1546182500024,2115.1546532499997,None,,,,,,,,,,,,,1,4,0,1,2024-11-01_13h23.16.816,rtmindeye,2024.1.5,None,2024-11-01 13h23.30.661404 -0400,
all_stimuli/rtmindeye_stimuli/image_638_seed_1.png,53,0,0,0,1,4,1,"[9, 19, 31, 42, 56, 68, 69, 70, 71]",,,,,1,0,1,0,0,53,53,53,2115.180198834001,,,,,,,,,,,,,,,,,,,,,,2115.1550364170034,2115.1551770419974,2115.1551885419976,2115.180198834001,2115.180198834001,2115.180198834001,2115.180198834001,2118.1827389169994,2118.1827389169994,2119.1663043750013,1,1,1.068203540999093,0.18695633300376358,None,2119.1668708750003,2119.166940709001,None,2119.167040250002,2119.167073958997,None,,,,,,,,,,,,,1,4,0,1,2024-11-01_13h23.16.816,rtmindeye,2024.1.5,None,2024-11-01 13h23.30.661404 -0400,
all_stimuli/rtmindeye_stimuli/image_205_seed_1.png,54,0,0,0,1,4,1,"[9, 19, 31, 42, 56, 68, 69, 70, 71]",,,,,1,0,1,0,0,54,54,54,2119.1911283340014,,,,,,,,,,,,,,,,,,,,,,2119.167486584003,2119.167586542004,2119.167599334003,2119.1911283340014,2119.1911283340014,2119.1911283340014,2119.1911283340014,2122.188888042001,2122.188888042001,2123.1692089999997,1,1,0.9792318330000853,0.1540572500016424,None,2123.1702804590022,2123.1703781670003,None,2123.1704569170033,2123.1704903749996,None,,,,,,,,,,,,,1,4,0,1,2024-11-01_13h23.16.816,rtmindeye,2024.1.5,None,2024-11-01 13h23.30.661404 -0400,
all_stimuli/rtmindeye_stimuli/image_197_seed_1.png,55,0,0,0,1,4,1,"[9, 19, 31, 42, 56, 68, 69, 70, 71]",,,,,1,0,1,0,0,55,55,55,2123.197426708997,,,,,,,,,,,,,,,,,,,,,,2123.1708392500004,2123.1709582500043,2123.1709681249995,2123.197426708997,2123.197426708997,2123.197426708997,2123.197426708997,2126.1872972920028,2126.1872972920028,2127.1850612920025,1,1,0.9980048739962513,0.19294741700286977,None,2127.185880083998,2127.1859762919994,None,2127.1861289169974,2127.186178459,None,,,,,,,,,,,,,1,4,0,1,2024-11-01_13h23.16.816,rtmindeye,2024.1.5,None,2024-11-01 13h23.30.661404 -0400,
blank.jpg,56,1,0,0,1,4,1,"[9, 19, 31, 42, 56, 68, 69, 70, 71]",,,,,1,0,1,0,0,56,56,56,2127.199050000003,,,,,,,,,,,,,,,,,,,,,,2127.1867759590023,2127.186964166998,2127.1869845839974,2127.199050000003,2127.199050000003,2127.199050000003,2127.199050000003,2130.186362500004,2130.186362500004,2131.1862519170027,None,0,,,None,2131.1869932089976,2131.1871523340014,None,2131.1873180420007,2131.1873774589985,None,2131.215541958998,2131.215541958998,,,,,,,,,,,1,4,0,1,2024-11-01_13h23.16.816,rtmindeye,2024.1.5,None,2024-11-01 13h23.30.661404 -0400,
all_stimuli/rtmindeye_stimuli/image_423_seed_1.png,57,0,0,0,1,4,1,"[9, 19, 31, 42, 56, 68, 69, 70, 71]",,,,,1,0,1,0,0,57,57,57,2131.215541958998,,,,,,,,,,,,,,,,,,,,,,2131.188192583999,2131.1883679169987,2131.188390042,2131.215541958998,2131.215541958998,2131.215541958998,2131.215541958998,2134.202318417003,2134.202318417003,2135.202294625,2,0,1.6568762069946388,0.1720517089997884,None,2135.2032151250023,2135.203355167003,None,2135.2034935839984,2135.2035460000043,None,,,,,,,,,,,,,1,4,0,1,2024-11-01_13h23.16.816,rtmindeye,2024.1.5,None,2024-11-01 13h23.30.661404 -0400,
all_stimuli/rtmindeye_stimuli/image_491_seed_1.png,58,0,0,0,1,4,1,"[9, 19, 31, 42, 56, 68, 69, 70, 71]",,,,,1,0,1,0,0,58,58,58,2135.2307285839997,,,,,,,,,,,,,,,,,,,,,,2135.2043065420003,2135.204463959002,2135.204489208998,2135.2307285839997,2135.2307285839997,2135.2307285839997,2135.2307285839997,2138.218902708999,2138.218902708999,2139.2162596670023,1,1,0.698785291002423,0.19390062500315253,None,2139.2169264999975,2139.2170052500005,None,2139.217121667003,2139.2171622500027,None,,,,,,,,,,,,,1,4,0,1,2024-11-01_13h23.16.816,rtmindeye,2024.1.5,None,2024-11-01 13h23.30.661404 -0400,
all_stimuli/rtmindeye_stimuli/image_707_seed_1.png,59,0,0,0,1,4,1,"[9, 19, 31, 42, 56, 68, 69, 70, 71]",,,,,1,0,1,0,0,59,59,59,2139.2447732090004,,,,,,,,,,,,,,,,,,,,,,2139.2176489589983,2139.2177953749997,2139.217811250004,2139.2447732090004,2139.2447732090004,2139.2447732090004,2139.2447732090004,2142.249477792,2142.249477792,2143.219097375004,1,1,0.7867322500023874,0.16892120800184784,None,2143.2197186249978,2143.2197935000004,None,2143.219912917004,2143.2199520840004,None,,,,,,,,,,,,,1,4,0,1,2024-11-01_13h23.16.816,rtmindeye,2024.1.5,None,2024-11-01 13h23.30.661404 -0400,
all_stimuli/rtmindeye_stimuli/image_455_seed_1.png,60,0,0,0,1,4,1,"[9, 19, 31, 42, 56, 68, 69, 70, 71]",,,,,1,0,1,0,0,60,60,60,2143.245019709,,,,,,,,,,,,,,,,,,,,,,2143.2204145840005,2143.2205363340036,2143.220556,2143.245019709,2143.245019709,2143.245019709,2143.245019709,2146.2494412919987,2146.2494412919987,2147.2357893750013,1,1,0.9944927079995978,0.18894379200355615,None,2147.236150208999,2147.236194459001,None,2147.2362611670032,2147.2362832090002,None,,,,,,,,,,,,,1,4,0,1,2024-11-01_13h23.16.816,rtmindeye,2024.1.5,None,2024-11-01 13h23.30.661404 -0400,
all_stimuli/rtmindeye_stimuli/image_668_seed_1.png,61,0,0,0,1,4,1,"[9, 19, 31, 42, 56, 68, 69, 70, 71]",,,,,1,0,1,0,0,61,61,61,2147.2608385839994,,,,,,,,,,,,,,,,,,,,,,2147.2365249170034,2147.236608584004,2147.236617417002,2147.2608385839994,2147.2608385839994,2147.2608385839994,2147.2608385839994,2150.252988250002,2150.252988250002,2151.2525739589983,1,1,1.0156159160032985,0.17111904199555283,None,2151.2536237919994,2151.2537914999994,None,2151.253958292,2151.2540211250016,None,,,,,,,,,,,,,1,4,0,1,2024-11-01_13h23.16.816,rtmindeye,2024.1.5,None,2024-11-01 13h23.30.661404 -0400,
all_stimuli/rtmindeye_stimuli/image_285_seed_1.png,62,0,0,0,1,4,1,"[9, 19, 31, 42, 56, 68, 69, 70, 71]",,,,,1,0,1,0,0,62,62,62,2151.2781433749988,,,,,,,,,,,,,,,,,,,,,,2151.2548208750013,2151.2551843340043,2151.255224834,2151.2781433749988,2151.2781433749988,2151.2781433749988,2151.2781433749988,2154.2697266250034,2154.2697266250034,2155.268425167,1,1,1.19743512399873,0.14900283300084993,None,2155.2693198749985,2155.269423209,None,2155.2695247090014,2155.269562250003,None,,,,,,,,,,,,,1,4,0,1,2024-11-01_13h23.16.816,rtmindeye,2024.1.5,None,2024-11-01 13h23.30.661404 -0400,
all_stimuli/rtmindeye_stimuli/image_6_seed_1.png,63,0,0,0,1,4,1,"[9, 19, 31, 42, 56, 68, 69, 70, 71]",,,,,1,0,1,0,0,63,63,63,2155.295859500002,,,,,,,,,,,,,,,,,,,,,,2155.269976417003,2155.2701249169986,2155.2701386249973,2155.295859500002,2155.295859500002,2155.295859500002,2155.295859500002,2158.3024977500027,2158.3024977500027,2159.284976458999,1,1,0.6796290819984279,0.19104970899934415,None,2159.2855024590026,2159.285564375001,None,2159.285658834,2159.2856911670024,None,,,,,,,,,,,,,1,4,0,1,2024-11-01_13h23.16.816,rtmindeye,2024.1.5,None,2024-11-01 13h23.30.661404 -0400,
all_stimuli/rtmindeye_stimuli/image_253_seed_1.png,64,0,0,0,1,4,1,"[9, 19, 31, 42, 56, 68, 69, 70, 71]",,,,,1,0,1,0,0,64,64,64,2159.311187917003,,,,,,,,,,,,,,,,,,,,,,2159.2860454589973,2159.286142625002,2159.286158625,2159.311187917003,2159.311187917003,2159.311187917003,2159.311187917003,2162.3162315419977,2162.3162315419977,2163.303450459003,1,1,1.4993546660043648,0.21405787499679718,None,2163.3040398340017,2163.304118166998,None,2163.3042177919997,2163.3042508750004,None,,,,,,,,,,,,,1,4,0,1,2024-11-01_13h23.16.816,rtmindeye,2024.1.5,None,2024-11-01 13h23.30.661404 -0400,
all_stimuli/rtmindeye_stimuli/image_380_seed_1.png,65,0,0,0,1,4,1,"[9, 19, 31, 42, 56, 68, 69, 70, 71]",,,,,1,0,1,0,0,65,65,65,2163.330488749998,,,,,,,,,,,,,,,,,,,,,,2163.3046318339984,2163.3047368749976,2163.3047505840004,2163.330488749998,2163.330488749998,2163.330488749998,2163.330488749998,2166.335762834002,2166.335762834002,2167.3184444590006,1,1,1.0911214990046574,0.16597429200191982,None,2167.3191144169978,2167.319188624999,None,2167.3192722919994,2167.319301249998,None,,,,,,,,,,,,,1,4,0,1,2024-11-01_13h23.16.816,rtmindeye,2024.1.5,None,2024-11-01 13h23.30.661404 -0400,
all_stimuli/rtmindeye_stimuli/image_546_seed_1.png,66,0,0,0,1,4,1,"[9, 19, 31, 42, 56, 68, 69, 70, 71]",,,,,1,0,1,0,0,66,66,66,2167.3445371670023,,,,,,,,,,,,,,,,,,,,,,2167.3196084169977,2167.319715874997,2167.3197275420025,2167.3445371670023,2167.3445371670023,2167.3445371670023,2167.3445371670023,2170.3519269590033,2170.3519269590033,2171.3330732090035,1,1,2.043006874002458,0.22008004199597053,None,2171.3338693339974,2171.333988667,None,2171.334141917003,2171.334192041999,None,,,,,,,,,,,,,1,4,0,1,2024-11-01_13h23.16.816,rtmindeye,2024.1.5,None,2024-11-01 13h23.30.661404 -0400,
all_stimuli/rtmindeye_stimuli/image_28_seed_1.png,67,0,0,0,1,4,1,"[9, 19, 31, 42, 56, 68, 69, 70, 71]",,,,,1,0,1,0,0,67,67,67,2171.362183666999,,,,,,,,,,,,,,,,,,,,,,2171.334752417002,2171.3349239590025,2171.3349442920007,2171.362183666999,2171.362183666999,2171.362183666999,2171.362183666999,2174.354890458999,2174.354890458999,2175.3363980420036,1,1,0.779354874001001,0.19898191699758172,None,2175.337023,2175.3371007090027,None,2175.337223125003,2175.337263542002,None,,,,,,,,,,,,,1,4,0,1,2024-11-01_13h23.16.816,rtmindeye,2024.1.5,None,2024-11-01 13h23.30.661404 -0400,
blank.jpg,68,1,0,0,1,4,1,"[9, 19, 31, 42, 56, 68, 69, 70, 71]",,,,,1,0,1,0,0,68,68,68,2175.3488447089985,,,,,,,,,,,,,,,,,,,,,,2175.337813083999,2175.337970959001,2175.337991334003,2175.3488447089985,2175.3488447089985,2175.3488447089985,2175.3488447089985,2178.349633209,2178.349633209,2179.3353482919993,None,0,,,None,2179.3356360420003,2179.335682834004,None,2179.335768834004,2179.3357925419987,None,2179.3496725000005,2179.3496725000005,,,,,,,,,,,1,4,0,1,2024-11-01_13h23.16.816,rtmindeye,2024.1.5,None,2024-11-01 13h23.30.661404 -0400,
blank.jpg,69,1,0,1,1,4,0,"[9, 19, 31, 42, 56, 68, 69, 70, 71]",,,,,1,0,1,0,0,69,69,69,2179.3496725000005,,,,,,,,,,,,,,,,,,,,,,2179.3360703340004,2179.3361389170022,2179.3361485839996,2179.3496725000005,2179.3496725000005,2179.3496725000005,2179.3496725000005,2182.349567958998,2182.349567958998,2183.3365346670034,None,0,,,None,2183.336983292,2198.470735750001,1,2198.471346999999,2216.9045202920024,equal,2183.3541610419998,2183.3541610419998,2183.3541610419998,2183.3541610419998,15.107618832997105,None,2198.4831910420035,2198.4831910420035,18.41658266599552,None,,,1,4,0,1,2024-11-01_13h23.16.816,rtmindeye,2024.1.5,None,2024-11-01 13h23.30.661404 -0400,
,,,,,,,,,,,,,1,0,1,0,,,,,,,,,,,,,,,,,,,,,,,,,,,,,,,,,,,,,,,,,,,,,,,,,,,,,,,,,,,,1,4,0,1,2024-11-01_13h23.16.816,rtmindeye,2024.1.5,None,2024-11-01 13h23.30.661404 -0400,
all_stimuli/rtmindeye_stimuli/image_248_seed_1.png,0,0,0,0,2,4,1,"[9, 19, 29, 39, 49, 59, 68, 69, 70, 71]",,,,,2,0,2,0,0,0,0,0,2216.945560334003,,,,,,,,,,,,,,,,,,,,,,2216.924258125,2216.9246253340025,2216.9246398340038,2216.945560334003,2216.945560334003,2216.945560334003,2216.945560334003,2219.9364408750043,2219.9364408750043,2220.9331509589974,1,1,0.8841584580004564,0.1631877079998958,None,2220.9338232090013,2220.9338735839992,None,2220.9340157920014,2220.934040209002,None,,,,,,,,,,,,,1,4,0,1,2024-11-01_13h23.16.816,rtmindeye,2024.1.5,None,2024-11-01 13h23.30.661404 -0400,
all_stimuli/rtmindeye_stimuli/image_30_seed_1.png,1,0,0,0,2,4,1,"[9, 19, 29, 39, 49, 59, 68, 69, 70, 71]",,,,,2,0,2,0,0,1,1,1,2220.9618653750003,,,,,,,,,,,,,,,,,,,,,,2220.934357209,2220.9354539999986,2220.9354687919986,2220.9618653750003,2220.9618653750003,2220.9618653750003,2220.9618653750003,2223.9565379589985,2223.9565379589985,2224.9389257919975,1,1,0.9679287079998176,0.17593495799519587,None,2224.9394424170023,2224.939503624999,None,2224.939601459002,2224.9396333749974,None,,,,,,,,,,,,,1,4,0,1,2024-11-01_13h23.16.816,rtmindeye,2024.1.5,None,2024-11-01 13h23.30.661404 -0400,
all_stimuli/rtmindeye_stimuli/paired_image_547_1.png,2,0,0,0,2,4,1,"[9, 19, 29, 39, 49, 59, 68, 69, 70, 71]",,,,,2,0,2,0,0,2,2,2,2224.961178042002,,,,,,,,,,,,,,,,,,,,,,2224.939986917001,2224.9400870000027,2224.9401002919985,2224.961178042002,2224.961178042002,2224.961178042002,2224.961178042002,2227.969331542001,2227.969331542001,2228.949841792004,1,1,0.836670333002985,0.1589934160001576,None,2228.9504976250028,2228.9505750840035,None,2228.950694459003,2228.950732709003,None,,,,,,,,,,,,,1,4,0,1,2024-11-01_13h23.16.816,rtmindeye,2024.1.5,None,2024-11-01 13h23.30.661404 -0400,
all_stimuli/rtmindeye_stimuli/image_669_seed_1.png,3,0,0,0,2,4,1,"[9, 19, 29, 39, 49, 59, 68, 69, 70, 71]",,,,,2,0,2,0,0,3,3,3,2228.9783840419987,,,,,,,,,,,,,,,,,,,,,,2228.9512719589984,2228.9514362920017,2228.951459459,2228.9783840419987,2228.9783840419987,2228.9783840419987,2228.9783840419987,2231.985396666998,2231.985396666998,2232.952804917004,1,1,0.776397873996757,0.14401654199900804,None,2232.9534218749977,2232.953497084003,None,2232.9536154590023,2232.9536563340007,None,,,,,,,,,,,,,1,4,0,1,2024-11-01_13h23.16.816,rtmindeye,2024.1.5,None,2024-11-01 13h23.30.661404 -0400,
all_stimuli/rtmindeye_stimuli/image_685_seed_1.png,4,0,0,0,2,4,1,"[9, 19, 29, 39, 49, 59, 68, 69, 70, 71]",,,,,2,0,2,0,0,4,4,4,2232.9761454590043,,,,,,,,,,,,,,,,,,,,,,2232.954087792001,2232.9542057090002,2232.9542215000038,2232.9761454590043,2232.9761454590043,2232.9761454590043,2232.9761454590043,2235.9696617500013,2235.9696617500013,2236.9686126250017,1,1,1.927634373998444,0.222061542001029,None,2236.969189125004,2236.9692593750005,None,2236.969358000002,2236.9693914590025,None,,,,,,,,,,,,,1,4,0,1,2024-11-01_13h23.16.816,rtmindeye,2024.1.5,None,2024-11-01 13h23.30.661404 -0400,
all_stimuli/rtmindeye_stimuli/image_718_seed_1.png,5,0,0,0,2,4,1,"[9, 19, 29, 39, 49, 59, 68, 69, 70, 71]",,,,,2,0,2,0,0,5,5,5,2236.996781333997,,,,,,,,,,,,,,,,,,,,,,2236.969770459,2236.969867,2236.969882792,2236.996781333997,2236.996781333997,2236.996781333997,2236.996781333997,2240.0026207089977,2240.0026207089977,2240.985495834,1,1,1.1819704990048194,0.20113008399493992,None,2240.985941459003,2240.9859940000024,None,2240.9860751250017,2240.986102916999,None,,,,,,,,,,,,,1,4,0,1,2024-11-01_13h23.16.816,rtmindeye,2024.1.5,None,2024-11-01 13h23.30.661404 -0400,
all_stimuli/rtmindeye_stimuli/image_623_seed_1.png,6,0,0,0,2,4,1,"[9, 19, 29, 39, 49, 59, 68, 69, 70, 71]",,,,,2,0,2,0,0,6,6,6,2241.0106679590026,,,,,,,,,,,,,,,,,,,,,,2240.9864099589977,2240.986494334,2240.9865053750036,2241.0106679590026,2241.0106679590026,2241.0106679590026,2241.0106679590026,2244.0164162090005,2244.0164162090005,2245.0000112499984,1,1,0.9390929580040392,0.17299991699837847,None,2245.0006683340034,2245.0007479999986,None,2245.000883917004,2245.0009236250044,None,,,,,,,,,,,,,1,4,0,1,2024-11-01_13h23.16.816,rtmindeye,2024.1.5,None,2024-11-01 13h23.30.661404 -0400,
all_stimuli/rtmindeye_stimuli/image_485_seed_1.png,7,0,0,0,2,4,1,"[9, 19, 29, 39, 49, 59, 68, 69, 70, 71]",,,,,2,0,2,0,0,7,7,7,2245.0286201249983,,,,,,,,,,,,,,,,,,,,,,2245.0013958749987,2245.001543874998,2245.001560417004,2245.0286201249983,2245.0286201249983,2245.0286201249983,2245.0286201249983,2248.0227160840004,2248.0227160840004,2249.0034030840034,1,1,1.2832739990044502,0.20473091699386714,None,2249.004012958998,2249.004087334004,None,2249.0042018750028,2249.0042412090042,None,,,,,,,,,,,,,1,4,0,1,2024-11-01_13h23.16.816,rtmindeye,2024.1.5,None,2024-11-01 13h23.30.661404 -0400,
all_stimuli/rtmindeye_stimuli/image_254_seed_1.png,8,0,0,0,2,4,1,"[9, 19, 29, 39, 49, 59, 68, 69, 70, 71]",,,,,2,0,2,0,0,8,8,8,2249.0286926249973,,,,,,,,,,,,,,,,,,,,,,2249.0046622090013,2249.004781084004,2249.0047970419982,2249.0286926249973,2249.0286926249973,2249.0286926249973,2249.0286926249973,2252.0200197500017,2252.0200197500017,2253.005148834003,1,1,1.0641534160022275,0.1900171249944833,None,2253.0055930419985,2253.005650459003,None,2253.005736459003,2253.0057638750004,None,,,,,,,,,,,,,1,4,0,1,2024-11-01_13h23.16.816,rtmindeye,2024.1.5,None,2024-11-01 13h23.30.661404 -0400,
blank.jpg,9,1,0,0,2,4,1,"[9, 19, 29, 39, 49, 59, 68, 69, 70, 71]",,,,,2,0,2,0,0,9,9,9,2253.015877500002,,,,,,,,,,,,,,,,,,,,,,2253.006098042002,2253.006197292001,2253.0062103340024,2253.015877500002,2253.015877500002,2253.015877500002,2253.015877500002,2256.0165412920032,2256.0165412920032,2257.0037584590027,None,0,,,None,2257.004128667002,2257.0041872500005,None,2257.0042883339993,2257.0043207499984,None,2257.028135291999,2257.028135291999,,,,,,,,,,,1,4,0,1,2024-11-01_13h23.16.816,rtmindeye,2024.1.5,None,2024-11-01 13h23.30.661404 -0400,
all_stimuli/rtmindeye_stimuli/image_694_seed_1.png,10,0,1,0,2,4,1,"[9, 19, 29, 39, 49, 59, 68, 69, 70, 71]",,,,,2,0,2,0,0,10,10,10,2257.028135291999,,,,,,,,,,,,,,,,,,,,,,2257.0046797920004,2257.004770917003,2257.0047835419973,2257.028135291999,2257.028135291999,2257.028135291999,2257.028135291999,2260.033345834003,2260.033345834003,2261.016541666999,2,1,1.5607089580007596,0.20708845800254494,None,2261.017160042,2261.017234167004,None,2261.0173534999994,2261.017392624999,None,,,,,,,,,,,,,1,4,0,1,2024-11-01_13h23.16.816,rtmindeye,2024.1.5,None,2024-11-01 13h23.30.661404 -0400,
all_stimuli/rtmindeye_stimuli/image_317_seed_1.png,11,0,0,0,2,4,1,"[9, 19, 29, 39, 49, 59, 68, 69, 70, 71]",,,,,2,0,2,0,0,11,11,11,2261.0410076670014,,,,,,,,,,,,,,,,,,,,,,2261.0178285420043,2261.0179560000033,2261.017972834001,2261.0410076670014,2261.0410076670014,2261.0410076670014,2261.0410076670014,2264.0499620839983,2264.0499620839983,2265.0198966669996,1,1,0.66887445699831,0.22307512500265148,None,2265.0205134589996,2265.020588166997,None,2265.0207035420026,2265.0207420000006,None,,,,,,,,,,,,,1,4,0,1,2024-11-01_13h23.16.816,rtmindeye,2024.1.5,None,2024-11-01 13h23.30.661404 -0400,
all_stimuli/rtmindeye_stimuli/image_670_seed_1.png,12,0,0,0,2,4,1,"[9, 19, 29, 39, 49, 59, 68, 69, 70, 71]",,,,,2,0,2,0,0,12,12,12,2265.049925749998,,,,,,,,,,,,,,,,,,,,,,2265.0211675419996,2265.0213158749975,2265.0213367920005,2265.049925749998,2265.049925749998,2265.049925749998,2265.049925749998,2268.0499260840006,2268.0499260840006,2269.035949625002,1,1,1.4219480000028852,0.17309137499978533,None,2269.03712275,2269.037419500004,None,2269.0376289999986,2269.037670999998,None,,,,,,,,,,,,,1,4,0,1,2024-11-01_13h23.16.816,rtmindeye,2024.1.5,None,2024-11-01 13h23.30.661404 -0400,
all_stimuli/rtmindeye_stimuli/image_159_seed_1.png,13,0,0,0,2,4,1,"[9, 19, 29, 39, 49, 59, 68, 69, 70, 71]",,,,,2,0,2,0,0,13,13,13,2269.0598362500023,,,,,,,,,,,,,,,,,,,,,,2269.038060167004,2269.038150583998,2269.0381626669987,2269.0598362500023,2269.0598362500023,2269.0598362500023,2269.0598362500023,2272.0690746670007,2272.0690746670007,2273.038476583999,1,1,0.8131616239988944,0.1988961669994751,None,2273.0389207089975,2273.0389760840044,None,2273.0390587919974,2273.039086292003,None,,,,,,,,,,,,,1,4,0,1,2024-11-01_13h23.16.816,rtmindeye,2024.1.5,None,2024-11-01 13h23.30.661404 -0400,
all_stimuli/rtmindeye_stimuli/image_79_seed_1.png,14,0,0,0,2,4,1,"[9, 19, 29, 39, 49, 59, 68, 69, 70, 71]",,,,,2,0,2,0,0,14,14,14,2273.0632796249993,,,,,,,,,,,,,,,,,,,,,,2273.0394132919973,2273.0395097090004,2273.039522625004,2273.0632796249993,2273.0632796249993,2273.0632796249993,2273.0632796249993,2276.066662584002,2276.066662584002,2277.0529476250013,1,1,1.2286114160015131,0.18001299999741605,None,2277.053845209004,2277.0539555420037,None,2277.054085542004,2277.0541398749992,None,,,,,,,,,,,,,1,4,0,1,2024-11-01_13h23.16.816,rtmindeye,2024.1.5,None,2024-11-01 13h23.30.661404 -0400,
all_stimuli/rtmindeye_stimuli/image_450_seed_1.png,15,0,1,0,2,4,1,"[9, 19, 29, 39, 49, 59, 68, 69, 70, 71]",,,,,2,0,2,0,0,15,15,15,2277.077591084002,,,,,,,,,,,,,,,,,,,,,,2277.054791084003,2277.0549443339987,2277.0549610000016,2277.077591084002,2277.077591084002,2277.077591084002,2277.077591084002,2280.0700355419976,2280.0700355419976,2281.066717458998,2,1,0.9184135410032468,0.17790795800101478,None,2281.0673339589994,2281.0674126250015,None,2281.067527291998,2281.067565834004,None,,,,,,,,,,,,,1,4,0,1,2024-11-01_13h23.16.816,rtmindeye,2024.1.5,None,2024-11-01 13h23.30.661404 -0400,
all_stimuli/rtmindeye_stimuli/image_381_seed_1.png,16,0,0,0,2,4,1,"[9, 19, 29, 39, 49, 59, 68, 69, 70, 71]",,,,,2,0,2,0,0,16,16,16,2281.093466584003,,,,,,,,,,,,,,,,,,,,,,2281.068007583999,2281.068124958998,2281.0681408750024,2281.093466584003,2281.093466584003,2281.093466584003,2281.093466584003,2284.102823084002,2284.102823084002,2285.0694765000007,1,1,1.073550957000407,0.1939659589988878,None,2285.0699989999994,2285.0700627920014,None,2285.0701575420026,2285.070189416998,None,,,,,,,,,,,,,1,4,0,1,2024-11-01_13h23.16.816,rtmindeye,2024.1.5,None,2024-11-01 13h23.30.661404 -0400,
all_stimuli/rtmindeye_stimuli/image_526_seed_1.png,17,0,0,0,2,4,1,"[9, 19, 29, 39, 49, 59, 68, 69, 70, 71]",,,,,2,0,2,0,0,17,17,17,2285.0943275000027,,,,,,,,,,,,,,,,,,,,,,2285.0705444170017,2285.0706419589987,2285.070655125004,2285.0943275000027,2285.0943275000027,2285.0943275000027,2285.0943275000027,2288.100045500003,2288.100045500003,2289.071188583999,1,1,1.0766154160010046,0.16402245799690718,None,2289.0720974590004,2289.072213959,None,2289.072344542001,2289.0723952499975,None,,,,,,,,,,,,,1,4,0,1,2024-11-01_13h23.16.816,rtmindeye,2024.1.5,None,2024-11-01 13h23.30.661404 -0400,
all_stimuli/rtmindeye_stimuli/image_395_seed_1.png,18,0,0,0,2,4,1,"[9, 19, 29, 39, 49, 59, 68, 69, 70, 71]",,,,,2,0,2,0,0,18,18,18,2289.099935334001,,,,,,,,,,,,,,,,,,,,,,2289.073131625002,2289.0735050420044,2289.073529417001,2289.099935334001,2289.099935334001,2289.099935334001,2289.099935334001,2292.086816834002,2292.086816834002,2293.083400542004,1,1,1.2781254159999662,0.1748970830012695,None,2293.0839065839973,2293.083973624998,None,2293.084093792,2293.0841554590006,None,,,,,,,,,,,,,1,4,0,1,2024-11-01_13h23.16.816,rtmindeye,2024.1.5,None,2024-11-01 13h23.30.661404 -0400,
blank.jpg,19,1,0,0,2,4,1,"[9, 19, 29, 39, 49, 59, 68, 69, 70, 71]",,,,,2,0,2,0,0,19,19,19,2293.094491417003,,,,,,,,,,,,,,,,,,,,,,2293.0845828340025,2293.0847130420007,2293.084729084003,2293.094491417003,2293.094491417003,2293.094491417003,2293.094491417003,2296.0867185419993,2296.0867185419993,2297.0865253340016,None,0,,,None,2297.0869643339975,2297.0870372499994,None,2297.087154959001,2297.087193625004,None,,,,,,,,,,,,,1,4,0,1,2024-11-01_13h23.16.816,rtmindeye,2024.1.5,None,2024-11-01 13h23.30.661404 -0400,
all_stimuli/rtmindeye_stimuli/image_476_seed_1.png,20,0,0,0,2,4,1,"[9, 19, 29, 39, 49, 59, 68, 69, 70, 71]",,,,,2,0,2,0,0,20,20,20,2297.1133309590005,,,,,,,,,,,,,,,,,,,,,,2297.0876303339974,2297.0877460839984,2297.0877621670006,2297.1133309590005,2297.1133309590005,2297.1133309590005,2297.1133309590005,2300.117145875003,2300.117145875003,2301.1002017089995,1,1,1.1817846659978386,0.20196475000557257,None,2301.1008307500015,2301.1009257920014,None,2301.101041875001,2301.101080166998,None,,,,,,,,,,,,,1,4,0,1,2024-11-01_13h23.16.816,rtmindeye,2024.1.5,None,2024-11-01 13h23.30.661404 -0400,
