current_image,trial_index,is_blank_trial,is_repeat,is_new_run,run_num,all_blanks_list,practice.thisRepN,practice.thisTrialN,practice.thisN,practice.thisIndex,loop_all_images.thisRepN,loop_all_images.thisTrialN,loop_all_images.thisN,loop_all_images.thisIndex,thisRow.t,notes,set_up.started,set_up.stopped,practice_continue.started,key_resp_6.started,text_6.started,practice_continue.stopped,key_resp_6.keys,key_resp_6.rt,key_resp_6.duration,set_skips_and_correct_key_2.started,set_skips_and_correct_key_2.stopped,practice_trial.started,polygon_3.started,all_keys_pressed_2.started,image_2.started,press_if_repeat_2.started,image_2.stopped,press_if_repeat_2.stopped,polygon_3.stopped,all_keys_pressed_2.stopped,practice_trial.stopped,press_if_repeat_2.keys,press_if_repeat_2.corr,press_if_repeat_2.rt,press_if_repeat_2.duration,all_keys_pressed_2.keys,blank_trial_2.started,blank_trial_2.stopped,polygon_4.started,polygon_4.stopped,testing_continue.started,key_resp_7.started,text_7.started,testing_continue.stopped,key_resp_7.keys,key_resp_7.rt,key_resp_7.duration,waiting_fmri.started,key_resp_2.started,text_3.started,waiting_fmri.stopped,key_resp_2.keys,key_resp_2.rt,key_resp_2.duration,set_skips_and_correct_key.started,set_skips_and_correct_key.stopped,trial.started,polygon.started,all_keys_pressed.started,image.started,press_if_repeat.started,image.stopped,press_if_repeat.stopped,polygon.stopped,all_keys_pressed.stopped,trial.stopped,press_if_repeat.keys,press_if_repeat.corr,press_if_repeat.rt,press_if_repeat.duration,all_keys_pressed.keys,blank_trial.started,blank_trial.stopped,blank_trial_testing_keys.keys,run_wait2_2.started,run_wait2_2.stopped,key_resp_5.keys,waiting_fmri_2.started,waiting_fmri_2.stopped,key_resp_4.keys,all_keys_pressed.rt,all_keys_pressed.duration,blank_trial_testing_keys.started,polygon_2.started,blank_trial_testing_keys.stopped,polygon_2.stopped,key_resp_5.started,text_5.started,key_resp_5.rt,key_resp_5.duration,key_resp_4.started,text_4.started,key_resp_4.rt,key_resp_4.duration,participant,session,starting_run,,date,expName,psychopyVersion,frameRate,expStart,
,,,,,,,,,,,,,,,,,0.009091673000511946,0.009310670000559185,0.009327051000582287,0.02960843900018517,0.02960843900018517,1.668016350000471,1,1.6232267779996619,None,,,,,,,,,,,,,,,,,,,,,,,,,,,,,,,,,,,,,,,,,,,,,,,,,,,,,,,,,,,,,,,,,,,,,,,,,,,,1,001,0,,2024-04-16_10h54.13.489,replicate_nsd,2023.2.3,60.04260947794836,2024-04-16 11h02.02.491633 -0400,
practice_images/w_auditorium1.jpg,0,0,,,,,0,0,0,0,,,,,1.7107245329998477,,,,,,,,,,,1.6755269790000966,1.675611702000424,1.6756205299998328,1.7107245329998477,1.7107245329998477,2.701070576999882,2.701070576999882,5.70135858499998,5.70135858499998,5.70135858499998,5.70135858499998,5.684841348999726,1,0,0.798755615999653,None,None,5.685816160000286,5.685867309000059,,,,,,,,,,,,,,,,,,,,,,,,,,,,,,,,,,,,,,,,,,,,,,,,,,,,,,,,,1,001,0,,2024-04-16_10h54.13.489,replicate_nsd,2023.2.3,60.04260947794836,2024-04-16 11h02.02.491633 -0400,
practice_images/w_auditorium1.jpg,1,0,,,,,0,1,1,1,,,,,5.70135858499998,,,,,,,,,,,5.686146988000473,5.686267062000297,5.686279384000045,5.70135858499998,5.70135858499998,6.70121780000045,6.70121780000045,9.701748522000344,9.701748522000344,9.701748522000344,9.701748522000344,9.685431425000388,2,0,0.7726460680005403,None,None,9.686016450000352,9.686059446999934,,,,,,,,,,,,,,,,,,,,,,,,,,,,,,,,,,,,,,,,,,,,,,,,,,,,,,,,,1,001,0,,2024-04-16_10h54.13.489,replicate_nsd,2023.2.3,60.04260947794836,2024-04-16 11h02.02.491633 -0400,
practice_images/w_bedroom2.jpg,2,0,,,,,0,2,2,2,,,,,9.701748522000344,,,,,,,,,,,9.68632777899984,9.686445119999917,9.686457488000087,9.701748522000344,9.701748522000344,10.7017301220003,10.7017301220003,13.701809035000224,13.701809035000224,13.701809035000224,13.701809035000224,13.685666244000458,1,0,0.7461158980004257,None,None,13.686253957999725,13.68629724099992,,,,,,,,,,,,,,,,,,,,,,,,,,,,,,,,,,,,,,,,,,,,,,,,,,,,,,,,,1,001,0,,2024-04-16_10h54.13.489,replicate_nsd,2023.2.3,60.04260947794836,2024-04-16 11h02.02.491633 -0400,
practice_images/w_kitchen1.jpg,3,0,,,,,0,3,3,3,,,,,13.701809035000224,,,,,,,,,,,13.686588898000082,13.68670653800018,13.686718541000118,13.701809035000224,13.701809035000224,14.701965203000327,14.701965203000327,17.70208500999979,17.70208500999979,17.70208500999979,17.70208500999979,17.68570003500008,1,0,0.831987360000312,None,None,17.686283560999982,17.68632657099988,,,,,,,,,,,,,,,,,,,,,,,,,,,,,,,,,,,,,,,,,,,,,,,,,,,,,,,,,1,001,0,,2024-04-16_10h54.13.489,replicate_nsd,2023.2.3,60.04260947794836,2024-04-16 11h02.02.491633 -0400,
practice_images/w_monument1.jpg,4,0,,,,,0,4,4,4,,,,,17.70208500999979,,,,,,,,,,,17.6865934919997,17.686708715999885,17.686720702000457,17.70208500999979,17.70208500999979,18.702210010999806,18.702210010999806,21.702203534000546,21.702203534000546,21.702203534000546,21.702203534000546,21.685842457000035,1,0,1.00576001599984,None,None,21.68642943099985,21.686472307999793,,,,,,,,,,,,,,,,,,,,,,,,,,,,,,,,,,,,,,,,,,,,,,,,,,,,,,,,,1,001,0,,2024-04-16_10h54.13.489,replicate_nsd,2023.2.3,60.04260947794836,2024-04-16 11h02.02.491633 -0400,
practice_images/w_kitchen2.jpg,5,0,,,,,0,5,5,5,,,,,21.702203534000546,,,,,,,,,,,21.68674238499989,21.68685978099984,21.686871824000264,21.702203534000546,21.702203534000546,22.702215016000082,22.702215016000082,25.70238420199985,25.70238420199985,25.70238420199985,25.70238420199985,25.686018303999845,1,0,1.5027621239996733,None,None,25.686599497000316,25.68664107800032,,,,,,,,,,,,,,,,,,,,,,,,,,,,,,,,,,,,,,,,,,,,,,,,,,,,,,,,,1,001,0,,2024-04-16_10h54.13.489,replicate_nsd,2023.2.3,60.04260947794836,2024-04-16 11h02.02.491633 -0400,
practice_images/w_boardwalk2.jpg,6,0,,,,,0,6,6,6,,,,,25.70238420199985,,,,,,,,,,,25.686912226999993,25.687028663000092,25.6870404830006,25.70238420199985,25.70238420199985,26.70249221799986,26.70249221799986,29.702308439000262,29.702308439000262,29.702308439000262,29.702308439000262,29.6860634450004,1,0,0.773528196999905,None,None,29.686647827000343,29.686690125000496,,,,,,,,,,,,,,,,,,,,,,,,,,,,,,,,,,,,,,,,,,,,,,,,,,,,,,,,,1,001,0,,2024-04-16_10h54.13.489,replicate_nsd,2023.2.3,60.04260947794836,2024-04-16 11h02.02.491633 -0400,
practice_images/w_boardwalk2.jpg,7,0,,,,,0,7,7,7,,,,,29.702308439000262,,,,,,,,,,,29.686959671000295,29.687076519000584,29.687088556000162,29.702308439000262,29.702308439000262,30.702509702000498,30.702509702000498,33.702653088999796,33.702653088999796,33.702653088999796,33.702653088999796,33.6861759909998,2,0,1.2264849610000965,None,None,33.68676494200008,33.68680791499992,,,,,,,,,,,,,,,,,,,,,,,,,,,,,,,,,,,,,,,,,,,,,,,,,,,,,,,,,1,001,0,,2024-04-16_10h54.13.489,replicate_nsd,2023.2.3,60.04260947794836,2024-04-16 11h02.02.491633 -0400,
practice_images/w_boardwalk1.jpg,8,0,,,,,0,8,8,8,,,,,33.702653088999796,,,,,,,,,,,33.6870812950001,33.68719786099973,33.687210103000325,33.702653088999796,33.702653088999796,34.7026896870002,34.7026896870002,37.70266346600056,37.70266346600056,37.70266346600056,37.70266346600056,37.68629079400034,1,0,0.8681316980000702,None,None,37.68687854000018,37.686921737000375,,,,,,,,,,,,,,,,,,,,,,,,,,,,,,,,,,,,,,,,,,,,,,,,,,,,,,,,,1,001,0,,2024-04-16_10h54.13.489,replicate_nsd,2023.2.3,60.04260947794836,2024-04-16 11h02.02.491633 -0400,
practice_images/w_bedroom2.jpg,9,0,,,,,0,9,9,9,,,,,37.70266346600056,,,,,,,,,,,37.687204325000494,37.68732398300017,37.68733635100034,37.70266346600056,37.70266346600056,38.70270263400016,38.70270263400016,41.7027406670004,41.7027406670004,41.7027406670004,41.7027406670004,41.68646115000047,2,0,1.174281126999631,None,None,41.68704911700024,41.68709098599993,,,,,,,,,,,,,,,,,,,,,,,,,,,,,,,,,,,,,,,,,,,,,,,,,,,,,,,,,1,001,0,,2024-04-16_10h54.13.489,replicate_nsd,2023.2.3,60.04260947794836,2024-04-16 11h02.02.491633 -0400,
blank.jpg,10,1,,,,,0,10,10,10,,,,,41.7027406670004,,,,,,,,,,,41.687358087000575,41.68747470300059,41.68748692200006,,,,,,,,,41.69306451800003,None,0,,,None,41.6934497480006,45.73649552000006,41.7027406670004,45.752901544999986,,,,,,,,,,,,,,,,,,,,,,,,,,,,,,,,,,,,,,,,,,,,,,,,,,,,,,,1,001,0,,2024-04-16_10h54.13.489,replicate_nsd,2023.2.3,60.04260947794836,2024-04-16 11h02.02.491633 -0400,
practice_images/w_boardwalk1.jpg,11,0,,,,,0,11,11,11,,,,,45.752901544999986,,,,,,,,,,,45.73687166400032,45.73698815900025,45.737000179999995,45.752901544999986,45.752901544999986,46.75290504300028,46.75290504300028,49.753048377000596,49.753048377000596,49.753048377000596,49.753048377000596,49.736657004000335,2,0,1.1148785410005075,None,None,49.737247550000575,49.73729094600003,,,,,,,,,,,,,,,,,,,,,,,,,,,,,,,,,,,,,,,,,,,,,,,,,,,,,,,,,1,001,0,,2024-04-16_10h54.13.489,replicate_nsd,2023.2.3,60.04260947794836,2024-04-16 11h02.02.491633 -0400,
practice_images/w_monument1.jpg,12,0,,,,,0,12,12,12,,,,,49.753048377000596,,,,,,,,,,,49.73756322100053,49.737681123000584,49.73769328199978,49.753048377000596,49.753048377000596,50.753030054999726,50.753030054999726,53.75304239799971,53.75304239799971,53.75304239799971,53.75304239799971,53.73681662099989,2,0,1.0439182689997324,None,None,53.73740478000036,53.73744707700007,,,,,,,,,,,,,,,,,,,,,,,,,,,,,,,,,,,,,,,,,,,,,,,,,,,,,,,,,1,001,0,,2024-04-16_10h54.13.489,replicate_nsd,2023.2.3,60.04260947794836,2024-04-16 11h02.02.491633 -0400,
practice_images/w_monument2.jpg,13,0,,,,,0,13,13,13,,,,,53.75304239799971,,,,,,,,,,,53.737716223999996,53.737835034000454,53.737847125999906,53.75304239799971,53.75304239799971,54.75318167200021,54.75318167200021,57.753296618000604,57.753296618000604,57.753296618000604,57.753296618000604,57.736874387999706,1,0,0.8258140340003592,None,None,57.737462222999966,57.7375046369998,,,,,,,,,,,,,,,,,,,,,,,,,,,,,,,,,,,,,,,,,,,,,,,,,,,,,,,,,1,001,0,,2024-04-16_10h54.13.489,replicate_nsd,2023.2.3,60.04260947794836,2024-04-16 11h02.02.491633 -0400,
practice_images/w_auditorium2.jpg,14,0,,,,,0,14,14,14,,,,,57.753296618000604,,,,,,,,,,,57.737775132000024,57.73789364700042,57.73790569999983,57.753296618000604,57.753296618000604,58.753246590000344,58.753246590000344,61.75323354400007,61.75323354400007,61.75323354400007,61.75323354400007,61.73688552499971,1,0,1.2515834619998714,None,None,61.737476324000454,61.737518538000586,,,,,,,,,,,,,,,,,,,,,,,,,,,,,,,,,,,,,,,,,,,,,,,,,,,,,,,,,1,001,0,,2024-04-16_10h54.13.489,replicate_nsd,2023.2.3,60.04260947794836,2024-04-16 11h02.02.491633 -0400,
practice_images/w_kitchen1.jpg,15,0,,,,,0,15,15,15,,,,,61.75323354400007,,,,,,,,,,,61.73778638800013,61.73790484999972,61.73791686000004,61.75323354400007,61.75323354400007,62.753254793999986,62.753254793999986,65.75343022700054,65.75343022700054,65.75343022700054,65.75343022700054,65.73708961700049,2,0,1.1436304640001254,None,None,65.73767998400035,65.73772602600002,,,,,,,,,,,,,,,,,,,,,,,,,,,,,,,,,,,,,,,,,,,,,,,,,,,,,,,,,1,001,0,,2024-04-16_10h54.13.489,replicate_nsd,2023.2.3,60.04260947794836,2024-04-16 11h02.02.491633 -0400,
practice_images/w_auditorium2.jpg,16,0,,,,,0,16,16,16,,,,,65.75343022700054,,,,,,,,,,,65.73799950300054,65.7381179640006,65.73813002899988,65.75343022700054,65.75343022700054,66.75336801200046,66.75336801200046,69.75329203000001,69.75329203000001,69.75329203000001,69.75329203000001,69.73714366000058,2,0,1.811484522999308,None,None,69.73773163500027,69.73777431000053,,,,,,,,,,,,,,,,,,,,,,,,,,,,,,,,,,,,,,,,,,,,,,,,,,,,,,,,,1,001,0,,2024-04-16_10h54.13.489,replicate_nsd,2023.2.3,60.04260947794836,2024-04-16 11h02.02.491633 -0400,
practice_images/w_bedroom1.jpg,17,0,,,,,0,17,17,17,,,,,69.75329203000001,,,,,,,,,,,69.7380429040004,69.73816073099988,69.7381731330006,69.75329203000001,69.75329203000001,70.75360945800003,70.75360945800003,73.75374798400026,73.75374798400026,73.75374798400026,73.75374798400026,73.73727497300024,1,0,1.1502223839997896,None,None,73.73786252799982,73.73790482799996,,,,,,,,,,,,,,,,,,,,,,,,,,,,,,,,,,,,,,,,,,,,,,,,,,,,,,,,,1,001,0,,2024-04-16_10h54.13.489,replicate_nsd,2023.2.3,60.04260947794836,2024-04-16 11h02.02.491633 -0400,
practice_images/w_monument2.jpg,18,0,,,,,0,18,18,18,,,,,73.75374798400026,,,,,,,,,,,73.7381738109998,73.73829172600017,73.73830377800004,73.75374798400026,73.75374798400026,74.75367436800025,74.75367436800025,77.75366153200048,77.75366153200048,77.75366153200048,77.75366153200048,77.73730340099974,2,0,0.9713535390001198,None,None,77.73790030000055,77.73794275399996,,,,,,,,,,,,,,,,,,,,,,,,,,,,,,,,,,,,,,,,,,,,,,,,,,,,,,,,,1,001,0,,2024-04-16_10h54.13.489,replicate_nsd,2023.2.3,60.04260947794836,2024-04-16 11h02.02.491633 -0400,
practice_images/w_bedroom1.jpg,19,0,,,,,0,19,19,19,,,,,77.75366153200048,,,,,,,,,,,77.73821559299995,77.73833424199984,77.73834612800056,77.75366153200048,77.75366153200048,78.75376491800034,78.75376491800034,81.75736750400029,81.75736750400029,81.75736750400029,81.75736750400029,81.73738163300004,2,0,1.0370608359999096,None,None,81.73797114700028,81.73801782700048,,,,,,,,,,,,,,,,,,,,,,,,,,,,,,,,,,,,,,,,,,,,,,,,,,,,,,,,,1,001,0,,2024-04-16_10h54.13.489,replicate_nsd,2023.2.3,60.04260947794836,2024-04-16 11h02.02.491633 -0400,
,,,,,,,,,,,,,,,,,,,,,,,,,,,,,,,,,,,,,,,,,,,,,,,81.73807937899983,81.75736750400029,81.75736750400029,85.15439416200024,1,3.3965811250000115,None,,,,,,,,,,,,,,,,,,,,,,,,,,,,,,,,,,,,,,,,,,,,,,,,1,001,0,,2024-04-16_10h54.13.489,replicate_nsd,2023.2.3,60.04260947794836,2024-04-16 11h02.02.491633 -0400,
,,,,,,,,,,,,,,,,,,,,,,,,,,,,,,,,,,,,,,,,,,,,,,,,,,,,,,85.15442249300031,85.17066998800055,85.17066998800055,742.4201583210006,equal,657.2363158099997,None,,,,,,,,,,,,,,,,,,,,,,,,,,,,,,,,,,,,,,,,,1,001,0,,2024-04-16_10h54.13.489,replicate_nsd,2023.2.3,60.04260947794836,2024-04-16 11h02.02.491633 -0400,
images/image_686_seed_1.png,0,0,0,0,0,"[9, 19, 29, 39, 49, 59, 68, 69, 70, 71]",,,,,0,0,0,0,742.529538011001,,,,,,,,,,,,,,,,,,,,,,,,,,,,,,,,,,,,,,,,,,,,,,742.4989630669997,742.4990703320009,742.4990777499997,742.529538011001,742.529538011001,743.5038753849994,743.5038753849994,746.5196788250005,746.5196788250005,746.5196788250005,746.5196788250005,746.4875743990006,1,1,0.9009552070001519,None,None,746.4905829720001,746.4906258860001,None,746.4913138860002,746.4913671010008,None,746.4920633120009,746.4920988240001,None,,,,,,,,,,,,,,,1,001,0,,2024-04-16_10h54.13.489,replicate_nsd,2023.2.3,60.04260947794836,2024-04-16 11h02.02.491633 -0400,
images/image_262_seed_1.png,1,0,0,0,0,"[9, 19, 29, 39, 49, 59, 68, 69, 70, 71]",,,,,0,1,1,1,746.5196788250005,,,,,,,,,,,,,,,,,,,,,,,,,,,,,,,,,,,,,,,,,,,,,,746.4930228610001,746.4931396359998,746.4931488049997,746.5196788250005,746.5196788250005,747.5040309940005,747.5040309940005,750.5160475210005,750.5160475210005,750.5160475210005,750.5160475210005,750.4876011429997,1,1,1.405928860000131,None,None,750.4882022539996,750.488247571001,None,750.4883580390006,750.488412826001,None,750.4885230690006,750.4885590549993,None,,,,,,,,,,,,,,,1,001,0,,2024-04-16_10h54.13.489,replicate_nsd,2023.2.3,60.04260947794836,2024-04-16 11h02.02.491633 -0400,
images/image_508_seed_1.png,2,0,0,0,0,"[9, 19, 29, 39, 49, 59, 68, 69, 70, 71]",,,,,0,2,2,2,750.5160475210005,,,,,,,,,,,,,,,,,,,,,,,,,,,,,,,,,,,,,,,,,,,,,,750.4889380340001,750.489059337001,750.4890722350001,750.5160475210005,750.5160475210005,751.5040702260003,751.5040702260003,754.5158493389999,754.5158493389999,754.5158493389999,754.5158493389999,754.4876651229997,1,1,1.0517590880008356,None,None,754.4882614290009,754.4883065389995,None,754.4884161660002,754.488470886,None,754.4885799880003,754.4886158350009,None,,,,,,,,,,,,,,,1,001,0,,2024-04-16_10h54.13.489,replicate_nsd,2023.2.3,60.04260947794836,2024-04-16 11h02.02.491633 -0400,
images/image_671_seed_1.png,3,0,0,0,0,"[9, 19, 29, 39, 49, 59, 68, 69, 70, 71]",,,,,0,3,3,3,754.5158493389999,,,,,,,,,,,,,,,,,,,,,,,,,,,,,,,,,,,,,,,,,,,,,,754.4889947599995,754.4891162640006,754.489129001001,754.5158493389999,754.5158493389999,755.5042156909994,755.5042156909994,758.515108861001,758.515108861001,758.515108861001,758.515108861001,758.4877996990008,1,1,0.566577577001226,None,None,758.4883971930003,758.488443579,None,758.4885523370003,758.4886062600008,None,758.4887149560009,758.4887512649993,None,,,,,,,,,,,,,,,1,001,0,,2024-04-16_10h54.13.489,replicate_nsd,2023.2.3,60.04260947794836,2024-04-16 11h02.02.491633 -0400,
images/image_555_seed_1.png,4,0,0,0,0,"[9, 19, 29, 39, 49, 59, 68, 69, 70, 71]",,,,,0,4,4,4,758.515108861001,,,,,,,,,,,,,,,,,,,,,,,,,,,,,,,,,,,,,,,,,,,,,,758.4891303630002,758.4892520750009,758.4892647610004,758.515108861001,758.515108861001,759.5041519010001,759.5041519010001,762.5160106220001,762.5160106220001,762.5160106220001,762.5160106220001,762.4880020320006,1,1,0.919672983000055,None,None,762.4885965509993,762.4886458840001,None,762.4887565910003,762.4888112649996,None,762.4889208020004,762.4889567010005,None,,,,,,,,,,,,,,,1,001,0,,2024-04-16_10h54.13.489,replicate_nsd,2023.2.3,60.04260947794836,2024-04-16 11h02.02.491633 -0400,
images/image_376_seed_1.png,5,0,0,0,0,"[9, 19, 29, 39, 49, 59, 68, 69, 70, 71]",,,,,0,5,5,5,762.5160106220001,,,,,,,,,,,,,,,,,,,,,,,,,,,,,,,,,,,,,,,,,,,,,,762.4893340049994,762.4894549739993,762.4894679910003,762.5160106220001,762.5160106220001,763.5044110680001,763.5044110680001,766.5143289840007,766.5143289840007,766.5143289840007,766.5143289840007,766.488063328,1,1,0.849552005998703,None,None,766.488662742001,766.4887077659996,None,766.4888178589999,766.4888713200007,None,766.4889805310004,766.4890157529999,None,,,,,,,,,,,,,,,1,001,0,,2024-04-16_10h54.13.489,replicate_nsd,2023.2.3,60.04260947794836,2024-04-16 11h02.02.491633 -0400,
images/image_321_seed_1.png,6,0,0,0,0,"[9, 19, 29, 39, 49, 59, 68, 69, 70, 71]",,,,,0,6,6,6,766.5143289840007,,,,,,,,,,,,,,,,,,,,,,,,,,,,,,,,,,,,,,,,,,,,,,766.4893922170004,766.4895153219995,766.4895281670006,766.5143289840007,766.5143289840007,767.5045392679995,767.5045392679995,770.5205329049995,770.5205329049995,770.5205329049995,770.5205329049995,770.4881713940003,None,0,,,['1'],770.4906180740008,770.4906700729998,None,770.4907981250008,770.4908548320009,None,770.490973678,770.4910106750003,None,[2.1234939690002648],[None],,,,,,,,,,,,,1,001,0,,2024-04-16_10h54.13.489,replicate_nsd,2023.2.3,60.04260947794836,2024-04-16 11h02.02.491633 -0400,
images/image_729_seed_1.png,7,0,0,0,0,"[9, 19, 29, 39, 49, 59, 68, 69, 70, 71]",,,,,0,7,7,7,770.5205329049995,,,,,,,,,,,,,,,,,,,,,,,,,,,,,,,,,,,,,,,,,,,,,,770.4913994370008,770.4914993129996,770.4915094809994,770.5205329049995,770.5205329049995,771.5044718010004,771.5044718010004,774.5167217549997,774.5167217549997,774.5167217549997,774.5167217549997,774.4881946539999,1,1,0.8315382549990318,None,None,774.4887947640009,774.4888416959993,None,774.4889504890007,774.4890053839999,None,774.489115759,774.4891517019996,None,,,,,,,,,,,,,,,1,001,0,,2024-04-16_10h54.13.489,replicate_nsd,2023.2.3,60.04260947794836,2024-04-16 11h02.02.491633 -0400,
images/image_106_seed_1.png,8,0,0,0,0,"[9, 19, 29, 39, 49, 59, 68, 69, 70, 71]",,,,,0,8,8,8,774.5167217549997,,,,,,,,,,,,,,,,,,,,,,,,,,,,,,,,,,,,,,,,,,,,,,774.4895311499995,774.489653818001,774.489666642,774.5167217549997,774.5167217549997,775.5046626810008,775.5046626810008,778.5044878760009,778.5044878760009,778.5044878760009,778.5044878760009,778.4881709669999,1,1,0.7213573949993588,None,None,778.4887361779993,778.4887811550007,None,778.4888896919992,778.4889441050009,None,778.4890524459997,778.4890876359996,None,,,,,,,,,,,,,,,1,001,0,,2024-04-16_10h54.13.489,replicate_nsd,2023.2.3,60.04260947794836,2024-04-16 11h02.02.491633 -0400,
blank.jpg,9,1,0,0,0,"[9, 19, 29, 39, 49, 59, 68, 69, 70, 71]",,,,,0,9,9,9,778.5044878760009,,,,,,,,,,,,,,,,,,,,,,,,,,,,,,,,,,,,,,,,,,,,,,778.4894600029993,778.489583394,778.4895961610009,,,,,,,,,778.4933105299997,None,0,,,None,778.493659013001,782.488319897001,None,782.488532239001,782.4885906410009,None,782.4887194449993,782.4887580549994,None,,,778.5044878760009,778.5044878760009,782.5167564169997,782.5167564169997,,,,,,,,,1,001,0,,2024-04-16_10h54.13.489,replicate_nsd,2023.2.3,60.04260947794836,2024-04-16 11h02.02.491633 -0400,
images/image_518_seed_1.png,10,0,0,0,0,"[9, 19, 29, 39, 49, 59, 68, 69, 70, 71]",,,,,0,10,10,10,782.5167564169997,,,,,,,,,,,,,,,,,,,,,,,,,,,,,,,,,,,,,,,,,,,,,,782.4891553440002,782.4892775969993,782.4892901989997,782.5167564169997,782.5167564169997,783.5046914229997,783.5046914229997,786.5156057350005,786.5156057350005,786.5156057350005,786.5156057350005,786.488563164,1,1,0.7841387560001749,None,None,786.4891623089998,786.489208977001,None,786.4893197360007,786.4893749520006,None,786.4894851510007,786.4895216569994,None,,,,,,,,,,,,,,,1,001,0,,2024-04-16_10h54.13.489,replicate_nsd,2023.2.3,60.04260947794836,2024-04-16 11h02.02.491633 -0400,
images/image_359_seed_1.png,11,0,0,0,0,"[9, 19, 29, 39, 49, 59, 68, 69, 70, 71]",,,,,0,11,11,11,786.5156057350005,,,,,,,,,,,,,,,,,,,,,,,,,,,,,,,,,,,,,,,,,,,,,,786.4899000960004,786.4900231620004,786.490036057,786.5156057350005,786.5156057350005,787.5049127650009,787.5049127650009,790.516652235,790.516652235,790.516652235,790.516652235,790.4886319410007,1,1,0.7999067380005727,None,None,790.4892277330009,790.4892734600007,None,790.489383127001,790.4894367030001,None,790.4895459690006,790.4895813789999,None,,,,,,,,,,,,,,,1,001,0,,2024-04-16_10h54.13.489,replicate_nsd,2023.2.3,60.04260947794836,2024-04-16 11h02.02.491633 -0400,
images/image_234_seed_1.png,12,0,0,0,0,"[9, 19, 29, 39, 49, 59, 68, 69, 70, 71]",,,,,0,12,12,12,790.516652235,,,,,,,,,,,,,,,,,,,,,,,,,,,,,,,,,,,,,,,,,,,,,,790.4899628909998,790.4900861180004,790.4900989759999,790.516652235,790.516652235,791.5051142729999,791.5051142729999,794.516420211,794.516420211,794.516420211,794.516420211,794.488540628,1,1,0.7778239029994438,None,None,794.4891397359997,794.489184680001,None,794.4892938809999,794.4893477420001,None,794.4894573120009,794.4894933940004,None,,,,,,,,,,,,,,,1,001,0,,2024-04-16_10h54.13.489,replicate_nsd,2023.2.3,60.04260947794836,2024-04-16 11h02.02.491633 -0400,
images/image_424_seed_1.png,13,0,0,0,0,"[9, 19, 29, 39, 49, 59, 68, 69, 70, 71]",,,,,0,13,13,13,794.516420211,,,,,,,,,,,,,,,,,,,,,,,,,,,,,,,,,,,,,,,,,,,,,,794.4898774130006,794.489999036,794.4900120560005,794.516420211,794.516420211,795.5053244350011,795.5053244350011,798.51693823,798.51693823,798.51693823,798.51693823,798.488806104001,1,1,1.0225058639989584,None,None,798.4894062960002,798.4894554690009,None,798.4895678490002,798.4896224480008,None,798.4897331750008,798.4897693619996,None,,,,,,,,,,,,,,,1,001,0,,2024-04-16_10h54.13.489,replicate_nsd,2023.2.3,60.04260947794836,2024-04-16 11h02.02.491633 -0400,
images/image_203_seed_1.png,14,0,0,0,0,"[9, 19, 29, 39, 49, 59, 68, 69, 70, 71]",,,,,0,14,14,14,798.51693823,,,,,,,,,,,,,,,,,,,,,,,,,,,,,,,,,,,,,,,,,,,,,,798.4901490210004,798.4902703220005,798.4902832090002,798.51693823,798.51693823,799.5052008789999,799.5052008789999,802.5143881489994,802.5143881489994,802.5143881489994,802.5143881489994,802.4890103950011,1,1,0.6296110299990687,None,None,802.4896102079992,802.489655624001,None,802.4897684630005,802.4898233249996,None,802.4899343490006,802.4899712560009,None,,,,,,,,,,,,,,,1,001,0,,2024-04-16_10h54.13.489,replicate_nsd,2023.2.3,60.04260947794836,2024-04-16 11h02.02.491633 -0400,
images/image_664_seed_1.png,15,0,0,0,0,"[9, 19, 29, 39, 49, 59, 68, 69, 70, 71]",,,,,0,15,15,15,802.5143881489994,,,,,,,,,,,,,,,,,,,,,,,,,,,,,,,,,,,,,,,,,,,,,,802.4903538320004,802.4904752459997,802.4904881369994,802.5143881489994,802.5143881489994,803.5053353180001,803.5053353180001,806.5165770169997,806.5165770169997,806.5165770169997,806.5165770169997,806.4890231529998,1,1,0.9986150589993485,None,None,806.489620415,806.4896651139998,None,806.4897742839994,806.4898295520006,None,806.4899378359996,806.4899737629994,None,,,,,,,,,,,,,,,1,001,0,,2024-04-16_10h54.13.489,replicate_nsd,2023.2.3,60.04260947794836,2024-04-16 11h02.02.491633 -0400,
images/image_450_seed_1.png,16,0,0,0,0,"[9, 19, 29, 39, 49, 59, 68, 69, 70, 71]",,,,,0,16,16,16,806.5165770169997,,,,,,,,,,,,,,,,,,,,,,,,,,,,,,,,,,,,,,,,,,,,,,806.4903533219995,806.4904764180001,806.4904891729993,806.5165770169997,806.5165770169997,807.5053617229996,807.5053617229996,810.5083135550003,810.5083135550003,810.5083135550003,810.5083135550003,810.4892690589995,1,1,0.6684677520006517,None,None,810.4898706930007,810.489916857,None,810.4900261459998,810.490080822,None,810.4901890160008,810.4902250120003,None,,,,,,,,,,,,,,,1,001,0,,2024-04-16_10h54.13.489,replicate_nsd,2023.2.3,60.04260947794836,2024-04-16 11h02.02.491633 -0400,
images/3_89.png,17,0,0,0,0,"[9, 19, 29, 39, 49, 59, 68, 69, 70, 71]",,,,,0,17,17,17,810.5083135550003,,,,,,,,,,,,,,,,,,,,,,,,,,,,,,,,,,,,,,,,,,,,,,810.4905990590005,810.4907219099996,810.4907350069998,810.5083135550003,810.5083135550003,811.5055545069999,811.5055545069999,814.5168561439996,814.5168561439996,814.5168561439996,814.5168561439996,814.4893211650005,1,1,1.0604049590001523,None,None,814.4899217850007,814.4899673499995,None,814.4900775859996,814.4901322150008,None,814.4902417519997,814.4902775309993,None,,,,,,,,,,,,,,,1,001,0,,2024-04-16_10h54.13.489,replicate_nsd,2023.2.3,60.04260947794836,2024-04-16 11h02.02.491633 -0400,
images/image_260_seed_1.png,18,0,0,0,0,"[9, 19, 29, 39, 49, 59, 68, 69, 70, 71]",,,,,0,18,18,18,814.5168561439996,,,,,,,,,,,,,,,,,,,,,,,,,,,,,,,,,,,,,,,,,,,,,,814.490657753001,814.4907805619996,814.4907935889996,814.5168561439996,814.5168561439996,815.5057041080008,815.5057041080008,818.5053959850002,818.5053959850002,818.5053959850002,818.5053959850002,818.4892651269993,1,1,0.9592742050008383,None,None,818.4898603770007,818.4899052980008,None,818.4900156379999,818.4900710779993,None,818.4901816629999,818.4902183610002,None,,,,,,,,,,,,,,,1,001,0,,2024-04-16_10h54.13.489,replicate_nsd,2023.2.3,60.04260947794836,2024-04-16 11h02.02.491633 -0400,
blank.jpg,19,1,0,0,0,"[9, 19, 29, 39, 49, 59, 68, 69, 70, 71]",,,,,0,19,19,19,818.5053959850002,,,,,,,,,,,,,,,,,,,,,,,,,,,,,,,,,,,,,,,,,,,,,,818.4905966729993,818.4907180620003,818.490731113,,,,,,,,,818.4945078610008,None,0,,,None,818.4949039720004,822.4896146889996,None,822.4899273260007,822.4900180760005,None,822.4902102000005,822.4902485619996,None,,,818.5053959850002,818.5053959850002,822.5171941920007,822.5171941920007,,,,,,,,,1,001,0,,2024-04-16_10h54.13.489,replicate_nsd,2023.2.3,60.04260947794836,2024-04-16 11h02.02.491633 -0400,
images/image_281_seed_1.png,20,0,0,0,0,"[9, 19, 29, 39, 49, 59, 68, 69, 70, 71]",,,,,0,20,20,20,822.5171941920007,,,,,,,,,,,,,,,,,,,,,,,,,,,,,,,,,,,,,,,,,,,,,,822.4906458489995,822.4907686350007,822.4907811519997,822.5171941920007,822.5171941920007,823.5057249089996,823.5057249089996,826.515049132001,826.515049132001,826.515049132001,826.515049132001,826.4894912680002,1,1,0.586256044000038,None,None,826.4900962279999,826.4901431450007,None,826.490260212001,826.4903148910007,None,826.4904270340003,826.4904633520009,None,,,,,,,,,,,,,,,1,001,0,,2024-04-16_10h54.13.489,replicate_nsd,2023.2.3,60.04260947794836,2024-04-16 11h02.02.491633 -0400,
images/image_585_seed_1.png,21,0,0,0,0,"[9, 19, 29, 39, 49, 59, 68, 69, 70, 71]",,,,,0,21,21,21,826.515049132001,,,,,,,,,,,,,,,,,,,,,,,,,,,,,,,,,,,,,,,,,,,,,,826.4908473109999,826.4909712510007,826.4909847169993,826.515049132001,826.515049132001,827.5059510990004,827.5059510990004,830.5169374679999,830.5169374679999,830.5169374679999,830.5169374679999,830.4896002279993,1,1,0.7080283750001399,None,None,830.490201728001,830.490247056,None,830.4903583139994,830.4904128829994,None,830.4905225480006,830.4905585770002,None,,,,,,,,,,,,,,,1,001,0,,2024-04-16_10h54.13.489,replicate_nsd,2023.2.3,60.04260947794836,2024-04-16 11h02.02.491633 -0400,
images/image_609_seed_1.png,22,0,0,0,0,"[9, 19, 29, 39, 49, 59, 68, 69, 70, 71]",,,,,0,22,22,22,830.5169374679999,,,,,,,,,,,,,,,,,,,,,,,,,,,,,,,,,,,,,,,,,,,,,,830.4909367070004,830.4910588739995,830.4910720119997,830.5169374679999,830.5169374679999,831.5059512159996,831.5059512159996,834.5143306189993,834.5143306189993,834.5143306189993,834.5143306189993,834.489642683001,1,1,0.7168780979991425,None,None,834.4902426729996,834.4902889209998,None,834.4903985699993,834.490453106001,None,834.4905621650005,834.4905992930007,None,,,,,,,,,,,,,,,1,001,0,,2024-04-16_10h54.13.489,replicate_nsd,2023.2.3,60.04260947794836,2024-04-16 11h02.02.491633 -0400,
images/image_477_seed_1.png,23,0,0,0,0,"[9, 19, 29, 39, 49, 59, 68, 69, 70, 71]",,,,,0,23,23,23,834.5143306189993,,,,,,,,,,,,,,,,,,,,,,,,,,,,,,,,,,,,,,,,,,,,,,834.490977806,834.4910999100002,834.4911129250004,834.5143306189993,834.5143306189993,835.5061148739996,835.5061148739996,838.5154929200007,838.5154929200007,838.5154929200007,838.5154929200007,838.4896233549998,1,1,0.9708719680002105,None,None,838.490206503001,838.4902523339997,None,838.4903614990008,838.4904156630009,None,838.490525399001,838.4905614829995,None,,,,,,,,,,,,,,,1,001,0,,2024-04-16_10h54.13.489,replicate_nsd,2023.2.3,60.04260947794836,2024-04-16 11h02.02.491633 -0400,
images/image_110_seed_1.png,24,0,0,0,0,"[9, 19, 29, 39, 49, 59, 68, 69, 70, 71]",,,,,0,24,24,24,838.5154929200007,,,,,,,,,,,,,,,,,,,,,,,,,,,,,,,,,,,,,,,,,,,,,,838.4909414849999,838.4910639260006,838.4910768929994,838.5154929200007,838.5154929200007,839.5062465220008,839.5062465220008,842.517616858001,842.517616858001,842.517616858001,842.517616858001,842.4899958060005,1,1,0.7345928930008085,None,None,842.4905923100005,842.4906380929997,None,842.4907463879999,842.4908001470003,None,842.4909093310007,842.490945853001,None,,,,,,,,,,,,,,,1,001,0,,2024-04-16_10h54.13.489,replicate_nsd,2023.2.3,60.04260947794836,2024-04-16 11h02.02.491633 -0400,
images/image_111_seed_1.png,25,0,0,0,0,"[9, 19, 29, 39, 49, 59, 68, 69, 70, 71]",,,,,0,25,25,25,842.517616858001,,,,,,,,,,,,,,,,,,,,,,,,,,,,,,,,,,,,,,,,,,,,,,842.4913224450002,842.491443938,842.4914566159996,842.517616858001,842.517616858001,843.5060623929994,843.5060623929994,846.5165461879997,846.5165461879997,846.5165461879997,846.5165461879997,846.4900484189993,1,1,1.0967425810013083,None,None,846.4906507780006,846.490696717,None,846.4908082129996,846.4908633219993,None,846.4909732650003,846.4910101070009,None,,,,,,,,,,,,,,,1,001,0,,2024-04-16_10h54.13.489,replicate_nsd,2023.2.3,60.04260947794836,2024-04-16 11h02.02.491633 -0400,
images/image_474_seed_1.png,26,0,0,0,0,"[9, 19, 29, 39, 49, 59, 68, 69, 70, 71]",,,,,0,26,26,26,846.5165461879997,,,,,,,,,,,,,,,,,,,,,,,,,,,,,,,,,,,,,,,,,,,,,,846.4913880249997,846.4915114309997,846.4915242950001,846.5165461879997,846.5165461879997,847.5063650180009,847.5063650180009,850.5156716619995,850.5156716619995,850.5156716619995,850.5156716619995,850.4900741459996,1,1,0.8294567459997779,None,None,850.4906843750005,850.4907302750007,None,850.4908424539999,850.4908975419994,None,850.4910081490007,850.4910446849999,None,,,,,,,,,,,,,,,1,001,0,,2024-04-16_10h54.13.489,replicate_nsd,2023.2.3,60.04260947794836,2024-04-16 11h02.02.491633 -0400,
images/image_272_seed_1.png,27,0,0,0,0,"[9, 19, 29, 39, 49, 59, 68, 69, 70, 71]",,,,,0,27,27,27,850.5156716619995,,,,,,,,,,,,,,,,,,,,,,,,,,,,,,,,,,,,,,,,,,,,,,850.4914290360002,850.4915525469996,850.4915658500004,850.5156716619995,850.5156716619995,851.5062648400008,851.5062648400008,854.5182846270009,854.5182846270009,854.5182846270009,854.5182846270009,854.4901268639996,1,1,0.7867227639999328,None,None,854.4907238709993,854.4907696069995,None,854.4908795790006,854.4909335599996,None,854.4910418919999,854.4910772869998,None,,,,,,,,,,,,,,,1,001,0,,2024-04-16_10h54.13.489,replicate_nsd,2023.2.3,60.04260947794836,2024-04-16 11h02.02.491633 -0400,
images/paired_image_886_2.png,28,0,0,0,0,"[9, 19, 29, 39, 49, 59, 68, 69, 70, 71]",,,,,0,28,28,28,854.5182846270009,,,,,,,,,,,,,,,,,,,,,,,,,,,,,,,,,,,,,,,,,,,,,,854.4914556400008,854.491576843001,854.4915898219997,854.5182846270009,854.5182846270009,855.5064202040003,855.5064202040003,858.50675374,858.50675374,858.50675374,858.50675374,858.4902485550001,1,1,1.0255874490012502,None,None,858.491125253001,858.491172209001,None,858.4912829030009,858.4913381880006,None,858.4914485390009,858.4914840690008,None,,,,,,,,,,,,,,,1,001,0,,2024-04-16_10h54.13.489,replicate_nsd,2023.2.3,60.04260947794836,2024-04-16 11h02.02.491633 -0400,
blank.jpg,29,1,0,0,0,"[9, 19, 29, 39, 49, 59, 68, 69, 70, 71]",,,,,0,29,29,29,858.50675374,,,,,,,,,,,,,,,,,,,,,,,,,,,,,,,,,,,,,,,,,,,,,,858.491862803,858.4919862190009,858.491999158,,,,,,,,,858.495748503,None,0,,,None,858.4960696949993,862.490306531,None,862.4905181690001,862.4905757120005,None,862.4907050859993,862.4907443380007,None,,,858.50675374,858.50675374,862.5144051689995,862.5144051689995,,,,,,,,,1,001,0,,2024-04-16_10h54.13.489,replicate_nsd,2023.2.3,60.04260947794836,2024-04-16 11h02.02.491633 -0400,
images/image_137_seed_1.png,30,0,0,0,0,"[9, 19, 29, 39, 49, 59, 68, 69, 70, 71]",,,,,0,30,30,30,862.5144051689995,,,,,,,,,,,,,,,,,,,,,,,,,,,,,,,,,,,,,,,,,,,,,,862.49115067,862.491272743001,862.4912853870001,862.5144051689995,862.5144051689995,863.5064071490006,863.5064071490006,866.5182473169998,866.5182473169998,866.5182473169998,866.5182473169998,866.4905039030009,1,1,0.7035693229991011,None,None,866.491101437,866.4911520800006,None,866.491262812001,866.4913176590007,None,866.4914272220003,866.4914634770003,None,,,,,,,,,,,,,,,1,001,0,,2024-04-16_10h54.13.489,replicate_nsd,2023.2.3,60.04260947794836,2024-04-16 11h02.02.491633 -0400,
images/image_64_seed_1.png,31,0,0,0,0,"[9, 19, 29, 39, 49, 59, 68, 69, 70, 71]",,,,,0,31,31,31,866.5182473169998,,,,,,,,,,,,,,,,,,,,,,,,,,,,,,,,,,,,,,,,,,,,,,866.4918407180003,866.491962395,866.4919754810007,866.5182473169998,866.5182473169998,867.5069558360001,867.5069558360001,870.5170485410008,870.5170485410008,870.5170485410008,870.5170485410008,870.490575828001,1,1,0.8550896579999971,None,None,870.4911720059999,870.4912215289996,None,870.4913310750007,870.4913855990008,None,870.4914948840005,870.4915314880009,None,,,,,,,,,,,,,,,1,001,0,,2024-04-16_10h54.13.489,replicate_nsd,2023.2.3,60.04260947794836,2024-04-16 11h02.02.491633 -0400,
images/image_225_seed_1.png,32,0,0,0,0,"[9, 19, 29, 39, 49, 59, 68, 69, 70, 71]",,,,,0,32,32,32,870.5170485410008,,,,,,,,,,,,,,,,,,,,,,,,,,,,,,,,,,,,,,,,,,,,,,870.4919118839998,870.4920350719995,870.4920482700009,870.5170485410008,870.5170485410008,871.5070034659993,871.5070034659993,874.5189454729998,874.5189454729998,874.5189454729998,874.5189454729998,874.4906742350004,1,1,0.7699724430003698,None,None,874.491274459001,874.4913247100003,None,874.4914352280002,874.4914896910004,None,874.4915992169999,874.4916353880008,None,,,,,,,,,,,,,,,1,001,0,,2024-04-16_10h54.13.489,replicate_nsd,2023.2.3,60.04260947794836,2024-04-16 11h02.02.491633 -0400,
images/image_98_seed_1.png,33,0,0,0,0,"[9, 19, 29, 39, 49, 59, 68, 69, 70, 71]",,,,,0,33,33,33,874.5189454729998,,,,,,,,,,,,,,,,,,,,,,,,,,,,,,,,,,,,,,,,,,,,,,874.492014763001,874.4921368770001,874.4921501769995,874.5189454729998,874.5189454729998,875.5070784600002,875.5070784600002,878.518936327001,878.518936327001,878.518936327001,878.518936327001,878.4908438550001,1,1,0.7438688829988678,None,None,878.4914409330004,878.4914912110007,None,878.4916018430004,878.4916568660001,None,878.4917660969995,878.4918017619993,None,,,,,,,,,,,,,,,1,001,0,,2024-04-16_10h54.13.489,replicate_nsd,2023.2.3,60.04260947794836,2024-04-16 11h02.02.491633 -0400,
images/image_129_seed_1.png,34,0,0,0,0,"[9, 19, 29, 39, 49, 59, 68, 69, 70, 71]",,,,,0,34,34,34,878.518936327001,,,,,,,,,,,,,,,,,,,,,,,,,,,,,,,,,,,,,,,,,,,,,,878.4921780529994,878.4923008489995,878.4923137279993,878.518936327001,878.518936327001,879.5072965129993,879.5072965129993,882.5194616340004,882.5194616340004,882.5194616340004,882.5194616340004,882.4910136370008,1,1,0.9777442150007118,None,None,882.4916146240002,882.4916611310009,None,882.4917702280009,882.4918242730009,None,882.4919327460002,882.4919687240008,None,,,,,,,,,,,,,,,1,001,0,,2024-04-16_10h54.13.489,replicate_nsd,2023.2.3,60.04260947794836,2024-04-16 11h02.02.491633 -0400,
images/image_308_seed_1.png,35,0,0,0,0,"[9, 19, 29, 39, 49, 59, 68, 69, 70, 71]",,,,,0,35,35,35,882.5194616340004,,,,,,,,,,,,,,,,,,,,,,,,,,,,,,,,,,,,,,,,,,,,,,882.4923439019994,882.4924663709999,882.4924789280003,882.5194616340004,882.5194616340004,883.5072685330006,883.5072685330006,886.5171139290005,886.5171139290005,886.5171139290005,886.5171139290005,886.4911393409993,1,1,0.7126131159984652,None,None,886.4917406169998,886.4917860380001,None,886.4918965799998,886.4919509670008,None,886.492061117001,886.4920970550002,None,,,,,,,,,,,,,,,1,001,0,,2024-04-16_10h54.13.489,replicate_nsd,2023.2.3,60.04260947794836,2024-04-16 11h02.02.491633 -0400,
images/image_606_seed_1.png,36,0,0,0,0,"[9, 19, 29, 39, 49, 59, 68, 69, 70, 71]",,,,,0,36,36,36,886.5171139290005,,,,,,,,,,,,,,,,,,,,,,,,,,,,,,,,,,,,,,,,,,,,,,886.4924754060003,886.492598015001,886.4926109020007,886.5171139290005,886.5171139290005,887.507147491001,887.507147491001,890.5207438290008,890.5207438290008,890.5207438290008,890.5207438290008,890.4909579530004,1,1,0.7387885829994048,None,None,890.4915582269996,890.4916039539994,None,890.491714797,890.4917692459994,None,890.4918778210003,890.4919140880002,None,,,,,,,,,,,,,,,1,001,0,,2024-04-16_10h54.13.489,replicate_nsd,2023.2.3,60.04260947794836,2024-04-16 11h02.02.491633 -0400,
images/image_35_seed_1.png,37,0,0,0,0,"[9, 19, 29, 39, 49, 59, 68, 69, 70, 71]",,,,,0,37,37,37,890.5207438290008,,,,,,,,,,,,,,,,,,,,,,,,,,,,,,,,,,,,,,,,,,,,,,890.4925657610011,890.4926900599994,890.4927031640009,890.5207438290008,890.5207438290008,891.5074072329999,891.5074072329999,894.5189478349994,894.5189478349994,894.5189478349994,894.5189478349994,894.491075201001,1,1,0.902406424000219,None,None,894.4916773169998,894.4917230460005,None,894.4918321989999,894.491886873001,None,894.4919965039999,894.4920327410009,None,,,,,,,,,,,,,,,1,001,0,,2024-04-16_10h54.13.489,replicate_nsd,2023.2.3,60.04260947794836,2024-04-16 11h02.02.491633 -0400,
images/image_562_seed_1.png,38,0,0,0,0,"[9, 19, 29, 39, 49, 59, 68, 69, 70, 71]",,,,,0,38,38,38,894.5189478349994,,,,,,,,,,,,,,,,,,,,,,,,,,,,,,,,,,,,,,,,,,,,,,894.4924114260002,894.4925330630003,894.4925463250011,894.5189478349994,894.5189478349994,895.5073515150007,895.5073515150007,898.5071836849993,898.5071836849993,898.5071836849993,898.5071836849993,898.4912236850005,1,1,0.9326089150017651,None,None,898.4918224889998,898.4918725220004,None,898.4919828289994,898.4920379290006,None,898.4921464900008,898.4921828760007,None,,,,,,,,,,,,,,,1,001,0,,2024-04-16_10h54.13.489,replicate_nsd,2023.2.3,60.04260947794836,2024-04-16 11h02.02.491633 -0400,
blank.jpg,39,1,0,0,0,"[9, 19, 29, 39, 49, 59, 68, 69, 70, 71]",,,,,0,39,39,39,898.5071836849993,,,,,,,,,,,,,,,,,,,,,,,,,,,,,,,,,,,,,,,,,,,,,,898.4925639300009,898.4926888540003,898.492702003,,,,,,,,,898.4961390279996,None,0,,,None,898.4964199779997,902.4913266970007,None,902.491540854001,902.491599502001,None,902.49172929,902.4917677910007,None,,,898.5071836849993,898.5071836849993,902.5190279480003,902.5190279480003,,,,,,,,,1,001,0,,2024-04-16_10h54.13.489,replicate_nsd,2023.2.3,60.04260947794836,2024-04-16 11h02.02.491633 -0400,
images/image_242_seed_1.png,40,0,0,0,0,"[9, 19, 29, 39, 49, 59, 68, 69, 70, 71]",,,,,0,40,40,40,902.5190279480003,,,,,,,,,,,,,,,,,,,,,,,,,,,,,,,,,,,,,,,,,,,,,,902.4921618819999,902.4922840850004,902.4922966580007,902.5190279480003,902.5190279480003,903.5077794069994,903.5077794069994,906.5178896970001,906.5178896970001,906.5178896970001,906.5178896970001,906.4915292340002,1,1,0.6450785409997479,None,None,906.4921295880004,906.4921758339997,None,906.4922859110002,906.4923414699997,None,906.4924509700004,906.4924867559994,None,,,,,,,,,,,,,,,1,001,0,,2024-04-16_10h54.13.489,replicate_nsd,2023.2.3,60.04260947794836,2024-04-16 11h02.02.491633 -0400,
images/image_590_seed_1.png,41,0,0,0,0,"[9, 19, 29, 39, 49, 59, 68, 69, 70, 71]",,,,,0,41,41,41,906.5178896970001,,,,,,,,,,,,,,,,,,,,,,,,,,,,,,,,,,,,,,,,,,,,,,906.4928653159996,906.4929883649993,906.4930011879997,906.5178896970001,906.5178896970001,907.5078448899994,907.5078448899994,910.5172316840008,910.5172316840008,910.5172316840008,910.5172316840008,910.4916261009994,1,1,0.9611012799996388,None,None,910.492222404001,910.4922679410001,None,910.492377435,910.4924323450005,None,910.4925404449996,910.4925761019995,None,,,,,,,,,,,,,,,1,001,0,,2024-04-16_10h54.13.489,replicate_nsd,2023.2.3,60.04260947794836,2024-04-16 11h02.02.491633 -0400,
images/image_298_seed_1.png,42,0,0,0,0,"[9, 19, 29, 39, 49, 59, 68, 69, 70, 71]",,,,,0,42,42,42,910.5172316840008,,,,,,,,,,,,,,,,,,,,,,,,,,,,,,,,,,,,,,,,,,,,,,910.4929531799999,910.4930743300001,910.4930874270003,910.5172316840008,910.5172316840008,911.5080853549998,911.5080853549998,914.5181054169998,914.5181054169998,914.5181054169998,914.5181054169998,914.4917343030002,1,1,0.6308928590005962,None,None,914.4923274790008,914.4923772190004,None,914.4924870210007,914.4925403799998,None,914.4926488339997,914.4926855889998,None,,,,,,,,,,,,,,,1,001,0,,2024-04-16_10h54.13.489,replicate_nsd,2023.2.3,60.04260947794836,2024-04-16 11h02.02.491633 -0400,
images/image_25_seed_1.png,43,0,0,0,0,"[9, 19, 29, 39, 49, 59, 68, 69, 70, 71]",,,,,0,43,43,43,914.5181054169998,,,,,,,,,,,,,,,,,,,,,,,,,,,,,,,,,,,,,,,,,,,,,,914.4930612670005,914.493183122001,914.4931964689995,914.5181054169998,914.5181054169998,915.5080192859996,915.5080192859996,918.5188954989999,918.5188954989999,918.5188954989999,918.5188954989999,918.4917875769997,1,1,0.9759507079998002,None,None,918.4923868560008,918.492430964,None,918.4925389860009,918.4925934049998,None,918.492702460001,918.4927382430005,None,,,,,,,,,,,,,,,1,001,0,,2024-04-16_10h54.13.489,replicate_nsd,2023.2.3,60.04260947794836,2024-04-16 11h02.02.491633 -0400,
images/image_266_seed_1.png,44,0,0,0,0,"[9, 19, 29, 39, 49, 59, 68, 69, 70, 71]",,,,,0,44,44,44,918.5188954989999,,,,,,,,,,,,,,,,,,,,,,,,,,,,,,,,,,,,,,,,,,,,,,918.4931146049994,918.4932364170008,918.493249094,918.5188954989999,918.5188954989999,919.5080295230009,919.5080295230009,922.5191484380002,922.5191484380002,922.5191484380002,922.5191484380002,922.4919279239994,1,1,0.9337989050000033,None,None,922.4925229009996,922.492568734001,None,922.49267805,922.4927322539997,None,922.4928396280002,922.492875971001,None,,,,,,,,,,,,,,,1,001,0,,2024-04-16_10h54.13.489,replicate_nsd,2023.2.3,60.04260947794836,2024-04-16 11h02.02.491633 -0400,
images/image_441_seed_1.png,45,0,0,0,0,"[9, 19, 29, 39, 49, 59, 68, 69, 70, 71]",,,,,0,45,45,45,922.5191484380002,,,,,,,,,,,,,,,,,,,,,,,,,,,,,,,,,,,,,,,,,,,,,,922.493248871001,922.4933705960002,922.4933833330006,922.5191484380002,922.5191484380002,923.508198261,923.508198261,926.5190153760004,926.5190153760004,926.5190153760004,926.5190153760004,926.4919547660002,1,1,1.590812869999354,None,None,926.492548614001,926.4925928639996,None,926.4927008839995,926.4927550290004,None,926.4928638770007,926.492899621001,None,,,,,,,,,,,,,,,1,001,0,,2024-04-16_10h54.13.489,replicate_nsd,2023.2.3,60.04260947794836,2024-04-16 11h02.02.491633 -0400,
images/image_440_seed_1.png,46,0,0,0,0,"[9, 19, 29, 39, 49, 59, 68, 69, 70, 71]",,,,,0,46,46,46,926.5190153760004,,,,,,,,,,,,,,,,,,,,,,,,,,,,,,,,,,,,,,,,,,,,,,926.4932750300004,926.4933980819997,926.4934107969993,926.5190153760004,926.5190153760004,927.5083248359997,927.5083248359997,930.5188663220006,930.5188663220006,930.5188663220006,930.5188663220006,930.49201318,1,1,0.75665666399982,None,None,930.4926120659993,930.492661487001,None,930.4927717309993,930.4928265049994,None,930.4929358029995,930.4929728010002,None,,,,,,,,,,,,,,,1,001,0,,2024-04-16_10h54.13.489,replicate_nsd,2023.2.3,60.04260947794836,2024-04-16 11h02.02.491633 -0400,
images/image_180_seed_1.png,47,0,0,0,0,"[9, 19, 29, 39, 49, 59, 68, 69, 70, 71]",,,,,0,47,47,47,930.5188663220006,,,,,,,,,,,,,,,,,,,,,,,,,,,,,,,,,,,,,,,,,,,,,,930.4933500230009,930.4934729810002,930.4934862269993,930.5188663220006,930.5188663220006,931.5084590710003,931.5084590710003,934.5109568540001,934.5109568540001,934.5109568540001,934.5109568540001,934.4920951089998,1,1,0.7255326890008291,None,None,934.4926885699997,934.4927336160008,None,934.492842609,934.4928975100001,None,934.4930074100002,934.4930434600001,None,,,,,,,,,,,,,,,1,001,0,,2024-04-16_10h54.13.489,replicate_nsd,2023.2.3,60.04260947794836,2024-04-16 11h02.02.491633 -0400,
images/w_log_cabin1.jpg,48,0,0,0,0,"[9, 19, 29, 39, 49, 59, 68, 69, 70, 71]",,,,,0,48,48,48,934.5109568540001,,,,,,,,,,,,,,,,,,,,,,,,,,,,,,,,,,,,,,,,,,,,,,934.493418676001,934.493540034001,934.4935526569998,934.5109568540001,934.5109568540001,935.5083724740007,935.5083724740007,938.5083273190003,938.5083273190003,938.5083273190003,938.5083273190003,938.4922522890001,1,1,0.876620618000743,None,None,938.4928486470008,938.4928945500005,None,938.4930038320008,938.4930580619994,None,938.4931678010007,938.4932044070001,None,,,,,,,,,,,,,,,1,001,0,,2024-04-16_10h54.13.489,replicate_nsd,2023.2.3,60.04260947794836,2024-04-16 11h02.02.491633 -0400,
blank.jpg,49,1,0,0,0,"[9, 19, 29, 39, 49, 59, 68, 69, 70, 71]",,,,,0,49,49,49,938.5083273190003,,,,,,,,,,,,,,,,,,,,,,,,,,,,,,,,,,,,,,,,,,,,,,938.4935807600004,938.4937043969994,938.4937171690008,,,,,,,,,938.496967561,None,0,,,None,938.4973609550007,942.4920949739999,None,942.4923109180008,942.4923691459999,None,942.4924965870005,942.4925334070003,None,,,938.5083273190003,938.5083273190003,942.5194560120008,942.5194560120008,,,,,,,,,1,001,0,,2024-04-16_10h54.13.489,replicate_nsd,2023.2.3,60.04260947794836,2024-04-16 11h02.02.491633 -0400,
images/image_339_seed_1.png,50,0,0,0,0,"[9, 19, 29, 39, 49, 59, 68, 69, 70, 71]",,,,,0,50,50,50,942.5194560120008,,,,,,,,,,,,,,,,,,,,,,,,,,,,,,,,,,,,,,,,,,,,,,942.4929258500006,942.493046640001,942.4930596889999,942.5194560120008,942.5194560120008,943.5087762840003,943.5087762840003,946.5194526759997,946.5194526759997,946.5194526759997,946.5194526759997,946.4926107559995,1,1,1.2112608409988752,None,None,946.4932080680001,946.4932544789999,None,946.4933643899994,946.4934187709996,None,946.4935274419995,946.493563508001,None,,,,,,,,,,,,,,,1,001,0,,2024-04-16_10h54.13.489,replicate_nsd,2023.2.3,60.04260947794836,2024-04-16 11h02.02.491633 -0400,
images/image_84_seed_1.png,51,0,0,0,0,"[9, 19, 29, 39, 49, 59, 68, 69, 70, 71]",,,,,0,51,51,51,946.5194526759997,,,,,,,,,,,,,,,,,,,,,,,,,,,,,,,,,,,,,,,,,,,,,,946.4939409780009,946.4940627339993,946.4940752989996,946.5194526759997,946.5194526759997,947.5088735569998,947.5088735569998,950.5196650309999,950.5196650309999,950.5196650309999,950.5196650309999,950.4924543070001,1,1,0.8279437599994708,None,None,950.493052873001,950.4931026019995,None,950.4932131689993,950.4932692930006,None,950.4933805749997,950.4934163740008,None,,,,,,,,,,,,,,,1,001,0,,2024-04-16_10h54.13.489,replicate_nsd,2023.2.3,60.04260947794836,2024-04-16 11h02.02.491633 -0400,
images/image_274_seed_1.png,52,0,0,0,0,"[9, 19, 29, 39, 49, 59, 68, 69, 70, 71]",,,,,0,52,52,52,950.5196650309999,,,,,,,,,,,,,,,,,,,,,,,,,,,,,,,,,,,,,,,,,,,,,,950.4937955939995,950.4939171039996,950.4939297539995,950.5196650309999,950.5196650309999,951.5086830980008,951.5086830980008,954.519031064,954.519031064,954.519031064,954.519031064,954.4926295079995,1,1,1.0072996689996216,None,None,954.493238084001,954.493283928,None,954.4933942540001,954.4934483480001,None,954.4935579399998,954.4935940059995,None,,,,,,,,,,,,,,,1,001,0,,2024-04-16_10h54.13.489,replicate_nsd,2023.2.3,60.04260947794836,2024-04-16 11h02.02.491633 -0400,
images/image_244_seed_1.png,53,0,0,0,0,"[9, 19, 29, 39, 49, 59, 68, 69, 70, 71]",,,,,0,53,53,53,954.519031064,,,,,,,,,,,,,,,,,,,,,,,,,,,,,,,,,,,,,,,,,,,,,,954.4939754729994,954.4940997969998,954.4941127730008,954.519031064,954.519031064,955.5089254780005,955.5089254780005,958.5199418639995,958.5199418639995,958.5199418639995,958.5199418639995,958.4924765740006,1,1,1.039024226998663,None,None,958.493057001001,958.4931022789997,None,958.4932090869997,958.4932633519993,None,958.4933715689995,958.4934065660009,None,,,,,,,,,,,,,,,1,001,0,,2024-04-16_10h54.13.489,replicate_nsd,2023.2.3,60.04260947794836,2024-04-16 11h02.02.491633 -0400,
images/paired_image_158_2.png,54,0,0,0,0,"[9, 19, 29, 39, 49, 59, 68, 69, 70, 71]",,,,,0,54,54,54,958.5199418639995,,,,,,,,,,,,,,,,,,,,,,,,,,,,,,,,,,,,,,,,,,,,,,958.4937794009993,958.4939014140009,958.4939142249996,958.5199418639995,958.5199418639995,959.5090577809997,959.5090577809997,962.5211912080003,962.5211912080003,962.5211912080003,962.5211912080003,962.4929015320004,1,1,1.0489116530006868,None,None,962.493495175001,962.4935401850007,None,962.493648042001,962.4937026809994,None,962.4938107669996,962.4938461320007,None,,,,,,,,,,,,,,,1,001,0,,2024-04-16_10h54.13.489,replicate_nsd,2023.2.3,60.04260947794836,2024-04-16 11h02.02.491633 -0400,
images/image_34_seed_1.png,55,0,0,0,0,"[9, 19, 29, 39, 49, 59, 68, 69, 70, 71]",,,,,0,55,55,55,962.5211912080003,,,,,,,,,,,,,,,,,,,,,,,,,,,,,,,,,,,,,,,,,,,,,,962.4942209659994,962.4943435979994,962.494356098,962.5211912080003,962.5211912080003,963.5093396450002,963.5093396450002,966.5172236120006,966.5172236120006,966.5172236120006,966.5172236120006,966.4929606289998,1,1,0.7125192369985598,None,None,966.4935536290004,966.493599759001,None,966.4937107079995,966.4937660950009,None,966.4938766059995,966.4939133620001,None,,,,,,,,,,,,,,,1,001,0,,2024-04-16_10h54.13.489,replicate_nsd,2023.2.3,60.04260947794836,2024-04-16 11h02.02.491633 -0400,
images/image_132_seed_1.png,56,0,0,0,0,"[9, 19, 29, 39, 49, 59, 68, 69, 70, 71]",,,,,0,56,56,56,966.5172236120006,,,,,,,,,,,,,,,,,,,,,,,,,,,,,,,,,,,,,,,,,,,,,,966.4942918749994,966.4944138029996,966.4944264119995,966.5172236120006,966.5172236120006,967.5092255680001,967.5092255680001,970.5207613709999,970.5207613709999,970.5207613709999,970.5207613709999,970.4929404069999,1,1,0.7636272590007138,None,None,970.4935341869996,970.4935796849995,None,970.4936887779995,970.4937432390007,None,970.4938521049999,970.4938887079998,None,,,,,,,,,,,,,,,1,001,0,,2024-04-16_10h54.13.489,replicate_nsd,2023.2.3,60.04260947794836,2024-04-16 11h02.02.491633 -0400,
images/image_576_seed_1.png,57,0,0,0,0,"[9, 19, 29, 39, 49, 59, 68, 69, 70, 71]",,,,,0,57,57,57,970.5207613709999,,,,,,,,,,,,,,,,,,,,,,,,,,,,,,,,,,,,,,,,,,,,,,970.4942668230005,970.4943885540006,970.4944016119998,970.5207613709999,970.5207613709999,971.5094703910008,971.5094703910008,974.5190798030007,974.5190798030007,974.5190798030007,974.5190798030007,974.4931439239999,1,1,0.8265230229990266,None,None,974.4937491589999,974.4937957550001,None,974.4939060740007,974.493961430001,None,974.4940733100002,974.4941094239994,None,,,,,,,,,,,,,,,1,001,0,,2024-04-16_10h54.13.489,replicate_nsd,2023.2.3,60.04260947794836,2024-04-16 11h02.02.491633 -0400,
images/image_324_seed_1.png,58,0,0,0,0,"[9, 19, 29, 39, 49, 59, 68, 69, 70, 71]",,,,,0,58,58,58,974.5190798030007,,,,,,,,,,,,,,,,,,,,,,,,,,,,,,,,,,,,,,,,,,,,,,974.4944908810003,974.4946145690001,974.494627463001,974.5190798030007,974.5190798030007,975.5095385989998,975.5095385989998,978.5094368550008,978.5094368550008,978.5094368550008,978.5094368550008,978.4932331690006,1,1,0.7774495769990608,None,None,978.4938275600007,978.4938721280005,None,978.4939810490005,978.494035097,None,978.4941433310005,978.4941800450006,None,,,,,,,,,,,,,,,1,001,0,,2024-04-16_10h54.13.489,replicate_nsd,2023.2.3,60.04260947794836,2024-04-16 11h02.02.491633 -0400,
blank.jpg,59,1,0,0,0,"[9, 19, 29, 39, 49, 59, 68, 69, 70, 71]",,,,,0,59,59,59,978.5094368550008,,,,,,,,,,,,,,,,,,,,,,,,,,,,,,,,,,,,,,,,,,,,,,978.4945562799994,978.4946770970009,978.4946899209999,,,,,,,,,978.4984506230003,None,0,,,None,978.4988376560004,982.4932676170001,None,982.4934814960006,982.493540204,None,982.4936679510001,982.4937067319997,None,,,978.5094368550008,978.5094368550008,982.5162658500003,982.5162658500003,,,,,,,,,1,001,0,,2024-04-16_10h54.13.489,replicate_nsd,2023.2.3,60.04260947794836,2024-04-16 11h02.02.491633 -0400,
images/image_142_seed_1.png,60,0,0,0,0,"[9, 19, 29, 39, 49, 59, 68, 69, 70, 71]",,,,,0,60,60,60,982.5162658500003,,,,,,,,,,,,,,,,,,,,,,,,,,,,,,,,,,,,,,,,,,,,,,982.4940999100008,982.4942223919998,982.494235227,982.5162658500003,982.5162658500003,983.5097260739994,983.5097260739994,986.5215113610002,986.5215113610002,986.5215113610002,986.5215113610002,986.4935157789996,1,1,0.6781433970008948,None,None,986.4941137070009,986.4941599040003,None,986.4942710149999,986.4943259000001,None,986.4944355020007,986.4944719099994,None,,,,,,,,,,,,,,,1,001,0,,2024-04-16_10h54.13.489,replicate_nsd,2023.2.3,60.04260947794836,2024-04-16 11h02.02.491633 -0400,
images/image_401_seed_1.png,61,0,0,0,0,"[9, 19, 29, 39, 49, 59, 68, 69, 70, 71]",,,,,0,61,61,61,986.5215113610002,,,,,,,,,,,,,,,,,,,,,,,,,,,,,,,,,,,,,,,,,,,,,,986.4948471979997,986.4949690029998,986.4949820610009,986.5215113610002,986.5215113610002,987.5098906409994,987.5098906409994,990.5205219579993,990.5205219579993,990.5205219579993,990.5205219579993,990.4936403630008,1,1,0.720096282000668,None,None,990.4943051769997,990.4943507430007,None,990.4944608939995,990.4945159080007,None,990.4946257210004,990.4946620729997,None,,,,,,,,,,,,,,,1,001,0,,2024-04-16_10h54.13.489,replicate_nsd,2023.2.3,60.04260947794836,2024-04-16 11h02.02.491633 -0400,
images/image_299_seed_1.png,62,0,0,0,0,"[9, 19, 29, 39, 49, 59, 68, 69, 70, 71]",,,,,0,62,62,62,990.5205219579993,,,,,,,,,,,,,,,,,,,,,,,,,,,,,,,,,,,,,,,,,,,,,,990.4950367530009,990.4951584109995,990.4951714780009,990.5205219579993,990.5205219579993,991.5099859169995,991.5099859169995,994.5177695190005,994.5177695190005,994.5177695190005,994.5177695190005,994.4938710910001,1,1,0.9529976489993714,None,None,994.4946449410008,994.4946901520007,None,994.4947998319994,994.494854294001,None,994.4949637979998,994.4950001030002,None,,,,,,,,,,,,,,,1,001,0,,2024-04-16_10h54.13.489,replicate_nsd,2023.2.3,60.04260947794836,2024-04-16 11h02.02.491633 -0400,
images/image_434_seed_1.png,63,0,0,0,0,"[9, 19, 29, 39, 49, 59, 68, 69, 70, 71]",,,,,0,63,63,63,994.5177695190005,,,,,,,,,,,,,,,,,,,,,,,,,,,,,,,,,,,,,,,,,,,,,,994.4953781939994,994.495499781001,994.4955130120006,994.5177695190005,994.5177695190005,995.509915089001,995.509915089001,998.5129628610002,998.5129628610002,998.5129628610002,998.5129628610002,998.4937549769993,1,1,0.6839151429994672,None,None,998.4943501730004,998.4943949769995,None,998.4945043069993,998.4945592249996,None,998.4946677550006,998.4947038279997,None,,,,,,,,,,,,,,,1,001,0,,2024-04-16_10h54.13.489,replicate_nsd,2023.2.3,60.04260947794836,2024-04-16 11h02.02.491633 -0400,
images/18_78.png,64,0,0,0,0,"[9, 19, 29, 39, 49, 59, 68, 69, 70, 71]",,,,,0,64,64,64,998.5129628610002,,,,,,,,,,,,,,,,,,,,,,,,,,,,,,,,,,,,,,,,,,,,,,998.4950819699998,998.4952046980006,998.4952177389996,998.5129628610002,998.5129628610002,999.5098943010007,999.5098943010007,1002.5221884970006,1002.5221884970006,1002.5221884970006,1002.5221884970006,1002.4938744359997,1,1,0.7990628859988647,None,None,1002.494473007001,1002.4945185080005,None,1002.4946273329997,1002.4946819219995,None,1002.4947912960006,1002.494827898,None,,,,,,,,,,,,,,,1,001,0,,2024-04-16_10h54.13.489,replicate_nsd,2023.2.3,60.04260947794836,2024-04-16 11h02.02.491633 -0400,
images/image_532_seed_1.png,65,0,0,0,0,"[9, 19, 29, 39, 49, 59, 68, 69, 70, 71]",,,,,0,65,65,65,1002.5221884970006,,,,,,,,,,,,,,,,,,,,,,,,,,,,,,,,,,,,,,,,,,,,,,1002.4952062290004,1002.4953276469996,1002.4953401930006,1002.5221884970006,1002.5221884970006,1003.5103217730002,1003.5103217730002,1006.5219220000008,1006.5219220000008,1006.5219220000008,1006.5219220000008,1006.4940647140002,1,1,0.8806141240002034,None,None,1006.4948393130007,1006.4948838150003,None,1006.494993749001,1006.4950475070009,None,1006.4951574880006,1006.4951937249998,None,,,,,,,,,,,,,,,1,001,0,,2024-04-16_10h54.13.489,replicate_nsd,2023.2.3,60.04260947794836,2024-04-16 11h02.02.491633 -0400,
images/image_708_seed_1.png,66,0,0,0,0,"[9, 19, 29, 39, 49, 59, 68, 69, 70, 71]",,,,,0,66,66,66,1006.5219220000008,,,,,,,,,,,,,,,,,,,,,,,,,,,,,,,,,,,,,,,,,,,,,,1006.4955739389998,1006.4956967339995,1006.4957097659999,1006.5219220000008,1006.5219220000008,1007.5102739340009,1007.5102739340009,1010.5247693520005,1010.5247693520005,1010.5247693520005,1010.5247693520005,1010.493935159001,1,1,0.7826880259999598,None,None,1010.4945346720006,1010.494584907,None,1010.4946950849999,1010.4947496590003,None,1010.4948593199997,1010.4948956899998,None,,,,,,,,,,,,,,,1,001,0,,2024-04-16_10h54.13.489,replicate_nsd,2023.2.3,60.04260947794836,2024-04-16 11h02.02.491633 -0400,
images/image_178_seed_1.png,67,0,0,0,0,"[9, 19, 29, 39, 49, 59, 68, 69, 70, 71]",,,,,0,67,67,67,1010.5247693520005,,,,,,,,,,,,,,,,,,,,,,,,,,,,,,,,,,,,,,,,,,,,,,1010.4952710429998,1010.4953937599994,1010.4954064919993,1010.5247693520005,1010.5247693520005,1011.5105021360005,1011.5105021360005,1014.5103592530004,1014.5103592530004,1014.5103592530004,1014.5103592530004,1014.4941174170008,1,1,0.7734745949983335,None,None,1014.494711149001,1014.4947570939994,None,1014.4948679149993,1014.4949216159994,None,1014.4950300289993,1014.495065985001,None,,,,,,,,,,,,,,,1,001,0,,2024-04-16_10h54.13.489,replicate_nsd,2023.2.3,60.04260947794836,2024-04-16 11h02.02.491633 -0400,
blank.jpg,68,1,0,0,0,"[9, 19, 29, 39, 49, 59, 68, 69, 70, 71]",,,,,0,68,68,68,1014.5103592530004,,,,,,,,,,,,,,,,,,,,,,,,,,,,,,,,,,,,,,,,,,,,,,1014.4954433350003,1014.4955659029993,1014.4955790070007,,,,,,,,,1014.4993666399996,None,0,,,None,1014.4997604490009,1018.4939157109993,None,1018.4941197020007,1018.4941783410004,None,1018.4943087130005,1018.4943469050004,None,,,1014.5103592530004,1014.5103592530004,1018.5103470549993,1018.5103470549993,,,,,,,,,1,001,0,,2024-04-16_10h54.13.489,replicate_nsd,2023.2.3,60.04260947794836,2024-04-16 11h02.02.491633 -0400,
blank.jpg,69,1,0,0,0,"[9, 19, 29, 39, 49, 59, 68, 69, 70, 71]",,,,,0,69,69,69,1018.5103470549993,,,,,,,,,,,,,,,,,,,,,,,,,,,,,,,,,,,,,,,,,,,,,,1018.4947466439999,1018.494871793001,1018.4948847170008,,,,,,,,,1018.4975453279994,None,0,,,None,1018.4980746930005,1022.4945098889993,None,1022.4948221969998,1022.494911828001,None,1022.4951113409998,1022.4951498189994,None,,,1018.5103470549993,1018.5103470549993,1022.5106407369994,1022.5106407369994,,,,,,,,,1,001,0,,2024-04-16_10h54.13.489,replicate_nsd,2023.2.3,60.04260947794836,2024-04-16 11h02.02.491633 -0400,
blank.jpg,70,1,0,0,0,"[9, 19, 29, 39, 49, 59, 68, 69, 70, 71]",,,,,0,70,70,70,1022.5106407369994,,,,,,,,,,,,,,,,,,,,,,,,,,,,,,,,,,,,,,,,,,,,,,1022.4955444689995,1022.4956680309997,1022.4956809059995,,,,,,,,,1022.4986165719993,None,0,,,None,1022.4991208389993,1026.4944086490004,None,1026.4946212160003,1026.494678598,None,1026.4948068490003,1026.4948456470001,None,,,1022.5106407369994,1022.5106407369994,1026.5107587960001,1026.5107587960001,,,,,,,,,1,001,0,,2024-04-16_10h54.13.489,replicate_nsd,2023.2.3,60.04260947794836,2024-04-16 11h02.02.491633 -0400,
blank.jpg,71,1,0,1,0,"[9, 19, 29, 39, 49, 59, 68, 69, 70, 71]",,,,,0,71,71,71,1026.5107587960001,,,,,,,,,,,,,,,,,,,,,,,,,,,,,,,,,,,,,,,,,,,,,,1026.4952389809996,1026.4953618000009,1026.495374569001,,,,,,,,,1026.498131143001,None,0,,,None,1026.498628149001,1030.4944557099998,None,1030.4946714290008,1035.4608832290005,1,1035.4617294120008,1071.1446875440006,equal,,,1026.5107587960001,1026.5107587960001,1030.5143102230004,1030.5143102230004,1030.5143102230004,1030.5143102230004,4.941511540999272,None,1035.4773364870007,1035.4773364870007,35.66066096600116,None,1,001,0,,2024-04-16_10h54.13.489,replicate_nsd,2023.2.3,60.04260947794836,2024-04-16 11h02.02.491633 -0400,
images/image_267_seed_1.png,0,0,0,0,1,"[9, 19, 31, 42, 56, 68, 69, 70, 71]",,,,,0,72,72,72,1071.1706175160007,,,,,,,,,,,,,,,,,,,,,,,,,,,,,,,,,,,,,,,,,,,,,,1071.1457183459997,1071.145803534001,1071.1458126360003,1071.1706175160007,1071.1706175160007,1072.161865209001,1072.161865209001,1075.1726047990005,1075.1726047990005,1075.1726047990005,1075.1726047990005,1075.1456081669994,2,0,1.82311704499989,None,None,1075.1462144660009,1075.1462612170008,None,1075.1463719310004,1075.1464321890007,None,1075.1465440130005,1075.1465813999994,None,,,,,,,,,,,,,,,1,001,0,,2024-04-16_10h54.13.489,replicate_nsd,2023.2.3,60.04260947794836,2024-04-16 11h02.02.491633 -0400,
images/image_145_seed_1.png,1,0,0,0,1,"[9, 19, 31, 42, 56, 68, 69, 70, 71]",,,,,0,73,73,73,1075.1726047990005,,,,,,,,,,,,,,,,,,,,,,,,,,,,,,,,,,,,,,,,,,,,,,1075.1469615569995,1075.1470848689996,1075.147097592001,1075.1726047990005,1075.1726047990005,1076.1619235150001,1076.1619235150001,1079.1648999319996,1079.1648999319996,1079.1648999319996,1079.1648999319996,1079.145693249001,1,1,0.7040620429997944,None,None,1079.146290650001,1079.146337098001,None,1079.1464466570005,1079.1465028060002,None,1079.1466121469994,1079.1466488340002,None,,,,,,,,,,,,,,,1,001,0,,2024-04-16_10h54.13.489,replicate_nsd,2023.2.3,60.04260947794836,2024-04-16 11h02.02.491633 -0400,
images/13_44.png,2,0,0,0,1,"[9, 19, 31, 42, 56, 68, 69, 70, 71]",,,,,0,74,74,74,1079.1648999319996,,,,,,,,,,,,,,,,,,,,,,,,,,,,,,,,,,,,,,,,,,,,,,1079.1470251969995,1079.1471463650005,1079.1471595140001,1079.1648999319996,1079.1648999319996,1080.161838264,1080.161838264,1083.1736193320003,1083.1736193320003,1083.1736193320003,1083.1736193320003,1083.1450626110009,1,1,0.7770732169992698,None,None,1083.1455354050004,1083.145570484,None,1083.145656138001,1083.1457007870004,None,1083.1457872679994,1083.1458161260007,None,,,,,,,,,,,,,,,1,001,0,,2024-04-16_10h54.13.489,replicate_nsd,2023.2.3,60.04260947794836,2024-04-16 11h02.02.491633 -0400,
images/image_506_seed_1.png,3,0,0,0,1,"[9, 19, 31, 42, 56, 68, 69, 70, 71]",,,,,0,75,75,75,1083.1736193320003,,,,,,,,,,,,,,,,,,,,,,,,,,,,,,,,,,,,,,,,,,,,,,1083.1461108470003,1083.1462054369995,1083.146215744001,1083.1736193320003,1083.1736193320003,1084.1622447689997,1084.1622447689997,1087.174578104,1087.174578104,1087.174578104,1087.174578104,1087.1460882239999,1,1,0.992760912000449,None,None,1087.1466813800007,1087.146726588001,None,1087.1468346110005,1087.1468907259996,None,1087.1470011400006,1087.147037488,None,,,,,,,,,,,,,,,1,001,0,,2024-04-16_10h54.13.489,replicate_nsd,2023.2.3,60.04260947794836,2024-04-16 11h02.02.491633 -0400,
images/image_420_seed_1.png,4,0,0,0,1,"[9, 19, 31, 42, 56, 68, 69, 70, 71]",,,,,0,76,76,76,1087.174578104,,,,,,,,,,,,,,,,,,,,,,,,,,,,,,,,,,,,,,,,,,,,,,1087.1474120510002,1087.1475339689996,1087.1475466340007,1087.174578104,1087.174578104,1088.1623419420002,1088.1623419420002,1091.1666182119998,1091.1666182119998,1091.1666182119998,1091.1666182119998,1091.144861056001,1,1,1.2474761150006088,None,None,1091.1451922139995,1091.1452173030002,None,1091.1452826710001,1091.1453151760006,None,1091.1453804500006,1091.1454013230004,None,,,,,,,,,,,,,,,1,001,0,,2024-04-16_10h54.13.489,replicate_nsd,2023.2.3,60.04260947794836,2024-04-16 11h02.02.491633 -0400,
images/image_651_seed_1.png,5,0,0,0,1,"[9, 19, 31, 42, 56, 68, 69, 70, 71]",,,,,0,77,77,77,1091.1666182119998,,,,,,,,,,,,,,,,,,,,,,,,,,,,,,,,,,,,,,,,,,,,,,1091.1456193910008,1091.1456879349998,1091.1456952979997,1091.1666182119998,1091.1666182119998,1092.1613938239998,1092.1613938239998,1095.1679527650003,1095.1679527650003,1095.1679527650003,1095.1679527650003,1095.1448615510008,1,1,0.7764625899999373,None,None,1095.1451822850004,1095.1452073009996,None,1095.1452664479993,1095.1452981640005,None,1095.1453562020006,1095.1453757009995,None,,,,,,,,,,,,,,,1,001,0,,2024-04-16_10h54.13.489,replicate_nsd,2023.2.3,60.04260947794836,2024-04-16 11h02.02.491633 -0400,
images/image_694_seed_1.png,6,0,0,0,1,"[9, 19, 31, 42, 56, 68, 69, 70, 71]",,,,,0,78,78,78,1095.1679527650003,,,,,,,,,,,,,,,,,,,,,,,,,,,,,,,,,,,,,,,,,,,,,,1095.145585487001,1095.1456559970002,1095.145663024,1095.1679527650003,1095.1679527650003,1096.1613835380003,1096.1613835380003,1099.1665728790003,1099.1665728790003,1099.1665728790003,1099.1665728790003,1099.1449715089993,1,1,0.8424497690011776,None,None,1099.1453003180004,1099.1453250099994,None,1099.1453856380003,1099.145418082001,None,1099.1454790460002,1099.145499358,None,,,,,,,,,,,,,,,1,001,0,,2024-04-16_10h54.13.489,replicate_nsd,2023.2.3,60.04260947794836,2024-04-16 11h02.02.491633 -0400,
images/image_358_seed_1.png,7,0,0,0,1,"[9, 19, 31, 42, 56, 68, 69, 70, 71]",,,,,0,79,79,79,1099.1665728790003,,,,,,,,,,,,,,,,,,,,,,,,,,,,,,,,,,,,,,,,,,,,,,1099.145712251001,1099.145780414,1099.145787640001,1099.1665728790003,1099.1665728790003,1100.161504871,1100.161504871,1103.1726898339994,1103.1726898339994,1103.1726898339994,1103.1726898339994,1103.1461727150008,1,1,0.8393202179995569,None,None,1103.146768439,1103.1468130410003,None,1103.146921390001,1103.146976459001,None,1103.1470852949997,1103.1471215350002,None,,,,,,,,,,,,,,,1,001,0,,2024-04-16_10h54.13.489,replicate_nsd,2023.2.3,60.04260947794836,2024-04-16 11h02.02.491633 -0400,
images/image_153_seed_1.png,8,0,0,0,1,"[9, 19, 31, 42, 56, 68, 69, 70, 71]",,,,,0,80,80,80,1103.1726898339994,,,,,,,,,,,,,,,,,,,,,,,,,,,,,,,,,,,,,,,,,,,,,,1103.1474982629998,1103.1476195959995,1103.1476323859997,1103.1726898339994,1103.1726898339994,1104.162296638001,1104.162296638001,1107.1620417580007,1107.1620417580007,1107.1620417580007,1107.1620417580007,1107.1457832629994,1,1,0.7936941619991558,None,None,1107.1462672370008,1107.1463036590003,None,1107.1463923740002,1107.1464383110006,None,1107.1465262499996,1107.146555757,None,,,,,,,,,,,,,,,1,001,0,,2024-04-16_10h54.13.489,replicate_nsd,2023.2.3,60.04260947794836,2024-04-16 11h02.02.491633 -0400,
blank.jpg,9,1,0,0,1,"[9, 19, 31, 42, 56, 68, 69, 70, 71]",,,,,0,81,81,81,1107.1620417580007,,,,,,,,,,,,,,,,,,,,,,,,,,,,,,,,,,,,,,,,,,,,,,1107.1468598319998,1107.1469573620006,1107.1469676030001,,,,,,,,,1107.1497845679996,None,0,,,None,1107.1500567020003,1111.146363189001,None,1111.1465767430009,1111.1466363459995,None,1111.1467645889998,1111.1468022479994,None,,,1107.1620417580007,1107.1620417580007,1111.173032091,1111.173032091,,,,,,,,,1,001,0,,2024-04-16_10h54.13.489,replicate_nsd,2023.2.3,60.04260947794836,2024-04-16 11h02.02.491633 -0400,
images/image_565_seed_1.png,10,0,0,0,1,"[9, 19, 31, 42, 56, 68, 69, 70, 71]",,,,,0,82,82,82,1111.173032091,,,,,,,,,,,,,,,,,,,,,,,,,,,,,,,,,,,,,,,,,,,,,,1111.1471914519998,1111.147313544,1111.1473260049997,1111.173032091,1111.173032091,1112.1628453700005,1112.1628453700005,1115.1744969660003,1115.1744969660003,1115.1744969660003,1115.1744969660003,1115.1465450210007,1,1,0.6811354820001725,None,None,1115.1471476020006,1115.1471974690003,None,1115.1473070580005,1115.1473624130003,None,1115.1474720420001,1115.1475079700003,None,,,,,,,,,,,,,,,1,001,0,,2024-04-16_10h54.13.489,replicate_nsd,2023.2.3,60.04260947794836,2024-04-16 11h02.02.491633 -0400,
images/image_8_seed_1.png,11,0,0,0,1,"[9, 19, 31, 42, 56, 68, 69, 70, 71]",,,,,0,83,83,83,1115.1744969660003,,,,,,,,,,,,,,,,,,,,,,,,,,,,,,,,,,,,,,,,,,,,,,1115.1478840959999,1115.1480062550008,1115.148019147001,1115.1744969660003,1115.1744969660003,1116.1622323109996,1116.1622323109996,1119.1700539639996,1119.1700539639996,1119.1700539639996,1119.1700539639996,1119.1458555529998,1,1,0.7707687809997879,None,None,1119.1462535849996,1119.1462836790006,None,1119.1463566320008,1119.1463942689998,None,1119.146467083,1119.146491245,None,,,,,,,,,,,,,,,1,001,0,,2024-04-16_10h54.13.489,replicate_nsd,2023.2.3,60.04260947794836,2024-04-16 11h02.02.491633 -0400,
images/image_152_seed_1.png,12,0,0,0,1,"[9, 19, 31, 42, 56, 68, 69, 70, 71]",,,,,0,84,84,84,1119.1700539639996,,,,,,,,,,,,,,,,,,,,,,,,,,,,,,,,,,,,,,,,,,,,,,1119.1467435610002,1119.1468242500005,1119.146832757001,1119.1700539639996,1119.1700539639996,1120.163089867,1120.163089867,1123.1729531989995,1123.1729531989995,1123.1729531989995,1123.1729531989995,1123.1467541499997,1,1,1.1738925650006422,None,None,1123.1473532499995,1123.1474030559993,None,1123.1475122180009,1123.1475684400002,None,1123.1476790669994,1123.1477151610006,None,,,,,,,,,,,,,,,1,001,0,,2024-04-16_10h54.13.489,replicate_nsd,2023.2.3,60.04260947794836,2024-04-16 11h02.02.491633 -0400,
images/image_173_seed_1.png,13,0,0,0,1,"[9, 19, 31, 42, 56, 68, 69, 70, 71]",,,,,0,85,85,85,1123.1729531989995,,,,,,,,,,,,,,,,,,,,,,,,,,,,,,,,,,,,,,,,,,,,,,1123.1480908210006,1123.1482132230003,1123.1482259400009,1123.1729531989995,1123.1729531989995,1124.1798109630008,1124.1798109630008,1127.1828212680002,1127.1828212680002,1127.1828212680002,1127.1828212680002,1127.163616879,1,1,0.8031766959993547,None,None,1127.164208655001,1127.1642582819995,None,1127.164369489,1127.1644257050002,None,1127.1645341890007,1127.1645705679994,None,,,,,,,,,,,,,,,1,001,0,,2024-04-16_10h54.13.489,replicate_nsd,2023.2.3,60.04260947794836,2024-04-16 11h02.02.491633 -0400,
images/4_22.png,14,0,0,0,1,"[9, 19, 31, 42, 56, 68, 69, 70, 71]",,,,,0,86,86,86,1127.1828212680002,,,,,,,,,,,,,,,,,,,,,,,,,,,,,,,,,,,,,,,,,,,,,,1127.1649424220004,1127.1650639419995,1127.165076675,1127.1828212680002,1127.1828212680002,1128.1799304700007,1128.1799304700007,1131.1849893110002,1131.1849893110002,1131.1849893110002,1131.1849893110002,1131.1626580860002,1,1,1.0219377699995675,None,None,1131.162985037,1131.163009506,None,1131.1630682509995,1131.1630996480008,None,1131.1631587839993,1131.1631786980006,None,,,,,,,,,,,,,,,1,001,0,,2024-04-16_10h54.13.489,replicate_nsd,2023.2.3,60.04260947794836,2024-04-16 11h02.02.491633 -0400,
images/image_648_seed_1.png,15,0,0,0,1,"[9, 19, 31, 42, 56, 68, 69, 70, 71]",,,,,0,87,87,87,1131.1849893110002,,,,,,,,,,,,,,,,,,,,,,,,,,,,,,,,,,,,,,,,,,,,,,1131.1633843320005,1131.163452246,1131.1634591859993,1131.1849893110002,1131.1849893110002,1132.1790843959998,1132.1790843959998,1135.1925795050001,1135.1925795050001,1135.1925795050001,1135.1925795050001,1135.1638076900008,1,1,1.7419036949995643,None,None,1135.164579532001,1135.1646244049998,None,1135.1647332700004,1135.1647886140008,None,1135.1649002719996,1135.1649364060004,None,,,,,,,,,,,,,,,1,001,0,,2024-04-16_10h54.13.489,replicate_nsd,2023.2.3,60.04260947794836,2024-04-16 11h02.02.491633 -0400,
images/image_618_seed_1.png,16,0,0,0,1,"[9, 19, 31, 42, 56, 68, 69, 70, 71]",,,,,0,88,88,88,1135.1925795050001,,,,,,,,,,,,,,,,,,,,,,,,,,,,,,,,,,,,,,,,,,,,,,1135.1653103380004,1135.1654311230004,1135.165444266001,1135.1925795050001,1135.1925795050001,1136.1799616990002,1136.1799616990002,1139.1931530209995,1139.1931530209995,1139.1931530209995,1139.1931530209995,1139.164117155001,1,1,1.1060091039998952,None,None,1139.1648886249995,1139.1649336729997,None,1139.1650421570002,1139.165098474,None,1139.1652068030007,1139.165243261,None,,,,,,,,,,,,,,,1,001,0,,2024-04-16_10h54.13.489,replicate_nsd,2023.2.3,60.04260947794836,2024-04-16 11h02.02.491633 -0400,
images/image_13_seed_1.png,17,0,0,0,1,"[9, 19, 31, 42, 56, 68, 69, 70, 71]",,,,,0,89,89,89,1139.1931530209995,,,,,,,,,,,,,,,,,,,,,,,,,,,,,,,,,,,,,,,,,,,,,,1139.1656169919997,1139.1657373669996,1139.1657499500006,1139.1931530209995,1139.1931530209995,1140.1799373999993,1140.1799373999993,1143.186727786001,1143.186727786001,1143.186727786001,1143.186727786001,1143.1631343130002,1,1,0.7050885139997263,None,None,1143.1635297269995,1143.1635585220001,None,1143.163628884001,1143.1636664919997,None,1143.1637363599993,1143.1637598389998,None,,,,,,,,,,,,,,,1,001,0,,2024-04-16_10h54.13.489,replicate_nsd,2023.2.3,60.04260947794836,2024-04-16 11h02.02.491633 -0400,
images/image_593_seed_1.png,18,0,0,0,1,"[9, 19, 31, 42, 56, 68, 69, 70, 71]",,,,,0,90,90,90,1143.186727786001,,,,,,,,,,,,,,,,,,,,,,,,,,,,,,,,,,,,,,,,,,,,,,1143.1640095089997,1143.1640884729995,1143.1640968790007,1143.186727786001,1143.186727786001,1144.1803243870008,1144.1803243870008,1147.1804253910004,1147.1804253910004,1147.1804253910004,1147.1804253910004,1147.1642142150004,1,1,0.8165409720004391,None,None,1147.1648081699996,1147.1648529950007,None,1147.1649606109995,1147.1650163919994,None,1147.1651247420004,1147.165161244001,None,,,,,,,,,,,,,,,1,001,0,,2024-04-16_10h54.13.489,replicate_nsd,2023.2.3,60.04260947794836,2024-04-16 11h02.02.491633 -0400,
blank.jpg,19,1,0,0,1,"[9, 19, 31, 42, 56, 68, 69, 70, 71]",,,,,0,91,91,91,1147.1804253910004,,,,,,,,,,,,,,,,,,,,,,,,,,,,,,,,,,,,,,,,,,,,,,1147.1655318950006,1147.165652136001,1147.1656646460006,,,,,,,,,1147.1690110999998,None,0,,,None,1147.1693284559997,1151.164089801,None,1151.1643005750002,1151.1643600329999,None,1151.1644872250008,1151.1645248550003,None,,,1147.1804253910004,1147.1804253910004,1151.1903591189994,1151.1903591189994,,,,,,,,,1,001,0,,2024-04-16_10h54.13.489,replicate_nsd,2023.2.3,60.04260947794836,2024-04-16 11h02.02.491633 -0400,
images/image_66_seed_1.png,20,0,0,0,1,"[9, 19, 31, 42, 56, 68, 69, 70, 71]",,,,,0,92,92,92,1151.1903591189994,,,,,,,,,,,,,,,,,,,,,,,,,,,,,,,,,,,,,,,,,,,,,,1151.1649179799997,1151.165040504001,1151.1650534690007,1151.1903591189994,1151.1903591189994,1152.1805295149998,1152.1805295149998,1155.1879050449998,1155.1879050449998,1155.1879050449998,1155.1879050449998,1155.1636714999995,1,1,0.6654253489996336,None,None,1155.1641505769994,1155.1641876010008,None,1155.1642753269998,1155.164319781,None,1155.1644066910003,1155.1644356040006,None,,,,,,,,,,,,,,,1,001,0,,2024-04-16_10h54.13.489,replicate_nsd,2023.2.3,60.04260947794836,2024-04-16 11h02.02.491633 -0400,
images/image_343_seed_1.png,21,0,0,0,1,"[9, 19, 31, 42, 56, 68, 69, 70, 71]",,,,,0,93,93,93,1155.1879050449998,,,,,,,,,,,,,,,,,,,,,,,,,,,,,,,,,,,,,,,,,,,,,,1155.1647378000007,1155.1648355730003,1155.1648461039995,1155.1879050449998,1155.1879050449998,1156.1805827609996,1156.1805827609996,1159.190870542,1159.190870542,1159.190870542,1159.190870542,1159.1643314889998,1,1,0.911320789000456,None,None,1159.1649284740006,1159.164973207001,None,1159.165080789001,1159.1651367990007,None,1159.165244570001,1159.165281253,None,,,,,,,,,,,,,,,1,001,0,,2024-04-16_10h54.13.489,replicate_nsd,2023.2.3,60.04260947794836,2024-04-16 11h02.02.491633 -0400,
images/image_47_seed_1.png,22,0,0,0,1,"[9, 19, 31, 42, 56, 68, 69, 70, 71]",,,,,0,94,94,94,1159.190870542,,,,,,,,,,,,,,,,,,,,,,,,,,,,,,,,,,,,,,,,,,,,,,1159.1656565010007,1159.1657785680009,1159.1657911600005,1159.190870542,1159.190870542,1160.1806554730001,1160.1806554730001,1163.1828941590002,1163.1828941590002,1163.1828941590002,1163.1828941590002,1163.1644386199996,1,1,0.9442793370017171,None,None,1163.165027336,1163.165072076,None,1163.165180391,1163.1652355260003,None,1163.165343832,1163.1653794250005,None,,,,,,,,,,,,,,,1,001,0,,2024-04-16_10h54.13.489,replicate_nsd,2023.2.3,60.04260947794836,2024-04-16 11h02.02.491633 -0400,
images/15_89.png,23,0,0,0,1,"[9, 19, 31, 42, 56, 68, 69, 70, 71]",,,,,0,95,95,95,1163.1828941590002,,,,,,,,,,,,,,,,,,,,,,,,,,,,,,,,,,,,,,,,,,,,,,1163.165751771,1163.1658710910006,1163.165883914001,1163.1828941590002,1163.1828941590002,1164.1807149719998,1164.1807149719998,1167.1882610790008,1167.1882610790008,1167.1882610790008,1167.1882610790008,1167.1637688359997,1,1,1.3572833860016544,None,None,1167.164171202,1167.1642006989996,None,1167.1642722490005,1167.1643102440003,None,1167.1643826000009,1167.1644070360007,None,,,,,,,,,,,,,,,1,001,0,,2024-04-16_10h54.13.489,replicate_nsd,2023.2.3,60.04260947794836,2024-04-16 11h02.02.491633 -0400,
images/image_280_seed_1.png,24,0,0,0,1,"[9, 19, 31, 42, 56, 68, 69, 70, 71]",,,,,0,96,96,96,1167.1882610790008,,,,,,,,,,,,,,,,,,,,,,,,,,,,,,,,,,,,,,,,,,,,,,1167.1646591340004,1167.1647399540007,1167.16474854,1167.1882610790008,1167.1882610790008,1168.180973419,1168.180973419,1171.189706143,1171.189706143,1171.189706143,1171.189706143,1171.164526253001,1,1,0.7230060019992379,None,None,1171.1651204470008,1171.1651650070007,None,1171.1652740210002,1171.1653296209997,None,1171.16543921,1171.1654758630002,None,,,,,,,,,,,,,,,1,001,0,,2024-04-16_10h54.13.489,replicate_nsd,2023.2.3,60.04260947794836,2024-04-16 11h02.02.491633 -0400,
images/image_445_seed_1.png,25,0,0,0,1,"[9, 19, 31, 42, 56, 68, 69, 70, 71]",,,,,0,97,97,97,1171.189706143,,,,,,,,,,,,,,,,,,,,,,,,,,,,,,,,,,,,,,,,,,,,,,1171.165855792001,1171.1659781869994,1171.1659910930002,1171.189706143,1171.189706143,1172.1809696169994,1172.1809696169994,1175.1950841850003,1175.1950841850003,1175.1950841850003,1175.1950841850003,1175.1649762320003,1,1,0.8700404060000437,None,None,1175.165744762001,1175.1657901490007,None,1175.1658974230004,1175.1659526030007,None,1175.1660602260008,1175.1660967279995,None,,,,,,,,,,,,,,,1,001,0,,2024-04-16_10h54.13.489,replicate_nsd,2023.2.3,60.04260947794836,2024-04-16 11h02.02.491633 -0400,
images/image_677_seed_1.png,26,0,0,0,1,"[9, 19, 31, 42, 56, 68, 69, 70, 71]",,,,,0,98,98,98,1175.1950841850003,,,,,,,,,,,,,,,,,,,,,,,,,,,,,,,,,,,,,,,,,,,,,,1175.1664665470007,1175.1665870850002,1175.1666000970008,1175.1950841850003,1175.1950841850003,1176.181140664,1176.181140664,1179.188894762,1179.188894762,1179.188894762,1179.188894762,1179.1640945070003,1,1,0.7608452269996633,None,None,1179.1645750510006,1179.1646107799997,None,1179.16469848,1179.1647445530007,None,1179.1648336730004,1179.1648627130007,None,,,,,,,,,,,,,,,1,001,0,,2024-04-16_10h54.13.489,replicate_nsd,2023.2.3,60.04260947794836,2024-04-16 11h02.02.491633 -0400,
images/image_16_seed_1.png,27,0,0,0,1,"[9, 19, 31, 42, 56, 68, 69, 70, 71]",,,,,0,99,99,99,1179.188894762,,,,,,,,,,,,,,,,,,,,,,,,,,,,,,,,,,,,,,,,,,,,,,1179.165167057,1179.1652654079999,1179.1652758209993,1179.188894762,1179.188894762,1180.1812120589993,1180.1812120589993,1183.1925563020004,1183.1925563020004,1183.1925563020004,1183.1925563020004,1183.164948693001,1,1,0.9267894990007335,None,None,1183.1655343470002,1183.165583295001,None,1183.1656925439993,1183.1657485080004,None,1183.1658566779997,1183.1658935570003,None,,,,,,,,,,,,,,,1,001,0,,2024-04-16_10h54.13.489,replicate_nsd,2023.2.3,60.04260947794836,2024-04-16 11h02.02.491633 -0400,
images/image_530_seed_1.png,28,0,0,0,1,"[9, 19, 31, 42, 56, 68, 69, 70, 71]",,,,,0,100,100,100,1183.1925563020004,,,,,,,,,,,,,,,,,,,,,,,,,,,,,,,,,,,,,,,,,,,,,,1183.1662680569998,1183.1663909730005,1183.1664037220007,1183.1925563020004,1183.1925563020004,1184.1813255829993,1184.1813255829993,1187.1905760670006,1187.1905760670006,1187.1905760670006,1187.1905760670006,1187.1650599840004,1,1,1.0656337820000772,None,None,1187.165654630001,1187.165700079001,None,1187.1658098069993,1187.1658655359997,None,1187.1659740050009,1187.1660096229998,None,,,,,,,,,,,,,,,1,001,0,,2024-04-16_10h54.13.489,replicate_nsd,2023.2.3,60.04260947794836,2024-04-16 11h02.02.491633 -0400,
images/image_134_seed_1.png,29,0,0,0,1,"[9, 19, 31, 42, 56, 68, 69, 70, 71]",,,,,0,101,101,101,1187.1905760670006,,,,,,,,,,,,,,,,,,,,,,,,,,,,,,,,,,,,,,,,,,,,,,1187.1663879369999,1187.1665096019997,1187.1665227540007,1187.1905760670006,1187.1905760670006,1188.1813224360003,1188.1813224360003,1191.1814003959998,1191.1814003959998,1191.1814003959998,1191.1814003959998,1191.164352592,1,1,0.7955480170003284,None,None,1191.1648254620004,1191.1648612199997,None,1191.164948001001,1191.164993149,None,1191.165307417,1191.1653381589995,None,,,,,,,,,,,,,,,1,001,0,,2024-04-16_10h54.13.489,replicate_nsd,2023.2.3,60.04260947794836,2024-04-16 11h02.02.491633 -0400,
images/w_pool1.jpg,30,0,0,0,1,"[9, 19, 31, 42, 56, 68, 69, 70, 71]",,,,,0,102,102,102,1191.1814003959998,,,,,,,,,,,,,,,,,,,,,,,,,,,,,,,,,,,,,,,,,,,,,,1191.1656400069996,1191.1657383240008,1191.165748687,1191.1814003959998,1191.1814003959998,1192.181602601001,1192.181602601001,1195.1815661249993,1195.1815661249993,1195.1815661249993,1195.1815661249993,1195.165143661,1,1,0.8823448950006423,None,None,1195.1657275000007,1195.1657713169998,None,1195.1658786079997,1195.1659332440004,None,1195.1660402690004,1195.1660754079994,None,,,,,,,,,,,,,,,1,001,0,,2024-04-16_10h54.13.489,replicate_nsd,2023.2.3,60.04260947794836,2024-04-16 11h02.02.491633 -0400,
blank.jpg,31,1,0,0,1,"[9, 19, 31, 42, 56, 68, 69, 70, 71]",,,,,0,103,103,103,1195.1815661249993,,,,,,,,,,,,,,,,,,,,,,,,,,,,,,,,,,,,,,,,,,,,,,1195.1664484860003,1195.1665688399999,1195.166581939001,,,,,,,,,1195.1697157379995,None,0,,,None,1195.1701012330004,1199.1652095599993,None,1199.165420485001,1199.1654788959995,None,1199.1656039910004,1199.1656418129996,None,,,1195.1815661249993,1195.1815661249993,1199.1936269780008,1199.1936269780008,,,,,,,,,1,001,0,,2024-04-16_10h54.13.489,replicate_nsd,2023.2.3,60.04260947794836,2024-04-16 11h02.02.491633 -0400,
images/image_591_seed_1.png,32,0,0,0,1,"[9, 19, 31, 42, 56, 68, 69, 70, 71]",,,,,0,104,104,104,1199.1936269780008,,,,,,,,,,,,,,,,,,,,,,,,,,,,,,,,,,,,,,,,,,,,,,1199.1660342410005,1199.1661570580009,1199.1661696359997,1199.1936269780008,1199.1936269780008,1200.1816848869994,1200.1816848869994,1203.191924226,1203.191924226,1203.191924226,1203.191924226,1203.1646290180006,1,1,0.9841327049998654,None,None,1203.1650906040004,1203.1651263840004,None,1203.16521045,1203.1652546190007,None,1203.1653394920004,1203.1653674390009,None,,,,,,,,,,,,,,,1,001,0,,2024-04-16_10h54.13.489,replicate_nsd,2023.2.3,60.04260947794836,2024-04-16 11h02.02.491633 -0400,
images/image_523_seed_1.png,33,0,0,0,1,"[9, 19, 31, 42, 56, 68, 69, 70, 71]",,,,,0,105,105,105,1203.191924226,,,,,,,,,,,,,,,,,,,,,,,,,,,,,,,,,,,,,,,,,,,,,,1203.1656610870004,1203.1657575620002,1203.165767675001,1203.191924226,1203.191924226,1204.1817868330008,1204.1817868330008,1207.1891648749997,1207.1891648749997,1207.1891648749997,1207.1891648749997,1207.1655561069992,1,1,0.6901964889984811,None,None,1207.1661489280004,1207.1661947359999,None,1207.1663034349995,1207.166360393,None,1207.166469834,1207.1665065860007,None,,,,,,,,,,,,,,,1,001,0,,2024-04-16_10h54.13.489,replicate_nsd,2023.2.3,60.04260947794836,2024-04-16 11h02.02.491633 -0400,
images/image_184_seed_1.png,34,0,0,0,1,"[9, 19, 31, 42, 56, 68, 69, 70, 71]",,,,,0,106,106,106,1207.1891648749997,,,,,,,,,,,,,,,,,,,,,,,,,,,,,,,,,,,,,,,,,,,,,,1207.1668835970004,1207.1670058400005,1207.1670186389993,1207.1891648749997,1207.1891648749997,1208.1818804059994,1208.1818804059994,1211.191592301001,1211.191592301001,1211.191592301001,1211.191592301001,1211.1655027030001,1,1,0.8571053340001527,None,None,1211.1660883329996,1211.1661336660009,None,1211.1662407550002,1211.1662967519997,None,1211.1664041600006,1211.166440856,None,,,,,,,,,,,,,,,1,001,0,,2024-04-16_10h54.13.489,replicate_nsd,2023.2.3,60.04260947794836,2024-04-16 11h02.02.491633 -0400,
images/image_54_seed_1.png,35,0,0,0,1,"[9, 19, 31, 42, 56, 68, 69, 70, 71]",,,,,0,107,107,107,1211.191592301001,,,,,,,,,,,,,,,,,,,,,,,,,,,,,,,,,,,,,,,,,,,,,,1211.1668147600003,1211.166935792001,1211.1669485829998,1211.191592301001,1211.191592301001,1212.1987874769993,1212.1987874769993,1215.2043302400007,1215.2043302400007,1215.2043302400007,1215.2043302400007,1215.1823197889998,1,1,0.7340439629988396,None,None,1215.1829101419999,1215.1829545970004,None,1215.1830620619994,1215.183117087,None,1215.1832242289993,1215.183260439001,None,,,,,,,,,,,,,,,1,001,0,,2024-04-16_10h54.13.489,replicate_nsd,2023.2.3,60.04260947794836,2024-04-16 11h02.02.491633 -0400,
images/image_585_seed_1.png,36,0,1,0,1,"[9, 19, 31, 42, 56, 68, 69, 70, 71]",,,,,0,108,108,108,1215.2043302400007,,,,,,,,,,,,,,,,,,,,,,,,,,,,,,,,,,,,,,,,,,,,,,1215.183629399001,1215.183750108,1215.1837630639993,1215.2043302400007,1215.2043302400007,1216.1986708199993,1216.1986708199993,1219.2009205269997,1219.2009205269997,1219.2009205269997,1219.2009205269997,1219.1825355350002,2,1,1.0943028040001082,None,None,1219.1831470570005,1219.183195826,None,1219.1833057880003,1219.1833621199994,None,1219.1834712980008,1219.1835071609994,None,,,,,,,,,,,,,,,1,001,0,,2024-04-16_10h54.13.489,replicate_nsd,2023.2.3,60.04260947794836,2024-04-16 11h02.02.491633 -0400,
images/19_56.png,37,0,0,0,1,"[9, 19, 31, 42, 56, 68, 69, 70, 71]",,,,,0,109,109,109,1219.2009205269997,,,,,,,,,,,,,,,,,,,,,,,,,,,,,,,,,,,,,,,,,,,,,,1219.1838849179994,1219.184010864,1219.1840237940005,1219.2009205269997,1219.2009205269997,1220.1988105730006,1220.1988105730006,1223.2118526429995,1223.2118526429995,1223.2118526429995,1223.2118526429995,1223.182645418,1,1,0.9141358149990992,None,None,1223.1832358269994,1223.1832808160007,None,1223.1833892490004,1223.183445537,None,1223.1835543360003,1223.183590775,None,,,,,,,,,,,,,,,1,001,0,,2024-04-16_10h54.13.489,replicate_nsd,2023.2.3,60.04260947794836,2024-04-16 11h02.02.491633 -0400,
images/image_22_seed_1.png,38,0,0,0,1,"[9, 19, 31, 42, 56, 68, 69, 70, 71]",,,,,0,110,110,110,1223.2118526429995,,,,,,,,,,,,,,,,,,,,,,,,,,,,,,,,,,,,,,,,,,,,,,1223.1842452570008,1223.1843676399994,1223.1843804610007,1223.2118526429995,1223.2118526429995,1224.198959888,1224.198959888,1227.205319353,1227.205319353,1227.205319353,1227.205319353,1227.182719540001,1,1,0.7260348239997256,None,None,1227.1833058399998,1227.18335088,None,1227.1834578240005,1227.1835141229994,None,1227.1836211649997,1227.1836569899997,None,,,,,,,,,,,,,,,1,001,0,,2024-04-16_10h54.13.489,replicate_nsd,2023.2.3,60.04260947794836,2024-04-16 11h02.02.491633 -0400,
images/image_242_seed_1.png,39,0,1,0,1,"[9, 19, 31, 42, 56, 68, 69, 70, 71]",,,,,0,111,111,111,1227.205319353,,,,,,,,,,,,,,,,,,,,,,,,,,,,,,,,,,,,,,,,,,,,,,1227.1840295640004,1227.1841505519997,1227.184163107001,1227.205319353,1227.205319353,1228.1989992829995,1228.1989992829995,1231.2091261960004,1231.2091261960004,1231.2091261960004,1231.2091261960004,1231.182609542001,1,0,0.7939800109998032,None,None,1231.1831938120004,1231.1832393070008,None,1231.1833483439996,1231.1834046630001,None,1231.1835122839993,1231.183547818001,None,,,,,,,,,,,,,,,1,001,0,,2024-04-16_10h54.13.489,replicate_nsd,2023.2.3,60.04260947794836,2024-04-16 11h02.02.491633 -0400,
images/image_231_seed_1.png,40,0,0,0,1,"[9, 19, 31, 42, 56, 68, 69, 70, 71]",,,,,0,112,112,112,1231.2091261960004,,,,,,,,,,,,,,,,,,,,,,,,,,,,,,,,,,,,,,,,,,,,,,1231.183921244,1231.1840420979997,1231.1840549199997,1231.2091261960004,1231.2091261960004,1232.1988519960005,1232.1988519960005,1235.2111863229993,1235.2111863229993,1235.2111863229993,1235.2111863229993,1235.1828789780002,1,1,0.8689547920002951,None,None,1235.1834641899995,1235.1835087419995,None,1235.183616624,1235.1836723299994,None,1235.1837808169994,1235.1838168759996,None,,,,,,,,,,,,,,,1,001,0,,2024-04-16_10h54.13.489,replicate_nsd,2023.2.3,60.04260947794836,2024-04-16 11h02.02.491633 -0400,
images/image_697_seed_1.png,41,0,0,0,1,"[9, 19, 31, 42, 56, 68, 69, 70, 71]",,,,,0,113,113,113,1235.2111863229993,,,,,,,,,,,,,,,,,,,,,,,,,,,,,,,,,,,,,,,,,,,,,,1235.1841899180008,1235.1843110159998,1235.1843238730007,1235.2111863229993,1235.2111863229993,1236.199225024001,1236.199225024001,1239.199451304,1239.199451304,1239.199451304,1239.199451304,1239.1831455710008,1,1,0.820743960000982,None,None,1239.1839119139995,1239.1839563530002,None,1239.184063353,1239.1841187569999,None,1239.1842272900003,1239.1842633309998,None,,,,,,,,,,,,,,,1,001,0,,2024-04-16_10h54.13.489,replicate_nsd,2023.2.3,60.04260947794836,2024-04-16 11h02.02.491633 -0400,
blank.jpg,42,1,0,0,1,"[9, 19, 31, 42, 56, 68, 69, 70, 71]",,,,,0,114,114,114,1239.199451304,,,,,,,,,,,,,,,,,,,,,,,,,,,,,,,,,,,,,,,,,,,,,,1239.1846320220002,1239.184754107001,1239.1847667760003,,,,,,,,,1239.1886766569996,None,0,,,None,1239.1890626930008,1243.1829522220005,None,1243.1831623690005,1243.183221876,None,1243.183348947,1243.1833863990005,None,,,1239.199451304,1239.199451304,1243.211519327001,1243.211519327001,,,,,,,,,1,001,0,,2024-04-16_10h54.13.489,replicate_nsd,2023.2.3,60.04260947794836,2024-04-16 11h02.02.491633 -0400,
images/image_31_seed_1.png,43,0,0,0,1,"[9, 19, 31, 42, 56, 68, 69, 70, 71]",,,,,0,115,115,115,1243.211519327001,,,,,,,,,,,,,,,,,,,,,,,,,,,,,,,,,,,,,,,,,,,,,,1243.1837831919993,1243.1839059290005,1243.1839185929994,1243.211519327001,1243.211519327001,1244.1994695210005,1244.1994695210005,1247.209828039001,1247.209828039001,1247.209828039001,1247.209828039001,1247.1832040569998,1,1,0.8463587249989359,None,None,1247.1837889379995,1247.1838355709997,None,1247.1839443800009,1247.184000313001,None,1247.1841091470005,1247.1841447079996,None,,,,,,,,,,,,,,,1,001,0,,2024-04-16_10h54.13.489,replicate_nsd,2023.2.3,60.04260947794836,2024-04-16 11h02.02.491633 -0400,
images/image_558_seed_1.png,44,0,0,0,1,"[9, 19, 31, 42, 56, 68, 69, 70, 71]",,,,,0,116,116,116,1247.209828039001,,,,,,,,,,,,,,,,,,,,,,,,,,,,,,,,,,,,,,,,,,,,,,1247.184517390001,1247.184640591001,1247.1846534850001,1247.209828039001,1247.209828039001,1248.1994810740007,1248.1994810740007,1251.2046732770004,1251.2046732770004,1251.2046732770004,1251.2046732770004,1251.183203724001,1,1,1.8494877499997529,None,None,1251.1837953490003,1251.1838420070007,None,1251.183950914,1251.1840071319994,None,1251.184115465,1251.1841519199997,None,,,,,,,,,,,,,,,1,001,0,,2024-04-16_10h54.13.489,replicate_nsd,2023.2.3,60.04260947794836,2024-04-16 11h02.02.491633 -0400,
images/image_54_seed_1.png,45,0,1,0,1,"[9, 19, 31, 42, 56, 68, 69, 70, 71]",,,,,0,117,117,117,1251.2046732770004,,,,,,,,,,,,,,,,,,,,,,,,,,,,,,,,,,,,,,,,,,,,,,1251.184530384001,1251.1846538979999,1251.184666577,1251.2046732770004,1251.2046732770004,1252.1997097079993,1252.1997097079993,1255.2052303930004,1255.2052303930004,1255.2052303930004,1255.2052303930004,1255.1833482289994,2,1,1.0422828039991145,None,None,1255.1839359970008,1255.1839804460005,None,1255.184087480001,1255.1841430979994,None,1255.1842502810005,1255.1842870379996,None,,,,,,,,,,,,,,,1,001,0,,2024-04-16_10h54.13.489,replicate_nsd,2023.2.3,60.04260947794836,2024-04-16 11h02.02.491633 -0400,
images/image_474_seed_1.png,46,0,1,0,1,"[9, 19, 31, 42, 56, 68, 69, 70, 71]",,,,,0,118,118,118,1255.2052303930004,,,,,,,,,,,,,,,,,,,,,,,,,,,,,,,,,,,,,,,,,,,,,,1255.1846582429998,1255.1847797780001,1255.184792227,1255.2052303930004,1255.2052303930004,1256.199217755001,1256.199217755001,1259.2125161539998,1259.2125161539998,1259.2125161539998,1259.2125161539998,1259.1834445560007,2,1,1.0207698960002745,None,None,1259.184034367,1259.1840789829994,None,1259.1841878959995,1259.184243441,None,1259.1843518300002,1259.1843875700006,None,,,,,,,,,,,,,,,1,001,0,,2024-04-16_10h54.13.489,replicate_nsd,2023.2.3,60.04260947794836,2024-04-16 11h02.02.491633 -0400,
images/image_726_seed_1.png,47,0,0,0,1,"[9, 19, 31, 42, 56, 68, 69, 70, 71]",,,,,0,119,119,119,1259.2125161539998,,,,,,,,,,,,,,,,,,,,,,,,,,,,,,,,,,,,,,,,,,,,,,1259.1847583820008,1259.1848809129997,1259.1848936510005,1259.2125161539998,1259.2125161539998,1260.1997354669993,1260.1997354669993,1263.2106066330007,1263.2106066330007,1263.2106066330007,1263.2106066330007,1263.183538548,1,1,0.62724381299995,None,None,1263.184122556001,1263.184168535,None,1263.1842762770002,1263.1843318109995,None,1263.1844406080008,1263.1844766160002,None,,,,,,,,,,,,,,,1,001,0,,2024-04-16_10h54.13.489,replicate_nsd,2023.2.3,60.04260947794836,2024-04-16 11h02.02.491633 -0400,
images/image_195_seed_1.png,48,0,0,0,1,"[9, 19, 31, 42, 56, 68, 69, 70, 71]",,,,,0,120,120,120,1263.2106066330007,,,,,,,,,,,,,,,,,,,,,,,,,,,,,,,,,,,,,,,,,,,,,,1263.1848525649993,1263.1849759959996,1263.1849890919993,1263.2106066330007,1263.2106066330007,1264.19996196,1264.19996196,1267.2104403780004,1267.2104403780004,1267.2104403780004,1267.2104403780004,1267.1836620589993,1,1,0.8668694129992218,None,None,1267.1842567110007,1267.1843016280009,None,1267.1844106809995,1267.184466607,None,1267.184574979,1267.1846105920004,None,,,,,,,,,,,,,,,1,001,0,,2024-04-16_10h54.13.489,replicate_nsd,2023.2.3,60.04260947794836,2024-04-16 11h02.02.491633 -0400,
images/image_24_seed_1.png,49,0,0,0,1,"[9, 19, 31, 42, 56, 68, 69, 70, 71]",,,,,0,121,121,121,1267.2104403780004,,,,,,,,,,,,,,,,,,,,,,,,,,,,,,,,,,,,,,,,,,,,,,1267.1849875630005,1267.1851264200004,1267.1851399230009,1267.2104403780004,1267.2104403780004,1268.1999748919998,1268.1999748919998,1271.2113907489993,1271.2113907489993,1271.2113907489993,1271.2113907489993,1271.1836744639995,1,1,0.9788957220007433,None,None,1271.1844512159996,1271.1844949060005,None,1271.1846012699998,1271.18465629,None,1271.184762195001,1271.1847974420007,None,,,,,,,,,,,,,,,1,001,0,,2024-04-16_10h54.13.489,replicate_nsd,2023.2.3,60.04260947794836,2024-04-16 11h02.02.491633 -0400,
images/image_581_seed_1.png,50,0,0,0,1,"[9, 19, 31, 42, 56, 68, 69, 70, 71]",,,,,0,122,122,122,1271.2113907489993,,,,,,,,,,,,,,,,,,,,,,,,,,,,,,,,,,,,,,,,,,,,,,1271.1851644259996,1271.1852868600008,1271.1852991210008,1271.2113907489993,1271.2113907489993,1272.2000028039993,1272.2000028039993,1275.2104114790009,1275.2104114790009,1275.2104114790009,1275.2104114790009,1275.1839086619993,1,1,0.7529771940007777,None,None,1275.1846758790007,1275.1847209720008,None,1275.1848290970001,1275.184885048001,None,1275.1849931269999,1275.1850296010007,None,,,,,,,,,,,,,,,1,001,0,,2024-04-16_10h54.13.489,replicate_nsd,2023.2.3,60.04260947794836,2024-04-16 11h02.02.491633 -0400,
images/image_403_seed_1.png,51,0,0,0,1,"[9, 19, 31, 42, 56, 68, 69, 70, 71]",,,,,0,123,123,123,1275.2104114790009,,,,,,,,,,,,,,,,,,,,,,,,,,,,,,,,,,,,,,,,,,,,,,1275.1854028259995,1275.1855235640005,1275.1855362710003,1275.2104114790009,1275.2104114790009,1276.2000378919993,1276.2000378919993,1279.209296901,1279.209296901,1279.209296901,1279.209296901,1279.183958613,1,1,0.8687961129999167,None,None,1279.1845628540004,1279.1846079159995,None,1279.1847197640009,1279.1847761029994,None,1279.184885085001,1279.1849210440005,None,,,,,,,,,,,,,,,1,001,0,,2024-04-16_10h54.13.489,replicate_nsd,2023.2.3,60.04260947794836,2024-04-16 11h02.02.491633 -0400,
images/image_72_seed_1.png,52,0,0,0,1,"[9, 19, 31, 42, 56, 68, 69, 70, 71]",,,,,0,124,124,124,1279.209296901,,,,,,,,,,,,,,,,,,,,,,,,,,,,,,,,,,,,,,,,,,,,,,1279.1853201450003,1279.185443665,1279.1854567769997,1279.209296901,1279.209296901,1280.2003103039997,1280.2003103039997,1283.2097383249993,1283.2097383249993,1283.2097383249993,1283.2097383249993,1283.1841622759994,1,1,0.6536774480009626,None,None,1283.1849237750002,1283.1849684479994,None,1283.185075202001,1283.1851314719997,None,1283.1852406829994,1283.1852769900006,None,,,,,,,,,,,,,,,1,001,0,,2024-04-16_10h54.13.489,replicate_nsd,2023.2.3,60.04260947794836,2024-04-16 11h02.02.491633 -0400,
images/image_638_seed_1.png,53,0,0,0,1,"[9, 19, 31, 42, 56, 68, 69, 70, 71]",,,,,0,125,125,125,1283.2097383249993,,,,,,,,,,,,,,,,,,,,,,,,,,,,,,,,,,,,,,,,,,,,,,1283.185650413,1283.1857731549999,1283.1857859719994,1283.2097383249993,1283.2097383249993,1284.200309152001,1284.200309152001,1287.2090640569995,1287.2090640569995,1287.2090640569995,1287.2090640569995,1287.1843850880005,1,1,1.1986429640001006,None,None,1287.185151179,1287.1851955129996,None,1287.185302322,1287.185357757001,None,1287.1854651620006,1287.185501209001,None,,,,,,,,,,,,,,,1,001,0,,2024-04-16_10h54.13.489,replicate_nsd,2023.2.3,60.04260947794836,2024-04-16 11h02.02.491633 -0400,
images/image_205_seed_1.png,54,0,0,0,1,"[9, 19, 31, 42, 56, 68, 69, 70, 71]",,,,,0,126,126,126,1287.2090640569995,,,,,,,,,,,,,,,,,,,,,,,,,,,,,,,,,,,,,,,,,,,,,,1287.1861529009993,1287.1862751870003,1287.186288277001,1287.2090640569995,1287.2090640569995,1288.200530305,1288.200530305,1291.2123614300008,1291.2123614300008,1291.2123614300008,1291.2123614300008,1291.184156507,1,1,0.8303313950000302,None,None,1291.1847470910006,1291.184795772001,None,1291.1849035709993,1291.1849591929995,None,1291.1850667690005,1291.185103195,None,,,,,,,,,,,,,,,1,001,0,,2024-04-16_10h54.13.489,replicate_nsd,2023.2.3,60.04260947794836,2024-04-16 11h02.02.491633 -0400,
images/image_197_seed_1.png,55,0,0,0,1,"[9, 19, 31, 42, 56, 68, 69, 70, 71]",,,,,0,127,127,127,1291.2123614300008,,,,,,,,,,,,,,,,,,,,,,,,,,,,,,,,,,,,,,,,,,,,,,1291.1854784260004,1291.1856009680005,1291.1856137570003,1291.2123614300008,1291.2123614300008,1292.200715897,1292.200715897,1295.200747623,1295.200747623,1295.200747623,1295.200747623,1295.1844933540006,1,1,0.8922781019991817,None,None,1295.1852598159994,1295.1853048759995,None,1295.1854141539998,1295.1854695270004,None,1295.1855786959995,1295.185615501,None,,,,,,,,,,,,,,,1,001,0,,2024-04-16_10h54.13.489,replicate_nsd,2023.2.3,60.04260947794836,2024-04-16 11h02.02.491633 -0400,
blank.jpg,56,1,0,0,1,"[9, 19, 31, 42, 56, 68, 69, 70, 71]",,,,,0,128,128,128,1295.200747623,,,,,,,,,,,,,,,,,,,,,,,,,,,,,,,,,,,,,,,,,,,,,,1295.185992187001,1295.1861129210001,1295.1861256189995,,,,,,,,,1295.1901612770007,None,0,,,None,1295.1905512830008,1299.1844345500003,None,1299.1846468739996,1299.1847064109998,None,1299.184835901001,1299.1848733489996,None,,,1295.200747623,1295.200747623,1299.2113035659995,1299.2113035659995,,,,,,,,,1,001,0,,2024-04-16_10h54.13.489,replicate_nsd,2023.2.3,60.04260947794836,2024-04-16 11h02.02.491633 -0400,
images/image_423_seed_1.png,57,0,0,0,1,"[9, 19, 31, 42, 56, 68, 69, 70, 71]",,,,,0,129,129,129,1299.2113035659995,,,,,,,,,,,,,,,,,,,,,,,,,,,,,,,,,,,,,,,,,,,,,,1299.1852938349994,1299.1854170769993,1299.1854296730007,1299.2113035659995,1299.2113035659995,1300.2007500419995,1300.2007500419995,1303.2117885420002,1303.2117885420002,1303.2117885420002,1303.2117885420002,1303.184613591001,1,1,1.1492081450014666,None,None,1303.1852064599998,1303.1852532019993,None,1303.1853622070003,1303.185419464001,None,1303.1855266369994,1303.185562691001,None,,,,,,,,,,,,,,,1,001,0,,2024-04-16_10h54.13.489,replicate_nsd,2023.2.3,60.04260947794836,2024-04-16 11h02.02.491633 -0400,
images/image_491_seed_1.png,58,0,0,0,1,"[9, 19, 31, 42, 56, 68, 69, 70, 71]",,,,,0,130,130,130,1303.2117885420002,,,,,,,,,,,,,,,,,,,,,,,,,,,,,,,,,,,,,,,,,,,,,,1303.1859372000008,1303.1860606479995,1303.1860736259996,1303.2117885420002,1303.2117885420002,1304.200884768,1304.200884768,1307.2119034079997,1307.2119034079997,1307.2119034079997,1307.2119034079997,1307.1846581599993,1,1,0.7129245129999617,None,None,1307.1852460740001,1307.1852953370008,None,1307.185404705001,1307.1854602970006,None,1307.1855682230007,1307.1856039530003,None,,,,,,,,,,,,,,,1,001,0,,2024-04-16_10h54.13.489,replicate_nsd,2023.2.3,60.04260947794836,2024-04-16 11h02.02.491633 -0400,
images/image_707_seed_1.png,59,0,0,0,1,"[9, 19, 31, 42, 56, 68, 69, 70, 71]",,,,,0,131,131,131,1307.2119034079997,,,,,,,,,,,,,,,,,,,,,,,,,,,,,,,,,,,,,,,,,,,,,,1307.185978179,1307.186100471,1307.186113439001,1307.2119034079997,1307.2119034079997,1308.2009436910002,1308.2009436910002,1311.2119337430004,1311.2119337430004,1311.2119337430004,1311.2119337430004,1311.184763747001,1,1,0.7628732180000952,None,None,1311.1853602090005,1311.1854055520007,None,1311.1855148240002,1311.1855717589997,None,1311.1856811179996,1311.1857177339998,None,,,,,,,,,,,,,,,1,001,0,,2024-04-16_10h54.13.489,replicate_nsd,2023.2.3,60.04260947794836,2024-04-16 11h02.02.491633 -0400,
images/image_455_seed_1.png,60,0,0,0,1,"[9, 19, 31, 42, 56, 68, 69, 70, 71]",,,,,0,132,132,132,1311.2119337430004,,,,,,,,,,,,,,,,,,,,,,,,,,,,,,,,,,,,,,,,,,,,,,1311.186091351,1311.1862148419996,1311.1862276780003,1311.2119337430004,1311.2119337430004,1312.2011840149999,1312.2011840149999,1315.2120937610007,1315.2120937610007,1315.2120937610007,1315.2120937610007,1315.1847294810004,1,1,0.9878050110000913,None,None,1315.1853515249995,1315.1853980450005,None,1315.185508810001,1315.1855654399997,None,1315.185674198,1315.1857102639997,None,,,,,,,,,,,,,,,1,001,0,,2024-04-16_10h54.13.489,replicate_nsd,2023.2.3,60.04260947794836,2024-04-16 11h02.02.491633 -0400,
images/image_668_seed_1.png,61,0,0,0,1,"[9, 19, 31, 42, 56, 68, 69, 70, 71]",,,,,0,133,133,133,1315.2120937610007,,,,,,,,,,,,,,,,,,,,,,,,,,,,,,,,,,,,,,,,,,,,,,1315.1860871489998,1315.1862109069998,1315.1862235830004,1315.2120937610007,1315.2120937610007,1316.2010733630004,1316.2010733630004,1319.2105842970004,1319.2105842970004,1319.2105842970004,1319.2105842970004,1319.1849404169998,1,1,1.1579289189994597,None,None,1319.1855287059998,1319.1855738450004,None,1319.1856814890007,1319.1857379509993,None,1319.1858450619993,1319.1858807010003,None,,,,,,,,,,,,,,,1,001,0,,2024-04-16_10h54.13.489,replicate_nsd,2023.2.3,60.04260947794836,2024-04-16 11h02.02.491633 -0400,
