current_image,trial_index,is_blank_trial,thisN,thisTrialN,thisRepN,press_if_repeat_2.keys,press_if_repeat_2.corr,press_if_repeat_2.rt,press_if_repeat_2.duration,all_keys_pressed_2.keys,is_repeat,is_new_run,run_num,sess_num,is_not_last_trial,all_blanks_list,press_if_repeat.keys,press_if_repeat.corr,press_if_repeat.rt,press_if_repeat.duration,all_keys_pressed.keys,key_resp_5.keys,key_resp_4.keys,key_resp_5.rt,key_resp_5.duration,key_resp_4.rt,key_resp_4.duration,all_keys_pressed.rt,all_keys_pressed.duration,practice.thisRepN,practice.thisTrialN,practice.thisN,practice.thisIndex,loop_runs.thisRepN,loop_runs.thisTrialN,loop_runs.thisN,loop_runs.thisIndex,loop_all_images.thisRepN,loop_all_images.thisTrialN,loop_all_images.thisN,loop_all_images.thisIndex,thisRow.t,notes,set_up.started,set_up.stopped,practice_continue.started,key_resp_6.started,text_6.started,practice_continue.stopped,key_resp_6.keys,key_resp_6.rt,key_resp_6.duration,practice_trial.started,image_2.started,press_if_repeat_2.started,polygon_3.started,all_keys_pressed_2.started,image_2.stopped,press_if_repeat_2.stopped,practice_trial.stopped,practice.press_if_repeat_2.keys,practice.press_if_repeat_2.corr,practice.press_if_repeat_2.rt,practice.press_if_repeat_2.duration,practice.all_keys_pressed_2.keys,testing_continue.started,key_resp_7.started,text_7.started,testing_continue.stopped,key_resp_7.keys,key_resp_7.rt,key_resp_7.duration,waiting_fmri.started,key_resp_2.started,text_3.started,waiting_fmri.stopped,key_resp_2.keys,key_resp_2.rt,key_resp_2.duration,set_skips_and_correct_key.started,set_skips_and_correct_key.stopped,trial.started,image.started,press_if_repeat.started,polygon.started,all_keys_pressed.started,image.stopped,press_if_repeat.stopped,trial.stopped,loop_all_images.press_if_repeat.keys,loop_all_images.press_if_repeat.corr,loop_all_images.press_if_repeat.rt,loop_all_images.press_if_repeat.duration,loop_all_images.all_keys_pressed.keys,run_wait2_2.started,run_wait2_2.stopped,loop_all_images.key_resp_5.keys,waiting_fmri_2.started,waiting_fmri_2.stopped,loop_all_images.key_resp_4.keys,polygon.stopped,all_keys_pressed.stopped,key_resp_5.started,text_5.started,loop_all_images.key_resp_5.rt,loop_all_images.key_resp_5.duration,key_resp_4.started,text_4.started,loop_all_images.key_resp_4.rt,loop_all_images.key_resp_4.duration,loop_all_images.all_keys_pressed.rt,loop_all_images.all_keys_pressed.duration,participant,session (1 2 or 3),starting_run,skip_practice,date,expName,psychopyVersion,frameRate,expStart
,,,,,,,,,,,,,,,,,,,,,,,,,,,,,,,,,,,,,,,,,,,,0.0017565,0.0018184,,,,,,,,,,,,,,,,,,,,,,,,,,,,,,,,,,,,,,,,,,,,,,,,,,,,,,,,,,,,,,,,,,,,5,1,0,0,2025-02-20_11h03.32.934,rtmindeye,2024.2.4,60.08203601412857,2025-02-20 11h17.34.938960 -0500
,,,,,,,,,,,,,,,,,,,,,,,,,,,,,,,,,,,,,,,,,,,,,,0.006425,0.017977399984374642,0.017977399984374642,4.743321699992521,1,4.711308999976609,None,,,,,,,,,,,,,,,,,,,,,,,,,,,,,,,,,,,,,,,,,,,,,,,,,,,,,,,,,,,,,5,1,0,0,2025-02-20_11h03.32.934,rtmindeye,2024.2.4,60.08203601412857,2025-02-20 11h17.34.938960 -0500
practice_images/w_kitchen2.jpg,0,0,0,0,0,1,0,1.2086665999959223,0.1090336000197567,None,,,,,,,,,,,,,,,,,,,,0,0,0,0,,,,,,,,,4.778525700006867,,,,,,,,,,,4.775873400009004,4.778525700006867,4.778525700006867,4.778525700006867,4.778525700006867,7.785072800004855,7.785072800004855,8.751875799993286,1,0,1.2086665999959223,0.1090336000197567,None,,,,,,,,,,,,,,,,,,,,,,,,,,,,,,,,,,,,,,,,,,,,,,,,5,1,0,0,2025-02-20_11h03.32.934,rtmindeye,2024.2.4,60.08203601412857,2025-02-20 11h17.34.938960 -0500
practice_images/w_boardwalk2.jpg,1,0,1,1,0,1,0,0.7548846,0.1660009000042919,None,,,,,,,,,,,,,,,,,,,,0,1,1,1,,,,,,,,,8.786397299991222,,,,,,,,,,,8.784806200012099,8.786397299991222,8.786397299991222,8.786397299991222,8.786397299991222,11.801363400008995,11.801363400008995,12.751553200010676,1,0,0.7548846,0.1660009000042919,None,,,,,,,,,,,,,,,,,,,,,,,,,,,,,,,,,,,,,,,,,,,,,,,,5,1,0,0,2025-02-20_11h03.32.934,rtmindeye,2024.2.4,60.08203601412857,2025-02-20 11h17.34.938960 -0500
practice_images/w_monument2.jpg,2,0,2,2,0,1,0,0.5453339999949094,0.12700609999592416,None,,,,,,,,,,,,,,,,,,,,0,2,2,2,,,,,,,,,12.76889300000039,,,,,,,,,,,12.767337700002827,12.76889300000039,12.76889300000039,12.76889300000039,12.76889300000039,15.768195999989985,15.768195999989985,16.751557899988256,1,0,0.5453339999949094,0.12700609999592416,None,,,,,,,,,,,,,,,,,,,,,,,,,,,,,,,,,,,,,,,,,,,,,,,,5,1,0,0,2025-02-20_11h03.32.934,rtmindeye,2024.2.4,60.08203601412857,2025-02-20 11h17.34.938960 -0500
practice_images/w_auditorium2.jpg,3,0,3,3,0,1,0,0.5642756999877747,0.13981849999981932,None,,,,,,,,,,,,,,,,,,,,0,3,3,3,,,,,,,,,16.780060599994613,,,,,,,,,,,16.77852210000856,16.780060599994613,16.780060599994613,16.780060599994613,16.780060599994613,19.784944599989103,19.784944599989103,20.75160909999977,1,0,0.5642756999877747,0.13981849999981932,None,,,,,,,,,,,,,,,,,,,,,,,,,,,,,,,,,,,,,,,,,,,,,,,,5,1,0,0,2025-02-20_11h03.32.934,rtmindeye,2024.2.4,60.08203601412857,2025-02-20 11h17.34.938960 -0500
practice_images/w_kitchen2.jpg,4,0,4,4,0,1,0,1.2164956000051461,0.13794429998961277,None,,,,,,,,,,,,,,,,,,,,0,4,4,4,,,,,,,,,20.767713500012178,,,,,,,,,,,20.76302690000739,20.767713500012178,20.767713500012178,20.767713500012178,20.767713500012178,23.76812510000309,23.76812510000309,24.751571000000695,1,0,1.2164956000051461,0.13794429998961277,None,,,,,,,,,,,,,,,,,,,,,,,,,,,,,,,,,,,,,,,,,,,,,,,,5,1,0,0,2025-02-20_11h03.32.934,rtmindeye,2024.2.4,60.08203601412857,2025-02-20 11h17.34.938960 -0500
practice_images/w_auditorium1.jpg,5,0,5,5,0,1,0,1.110991199995624,0.11813319998327643,None,,,,,,,,,,,,,,,,,,,,0,5,5,5,,,,,,,,,24.78521569998702,,,,,,,,,,,24.7835938,24.78521569998702,24.78521569998702,24.78521569998702,24.78521569998702,27.784759100002702,27.784759100002702,28.751470799994422,1,0,1.110991199995624,0.11813319998327643,None,,,,,,,,,,,,,,,,,,,,,,,,,,,,,,,,,,,,,,,,,,,,,,,,5,1,0,0,2025-02-20_11h03.32.934,rtmindeye,2024.2.4,60.08203601412857,2025-02-20 11h17.34.938960 -0500
practice_images/w_bedroom2.jpg,6,0,6,6,0,1,0,0.5310759000130929,0.10595870000543073,None,,,,,,,,,,,,,,,,,,,,0,6,6,6,,,,,,,,,28.768158199993195,,,,,,,,,,,28.766559999989113,28.768158199993195,28.768158199993195,28.768158199993195,28.768158199993195,31.76795989999664,31.76795989999664,32.751605900004506,1,0,0.5310759000130929,0.10595870000543073,None,,,,,,,,,,,,,,,,,,,,,,,,,,,,,,,,,,,,,,,,,,,,,,,,5,1,0,0,2025-02-20_11h03.32.934,rtmindeye,2024.2.4,60.08203601412857,2025-02-20 11h17.34.938960 -0500
practice_images/w_kitchen1.jpg,7,0,7,7,0,2,0,1.8342495000106283,0.14487230000668205,None,,,,,,,,,,,,,,,,,,,,0,7,7,7,,,,,,,,,32.77917309998884,,,,,,,,,,,32.777425799984485,32.77917309998884,32.77917309998884,32.77917309998884,32.77917309998884,35.784953599999426,35.784953599999426,36.75169070000993,2,0,1.8342495000106283,0.14487230000668205,None,,,,,,,,,,,,,,,,,,,,,,,,,,,,,,,,,,,,,,,,,,,,,,,,5,1,0,0,2025-02-20_11h03.32.934,rtmindeye,2024.2.4,60.08203601412857,2025-02-20 11h17.34.938960 -0500
practice_images/w_bedroom1.jpg,8,0,8,8,0,1,0,1.2667018999927677,0.1472325000213459,None,,,,,,,,,,,,,,,,,,,,0,8,8,8,,,,,,,,,36.78536819998408,,,,,,,,,,,36.78378840000369,36.78536819998408,36.78536819998408,36.78536819998408,36.78536819998408,39.78493069999968,39.78493069999968,40.751565299986396,1,0,1.2667018999927677,0.1472325000213459,None,,,,,,,,,,,,,,,,,,,,,,,,,,,,,,,,,,,,,,,,,,,,,,,,5,1,0,0,2025-02-20_11h03.32.934,rtmindeye,2024.2.4,60.08203601412857,2025-02-20 11h17.34.938960 -0500
practice_images/w_monument2.jpg,9,0,9,9,0,2,0,0.7964003,0.18398910001269542,None,,,,,,,,,,,,,,,,,,,,0,9,9,9,,,,,,,,,40.76784009998664,,,,,,,,,,,40.762683300010394,40.76784009998664,40.76784009998664,40.76784009998664,40.76784009998664,43.76798800000688,43.76798800000688,44.75161410000874,2,0,0.7964003,0.18398910001269542,None,,,,,,,,,,,,,,,,,,,,,,,,,,,,,,,,,,,,,,,,,,,,,,,,5,1,0,0,2025-02-20_11h03.32.934,rtmindeye,2024.2.4,60.08203601412857,2025-02-20 11h17.34.938960 -0500
,,,,,,,,,,,,,,,,,,,,,,,,,,,,,,,,,,,,,,,,,,,,,,,,,,,,,,,,,,,,,,,,,,44.7581949,44.81276150001213,44.81276150001213,47.301656,1,2.473383400007151,None,,,,,,,,,,,,,,,,,,,,,,,,,,,,,,,,,,,,,,,,,5,1,0,0,2025-02-20_11h03.32.934,rtmindeye,2024.2.4,60.08203601412857,2025-02-20 11h17.34.938960 -0500
,,,,,,,,,,,,,,,,,,,,,,,,,,,,,,,,,,,,,,,,,,,,,,,,,,,,,,,,,,,,,,,,,,,,,,,,,47.301696100010304,47.3178652,47.3178652,190.21784659998957,equal,142.8832046999887,None,,,,,,,,,,,,,,,,,,,,,,,,,,,,,,,,,,5,1,0,0,2025-02-20_11h03.32.934,rtmindeye,2024.2.4,60.08203601412857,2025-02-20 11h17.34.938960 -0500
all_stimuli/special515/special_15939.jpg,0,0,0,0,0,,,,,,0,0,0,1,1,"[9, 21, 31, 45, 56, 68, 69]",1,1,1.2424517000035848,0.1639531000109855,None,None,None,,,,,,,,,,,0,0,0,0,0,0,0,0,190.28067740000552,,,,,,,,,,,,,,,,,,,,,,,,,,,,,,,,,,,,,,190.25057060000836,190.25066950000473,190.27733710000757,190.28067740000552,190.28067740000552,190.28067740000552,190.28067740000552,193.2841269999917,193.2841269999917,194.25090700000874,1,1,1.2424517000035848,0.1639531000109855,None,194.25097659998573,194.2509997,None,194.25102269998752,194.25104120001197,None,,,,,,,,,,,,,5,1,0,0,2025-02-20_11h03.32.934,rtmindeye,2024.2.4,60.08203601412857,2025-02-20 11h17.34.938960 -0500
all_stimuli/special515/special_23241.jpg,1,0,1,1,0,,,,,,0,0,0,1,1,"[9, 21, 31, 45, 56, 68, 69]",1,1,0.6254973000031896,0.15505669999402016,None,None,None,,,,,,,,,,,0,0,0,0,0,1,1,1,194.2925372000027,,,,,,,,,,,,,,,,,,,,,,,,,,,,,,,,,,,,,,194.2511983999866,194.2512424000015,194.2907918000128,194.2925372000027,194.2925372000027,194.2925372000027,194.2925372000027,197.3010857999907,197.3010857999907,198.26780729999882,1,1,0.6254973000031896,0.15505669999402016,None,198.26787939999485,198.26790070001152,None,198.26792449998902,198.2679427000112,None,,,,,,,,,,,,,5,1,0,0,2025-02-20_11h03.32.934,rtmindeye,2024.2.4,60.08203601412857,2025-02-20 11h17.34.938960 -0500
all_stimuli/special515/special_32232.jpg,2,0,2,2,0,,,,,,0,0,0,1,1,"[9, 21, 31, 45, 56, 68, 69]",1,1,0.7092663000221364,0.1140587999834679,None,None,None,,,,,,,,,,,0,0,0,0,0,2,2,2,198.30282189999707,,,,,,,,,,,,,,,,,,,,,,,,,,,,,,,,,,,,,,198.26810349998414,198.26814870000817,198.3011097999988,198.30282189999707,198.30282189999707,198.30282189999707,198.30282189999707,201.3176908000023,201.3176908000023,202.28437189999386,1,1,0.7092663000221364,0.1140587999834679,None,202.28444049999234,202.28446140000597,None,202.28448500001105,202.28450280000106,None,,,,,,,,,,,,,5,1,0,0,2025-02-20_11h03.32.934,rtmindeye,2024.2.4,60.08203601412857,2025-02-20 11h17.34.938960 -0500
all_stimuli/special515/special_34238.jpg,3,0,3,3,0,,,,,,0,0,0,1,1,"[9, 21, 31, 45, 56, 68, 69]",1,1,0.5467889999854378,0.25708700000541285,None,None,None,,,,,,,,,,,0,0,0,0,0,3,3,3,202.31129300000612,,,,,,,,,,,,,,,,,,,,,,,,,,,,,,,,,,,,,,202.28466320000007,202.28470779999043,202.30957240000134,202.31129300000612,202.31129300000612,202.31129300000612,202.31129300000612,205.3177423,205.3177423,206.3011450000049,1,1,0.5467889999854378,0.25708700000541285,None,206.3012154,206.30123750001076,None,206.30126129998825,206.3012793000089,None,,,,,,,,,,,,,5,1,0,0,2025-02-20_11h03.32.934,rtmindeye,2024.2.4,60.08203601412857,2025-02-20 11h17.34.938960 -0500
all_stimuli/MST_pairs/pair_3_5_100.png,4,0,4,4,0,,,,,,0,0,0,1,1,"[9, 21, 31, 45, 56, 68, 69]",1,1,0.5161056999932043,0.13297950002015568,None,None,None,,,,,,,,,,,0,0,0,0,0,4,4,4,206.3320912999916,,,,,,,,,,,,,,,,,,,,,,,,,,,,,,,,,,,,,,206.3014373999904,206.30148120000376,206.33042750001187,206.3320912999916,206.3320912999916,206.3320912999916,206.3320912999916,209.33447410000372,209.33447410000372,210.31761589998496,1,1,0.5161056999932043,0.13297950002015568,None,210.31768659999943,210.31770779998624,None,210.3177316999936,210.3177493000112,None,,,,,,,,,,,,,5,1,0,0,2025-02-20_11h03.32.934,rtmindeye,2024.2.4,60.08203601412857,2025-02-20 11h17.34.938960 -0500
all_stimuli/special515/special_22879.jpg,5,0,5,5,0,,,,,,0,0,0,1,1,"[9, 21, 31, 45, 56, 68, 69]",1,1,0.4362544000032358,0.11779379998915829,None,None,None,,,,,,,,,,,0,0,0,0,0,5,5,5,210.3450148999982,,,,,,,,,,,,,,,,,,,,,,,,,,,,,,,,,,,,,,210.31790950000868,210.31795430000057,210.34325470001204,210.3450148999982,210.3450148999982,210.3450148999982,210.3450148999982,213.35100709999097,213.35100709999097,214.3345757999923,1,1,0.4362544000032358,0.11779379998915829,None,214.3346472000121,214.33466809999663,None,214.33469270000933,214.33471039999858,None,,,,,,,,,,,,,5,1,0,0,2025-02-20_11h03.32.934,rtmindeye,2024.2.4,60.08203601412857,2025-02-20 11h17.34.938960 -0500
all_stimuli/special515/special_19933.jpg,6,0,6,6,0,,,,,,0,0,0,1,1,"[9, 21, 31, 45, 56, 68, 69]",1,1,0.4429860000091139,0.12115940000512637,None,None,None,,,,,,,,,,,0,0,0,0,0,6,6,6,214.36302650001016,,,,,,,,,,,,,,,,,,,,,,,,,,,,,,,,,,,,,,214.33486619999167,214.3349109000119,214.36128529999405,214.36302650001016,214.36302650001016,214.36302650001016,214.36302650001016,217.3677020999894,217.3677020999894,218.35108610001043,1,1,0.4429860000091139,0.12115940000512637,None,218.3511570999981,218.35117790001095,None,218.3512017999892,218.3512192000053,None,,,,,,,,,,,,,5,1,0,0,2025-02-20_11h03.32.934,rtmindeye,2024.2.4,60.08203601412857,2025-02-20 11h17.34.938960 -0500
all_stimuli/MST_pairs/pair_3_5_100.png,7,0,7,7,0,,,,,,1,0,0,1,1,"[9, 21, 31, 45, 56, 68, 69]",2,1,0.6825166000053287,0.25827960000606254,None,None,None,,,,,,,,,,,0,0,0,0,0,7,7,7,218.36739830000442,,,,,,,,,,,,,,,,,,,,,,,,,,,,,,,,,,,,,,218.35137759998906,218.35142180000548,218.3625156999915,218.36739830000442,218.36739830000442,218.36739830000442,218.36739830000442,221.36757279999438,221.36757279999438,222.3512175999931,2,1,0.6825166000053287,0.25827960000606254,None,222.3512830999971,222.35130310000386,None,222.35132640000666,222.3513438999944,None,222.37950760000967,222.37950760000967,,,,,,,,,,,5,1,0,0,2025-02-20_11h03.32.934,rtmindeye,2024.2.4,60.08203601412857,2025-02-20 11h17.34.938960 -0500
all_stimuli/special515/special_49944.jpg,8,0,8,8,0,,,,,,0,0,0,1,1,"[9, 21, 31, 45, 56, 68, 69]",1,1,0.5117807000060566,0.0956688,None,None,None,,,,,,,,,,,0,0,0,0,0,8,8,8,222.37950760000967,,,,,,,,,,,,,,,,,,,,,,,,,,,,,,,,,,,,,,222.35149920001277,222.35154810000677,222.37781549998908,222.37950760000967,222.37950760000967,222.37950760000967,222.37950760000967,225.3842779000115,225.3842779000115,226.36759119998896,1,1,0.5117807000060566,0.0956688,None,226.36766139999963,226.36768279998796,None,226.36770669999532,226.36772370000836,None,,,,,,,,,,,,,5,1,0,0,2025-02-20_11h03.32.934,rtmindeye,2024.2.4,60.08203601412857,2025-02-20 11h17.34.938960 -0500
blank.jpg,9,1,9,9,0,,,,,,0,0,0,1,1,"[9, 21, 31, 45, 56, 68, 69]",None,0,,,None,None,None,,,,,,,,,,,0,0,0,0,0,9,9,9,226.39162199999555,,,,,,,,,,,,,,,,,,,,,,,,,,,,,,,,,,,,,,226.36787950000144,226.36792399999104,226.38998889998766,226.39162199999555,226.39162199999555,226.39162199999555,226.39162199999555,229.40104319999227,229.40104319999227,230.38443750000442,None,0,,,None,230.38450369998463,230.38452469999902,None,230.38455099999555,230.3845686999848,None,,,,,,,,,,,,,5,1,0,0,2025-02-20_11h03.32.934,rtmindeye,2024.2.4,60.08203601412857,2025-02-20 11h17.34.938960 -0500
all_stimuli/special515/special_38817.jpg,10,0,10,10,0,,,,,,0,0,0,1,1,"[9, 21, 31, 45, 56, 68, 69]",1,1,0.4365531000075862,0.13499039999442175,None,None,None,,,,,,,,,,,0,0,0,0,0,10,10,10,230.41063759999815,,,,,,,,,,,,,,,,,,,,,,,,,,,,,,,,,,,,,,230.38472249999177,230.38476670000819,230.40887149999617,230.41063759999815,230.41063759999815,230.41063759999815,230.41063759999815,233.41766070001177,233.41766070001177,234.40106110001216,1,1,0.4365531000075862,0.13499039999442175,None,234.4011318999983,234.4011518000043,None,234.40117550001014,234.4011928999971,None,,,,,,,,,,,,,5,1,0,0,2025-02-20_11h03.32.934,rtmindeye,2024.2.4,60.08203601412857,2025-02-20 11h17.34.938960 -0500
all_stimuli/special515/special_65872.jpg,11,0,11,11,0,,,,,,0,0,0,1,1,"[9, 21, 31, 45, 56, 68, 69]",1,1,0.5322217000066303,0.12068589997943491,None,None,None,,,,,,,,,,,0,0,0,0,0,11,11,11,234.43206769999233,,,,,,,,,,,,,,,,,,,,,,,,,,,,,,,,,,,,,,234.4013513,234.40139620000264,234.4301945999905,234.43206769999233,234.43206769999233,234.43206769999233,234.43206769999233,237.43435550000868,237.43435550000868,238.41765600000508,1,1,0.5322217000066303,0.12068589997943491,None,238.4177275999973,238.41774870001245,None,238.41777279999224,238.4177902000083,None,,,,,,,,,,,,,5,1,0,0,2025-02-20_11h03.32.934,rtmindeye,2024.2.4,60.08203601412857,2025-02-20 11h17.34.938960 -0500
all_stimuli/shared1000_notspecial/notspecial_58096.png,12,0,12,12,0,,,,,,0,0,0,1,1,"[9, 21, 31, 45, 56, 68, 69]",1,1,0.7220727000094485,0.20905019997735508,None,None,None,,,,,,,,,,,0,0,0,0,0,12,12,12,238.44797720000497,,,,,,,,,,,,,,,,,,,,,,,,,,,,,,,,,,,,,,238.41794670000672,238.4179914999986,238.4463461000123,238.44797720000497,238.44797720000497,238.44797720000497,238.44797720000497,241.45088449999457,241.45088449999457,242.43434440001147,1,1,0.7220727000094485,0.20905019997735508,None,242.43441539999912,242.43443630001275,None,242.43445999998949,242.43447750000632,None,,,,,,,,,,,,,5,1,0,0,2025-02-20_11h03.32.934,rtmindeye,2024.2.4,60.08203601412857,2025-02-20 11h17.34.938960 -0500
all_stimuli/special515/special_38978.jpg,13,0,13,13,0,,,,,,0,0,0,1,1,"[9, 21, 31, 45, 56, 68, 69]",1,1,0.5753729999996722,0.11494990001665428,None,None,None,,,,,,,,,,,0,0,0,0,0,13,13,13,242.47081599998637,,,,,,,,,,,,,,,,,,,,,,,,,,,,,,,,,,,,,,242.43464200000744,242.43468730000313,242.46827799998573,242.47081599998637,242.47081599998637,242.47081599998637,242.47081599998637,245.4844133000006,245.4844133000006,246.45111620001262,1,1,0.5753729999996722,0.11494990001665428,None,246.45118760000332,246.45120869998937,None,246.45123249999597,246.45125009998446,None,,,,,,,,,,,,,5,1,0,0,2025-02-20_11h03.32.934,rtmindeye,2024.2.4,60.08203601412857,2025-02-20 11h17.34.938960 -0500
all_stimuli/special515/special_25371.jpg,14,0,14,14,0,,,,,,0,0,0,1,1,"[9, 21, 31, 45, 56, 68, 69]",1,1,0.5398904000176117,0.13100709998980165,None,None,None,,,,,,,,,,,0,0,0,0,0,14,14,14,246.4703126999957,,,,,,,,,,,,,,,,,,,,,,,,,,,,,,,,,,,,,,246.45141889998922,246.4514644999872,246.46856000000844,246.4703126999957,246.4703126999957,246.4703126999957,246.4703126999957,249.48438629999873,249.48438629999873,250.4678181000054,1,1,0.5398904000176117,0.13100709998980165,None,250.46788929999457,250.4679102000082,None,250.46793439998874,250.46795190000557,None,,,,,,,,,,,,,5,1,0,0,2025-02-20_11h03.32.934,rtmindeye,2024.2.4,60.08203601412857,2025-02-20 11h17.34.938960 -0500
all_stimuli/special515/special_4051.jpg,15,0,15,15,0,,,,,,0,0,0,1,1,"[9, 21, 31, 45, 56, 68, 69]",1,1,0.6548651000193786,0.26699839998036623,None,None,None,,,,,,,,,,,0,0,0,0,0,15,15,15,250.50431280001067,,,,,,,,,,,,,,,,,,,,,,,,,,,,,,,,,,,,,,250.46810779999942,250.4681525999913,250.50259950000327,250.50431280001067,250.50431280001067,250.50431280001067,250.50431280001067,253.5174757000059,253.5174757000059,254.48414129999583,1,1,0.6548651000193786,0.26699839998036623,None,254.4842120000103,254.48423309999635,None,254.48425790001056,254.48427479999373,None,,,,,,,,,,,,,5,1,0,0,2025-02-20_11h03.32.934,rtmindeye,2024.2.4,60.08203601412857,2025-02-20 11h17.34.938960 -0500
all_stimuli/shared1000_notspecial/notspecial_53858.png,16,0,16,16,0,,,,,,0,0,0,1,1,"[9, 21, 31, 45, 56, 68, 69]",1,1,0.5505207999958657,0.11892539999098517,None,None,None,,,,,,,,,,,0,0,0,0,0,16,16,16,254.52568069999688,,,,,,,,,,,,,,,,,,,,,,,,,,,,,,,,,,,,,,254.48443640000187,254.48448099999223,254.52408450000803,254.52568069999688,254.52568069999688,254.52568069999688,254.52568069999688,257.53386429999955,257.53386429999955,258.5012102999899,1,1,0.5505207999958657,0.11892539999098517,None,258.5012826999882,258.5013034000003,None,258.5013270000054,258.5013447999954,None,,,,,,,,,,,,,5,1,0,0,2025-02-20_11h03.32.934,rtmindeye,2024.2.4,60.08203601412857,2025-02-20 11h17.34.938960 -0500
all_stimuli/special515/special_56154.jpg,17,0,17,17,0,,,,,,0,0,0,1,1,"[9, 21, 31, 45, 56, 68, 69]",1,1,0.5860492000065278,0.11211299998103641,None,None,None,,,,,,,,,,,0,0,0,0,0,17,17,17,258.53291579999495,,,,,,,,,,,,,,,,,,,,,,,,,,,,,,,,,,,,,,258.50150640000356,258.5015510999947,258.5311481000099,258.53291579999495,258.53291579999495,258.53291579999495,258.53291579999495,261.53431469999487,261.53431469999487,262.5175573999877,1,1,0.5860492000065278,0.11211299998103641,None,262.5176281000022,262.5176487999852,None,262.5176725999918,262.51769000000786,None,,,,,,,,,,,,,5,1,0,0,2025-02-20_11h03.32.934,rtmindeye,2024.2.4,60.08203601412857,2025-02-20 11h17.34.938960 -0500
all_stimuli/special515/special_8394.jpg,18,0,18,18,0,,,,,,0,0,0,1,1,"[9, 21, 31, 45, 56, 68, 69]",1,1,0.6313096000230871,0.1399405999982264,None,None,None,,,,,,,,,,,0,0,0,0,0,18,18,18,262.5458595000091,,,,,,,,,,,,,,,,,,,,,,,,,,,,,,,,,,,,,,262.5178451999964,262.5178901,262.5440142999869,262.5458595000091,262.5458595000091,262.5458595000091,262.5458595000091,265.55073529999936,265.55073529999936,266.5345454000053,1,1,0.6313096000230871,0.1399405999982264,None,266.5346181000059,266.5346389999904,None,266.5346625999955,266.5346803999855,None,,,,,,,,,,,,,5,1,0,0,2025-02-20_11h03.32.934,rtmindeye,2024.2.4,60.08203601412857,2025-02-20 11h17.34.938960 -0500
all_stimuli/shared1000_notspecial/notspecial_28341.png,19,0,19,19,0,,,,,,0,0,0,1,1,"[9, 21, 31, 45, 56, 68, 69]",1,1,0.3983170000137761,0.12104869997710921,None,None,None,,,,,,,,,,,0,0,0,0,0,19,19,19,266.5546120000072,,,,,,,,,,,,,,,,,,,,,,,,,,,,,,,,,,,,,,266.53484129998833,266.5348856000055,266.5529727000103,266.5546120000072,266.5546120000072,266.5546120000072,266.5546120000072,269.56766719999723,269.56766719999723,270.55090319999726,1,1,0.3983170000137761,0.12104869997710921,None,270.55097439998644,270.5509957000031,None,270.55101920000743,270.55103699999745,None,,,,,,,,,,,,,5,1,0,0,2025-02-20_11h03.32.934,rtmindeye,2024.2.4,60.08203601412857,2025-02-20 11h17.34.938960 -0500
all_stimuli/shared1000_notspecial/notspecial_32771.png,20,0,20,20,0,,,,,,0,0,0,1,1,"[9, 21, 31, 45, 56, 68, 69]",1,1,0.6184511999890674,0.11195300001418218,None,None,None,,,,,,,,,,,0,0,0,0,0,20,20,20,270.5865403999924,,,,,,,,,,,,,,,,,,,,,,,,,,,,,,,,,,,,,,270.5511959999858,270.5512408000068,270.5849454999843,270.5865403999924,270.5865403999924,270.5865403999924,270.5865403999924,273.60081539998646,273.60081539998646,274.5672745000047,1,1,0.6184511999890674,0.11195300001418218,None,274.5673478000099,274.5673691999982,None,274.5673935000086,274.5674105999933,None,,,,,,,,,,,,,5,1,0,0,2025-02-20_11h03.32.934,rtmindeye,2024.2.4,60.08203601412857,2025-02-20 11h17.34.938960 -0500
blank.jpg,21,1,21,21,0,,,,,,0,0,0,1,1,"[9, 21, 31, 45, 56, 68, 69]",None,0,,,None,None,None,,,,,,,,,,,0,0,0,0,0,21,21,21,274.5840734000085,,,,,,,,,,,,,,,,,,,,,,,,,,,,,,,,,,,,,,274.56757350001135,274.5676213,274.57586079998873,274.5840734000085,274.5840734000085,274.5840734000085,274.5840734000085,277.58414029999403,277.58414029999403,278.56762009998783,None,0,,,None,278.56767980000586,278.5677003999881,None,278.56772409999394,278.56774120000773,None,278.5960177000088,278.5960177000088,,,,,,,,,,,5,1,0,0,2025-02-20_11h03.32.934,rtmindeye,2024.2.4,60.08203601412857,2025-02-20 11h17.34.938960 -0500
all_stimuli/special515/special_72605.jpg,22,0,22,22,0,,,,,,0,0,0,1,1,"[9, 21, 31, 45, 56, 68, 69]",1,1,0.6851524999947287,0.0949858,None,None,None,,,,,,,,,,,0,0,0,0,0,22,22,22,278.5960177000088,,,,,,,,,,,,,,,,,,,,,,,,,,,,,,,,,,,,,,278.56789430000936,278.5679328000115,278.59426320000784,278.5960177000088,278.5960177000088,278.5960177000088,278.5960177000088,281.6008690999879,281.6008690999879,282.5843729999906,1,1,0.6851524999947287,0.0949858,None,282.58444269999745,282.5844633000088,None,282.58448670001235,282.5845036999963,None,,,,,,,,,,,,,5,1,0,0,2025-02-20_11h03.32.934,rtmindeye,2024.2.4,60.08203601412857,2025-02-20 11h17.34.938960 -0500
all_stimuli/special515/special_20442.jpg,23,0,23,23,0,,,,,,0,0,0,1,1,"[9, 21, 31, 45, 56, 68, 69]",1,1,0.4352670000225771,0.1368405,None,None,None,,,,,,,,,,,0,0,0,0,0,23,23,23,282.6128737000108,,,,,,,,,,,,,,,,,,,,,,,,,,,,,,,,,,,,,,282.58465979999164,282.58470380000654,282.61115720000817,282.6128737000108,282.6128737000108,282.6128737000108,282.6128737000108,285.6173890999926,285.6173890999926,286.6009304999898,1,1,0.4352670000225771,0.1368405,None,286.60100249998504,286.60102420000476,None,286.6010477000091,286.6010651999968,None,,,,,,,,,,,,,5,1,0,0,2025-02-20_11h03.32.934,rtmindeye,2024.2.4,60.08203601412857,2025-02-20 11h17.34.938960 -0500
all_stimuli/special515/special_62683.jpg,24,0,24,24,0,,,,,,0,0,0,1,1,"[9, 21, 31, 45, 56, 68, 69]",2,0,0.9738722000038251,0.16683969998848625,None,None,None,,,,,,,,,,,0,0,0,0,0,24,24,24,286.6333386999904,,,,,,,,,,,,,,,,,,,,,,,,,,,,,,,,,,,,,,286.60122419998515,286.6012686000031,286.63153109999257,286.6333386999904,286.6333386999904,286.6333386999904,286.6333386999904,289.6343966999848,289.6343966999848,290.6177006000071,2,0,0.9738722000038251,0.16683969998848625,None,290.6177727000031,290.61779329998535,None,290.6178172999935,290.61783500001184,None,,,,,,,,,,,,,5,1,0,0,2025-02-20_11h03.32.934,rtmindeye,2024.2.4,60.08203601412857,2025-02-20 11h17.34.938960 -0500
all_stimuli/MST_pairs/pair_17_21_0.png,25,0,25,25,0,,,,,,0,0,0,1,1,"[9, 21, 31, 45, 56, 68, 69]",1,1,0.3997318999900017,0.1540820999944117,None,None,None,,,,,,,,,,,0,0,0,0,0,25,25,25,290.6681755000027,,,,,,,,,,,,,,,,,,,,,,,,,,,,,,,,,,,,,,290.6179962999886,290.61804040000425,290.66654199999175,290.6681755000027,290.6681755000027,290.6681755000027,290.6681755000027,293.68387459998485,293.68387459998485,294.6343904,1,1,0.3997318999900017,0.1540820999944117,None,294.63446150001255,294.63448249999783,None,294.63450620000367,294.6345238999929,None,,,,,,,,,,,,,5,1,0,0,2025-02-20_11h03.32.934,rtmindeye,2024.2.4,60.08203601412857,2025-02-20 11h17.34.938960 -0500
all_stimuli/special515/special_20442.jpg,26,0,26,26,0,,,,,,1,0,0,1,1,"[9, 21, 31, 45, 56, 68, 69]",1,0,0.4178230999968946,0.13401519999024458,None,None,None,,,,,,,,,,,0,0,0,0,0,26,26,26,294.65115970000625,,,,,,,,,,,,,,,,,,,,,,,,,,,,,,,,,,,,,,294.6346832999843,294.63472800000454,294.64115320000565,294.65115970000625,294.65115970000625,294.65115970000625,294.65115970000625,297.6507370999898,297.6507370999898,298.63427059998503,1,0,0.4178230999968946,0.13401519999024458,None,298.6343361999898,298.63435670000035,None,298.63438080000924,298.6343978999939,None,298.6672052000067,298.6672052000067,,,,,,,,,,,5,1,0,0,2025-02-20_11h03.32.934,rtmindeye,2024.2.4,60.08203601412857,2025-02-20 11h17.34.938960 -0500
all_stimuli/shared1000_notspecial/notspecial_63746.png,27,0,27,27,0,,,,,,0,0,0,1,1,"[9, 21, 31, 45, 56, 68, 69]",1,1,0.7140117,0.14984090000507422,None,None,None,,,,,,,,,,,0,0,0,0,0,27,27,27,298.6672052000067,,,,,,,,,,,,,,,,,,,,,,,,,,,,,,,,,,,,,,298.63455329998396,298.63459289999446,298.6656332999992,298.6672052000067,298.6672052000067,298.6672052000067,298.6672052000067,301.6670473999984,301.6670473999984,302.6508462000056,1,1,0.7140117,0.14984090000507422,None,302.6509173999948,302.6509384000092,None,302.65096229998744,302.6509802000073,None,,,,,,,,,,,,,5,1,0,0,2025-02-20_11h03.32.934,rtmindeye,2024.2.4,60.08203601412857,2025-02-20 11h17.34.938960 -0500
all_stimuli/special515/special_41162.jpg,28,0,28,28,0,,,,,,0,0,0,1,1,"[9, 21, 31, 45, 56, 68, 69]",1,1,0.5501082999981008,0.1400908000068739,None,None,None,,,,,,,,,,,0,0,0,0,0,28,28,28,302.6868114999961,,,,,,,,,,,,,,,,,,,,,,,,,,,,,,,,,,,,,,302.65113929999643,302.6511834000121,302.6849155999953,302.6868114999961,302.6868114999961,302.6868114999961,302.6868114999961,305.7007573999872,305.7007573999872,306.66751120000845,1,1,0.5501082999981008,0.1400908000068739,None,306.6675835,306.66760489999433,None,306.66762870000093,306.6676463999902,None,,,,,,,,,,,,,5,1,0,0,2025-02-20_11h03.32.934,rtmindeye,2024.2.4,60.08203601412857,2025-02-20 11h17.34.938960 -0500
all_stimuli/special515/special_43159.jpg,29,0,29,29,0,,,,,,0,0,0,1,1,"[9, 21, 31, 45, 56, 68, 69]",1,1,0.6624740999832284,0.13307340000756085,None,None,None,,,,,,,,,,,0,0,0,0,0,29,29,29,306.6945699999924,,,,,,,,,,,,,,,,,,,,,,,,,,,,,,,,,,,,,,306.66780379999545,306.66784859998734,306.69283970000106,306.6945699999924,306.6945699999924,306.6945699999924,306.6945699999924,309.7006349999865,309.7006349999865,310.68413310000324,1,1,0.6624740999832284,0.13307340000756085,None,310.6842062000069,310.68422699999064,None,310.68425180000486,310.68426939999335,None,,,,,,,,,,,,,5,1,0,0,2025-02-20_11h03.32.934,rtmindeye,2024.2.4,60.08203601412857,2025-02-20 11h17.34.938960 -0500
all_stimuli/shared1000_notspecial/notspecial_53070.png,30,0,30,30,0,,,,,,0,0,0,1,1,"[9, 21, 31, 45, 56, 68, 69]",1,1,0.5685919999959879,0.14820230001350865,None,None,None,,,,,,,,,,,0,0,0,0,0,30,30,30,310.7223798999912,,,,,,,,,,,,,,,,,,,,,,,,,,,,,,,,,,,,,,310.6844287,310.6844734000042,310.72075889998814,310.7223798999912,310.7223798999912,310.7223798999912,310.7223798999912,313.73419640000793,313.73419640000793,314.70059560000664,1,1,0.5685919999959879,0.14820230001350865,None,314.70066649999353,314.7006876000087,None,314.7007120999915,314.7007295000076,None,,,,,,,,,,,,,5,1,0,0,2025-02-20_11h03.32.934,rtmindeye,2024.2.4,60.08203601412857,2025-02-20 11h17.34.938960 -0500
blank.jpg,31,1,31,31,0,,,,,,0,0,0,1,1,"[9, 21, 31, 45, 56, 68, 69]",None,0,,,None,None,None,,,,,,,,,,,0,0,0,0,0,31,31,31,314.71753359999275,,,,,,,,,,,,,,,,,,,,,,,,,,,,,,,,,,,,,,314.700886,314.70098240001244,314.70860469999025,314.71753359999275,314.71753359999275,314.71753359999275,314.71753359999275,317.7174992999935,317.7174992999935,318.7008555000066,None,0,,,None,318.7009165000054,318.70093659998383,None,318.7009602999897,318.7009771000012,None,318.72806269998546,318.72806269998546,,,,,,,,,,,5,1,0,0,2025-02-20_11h03.32.934,rtmindeye,2024.2.4,60.08203601412857,2025-02-20 11h17.34.938960 -0500
all_stimuli/shared1000_notspecial/notspecial_15025.png,32,0,32,32,0,,,,,,0,0,0,1,1,"[9, 21, 31, 45, 56, 68, 69]",1,1,0.47900079999817535,0.2658928000018932,None,None,None,,,,,,,,,,,0,0,0,0,0,32,32,32,318.72806269998546,,,,,,,,,,,,,,,,,,,,,,,,,,,,,,,,,,,,,,318.70113319999655,318.70117179999943,318.72641959998873,318.72806269998546,318.72806269998546,318.72806269998546,318.72806269998546,321.7341130999848,321.7341130999848,322.7176726000034,1,1,0.47900079999817535,0.2658928000018932,None,322.7177437999926,322.71776490000775,None,322.71778850001283,322.71780630000285,None,,,,,,,,,,,,,5,1,0,0,2025-02-20_11h03.32.934,rtmindeye,2024.2.4,60.08203601412857,2025-02-20 11h17.34.938960 -0500
all_stimuli/shared1000_notspecial/notspecial_28788.png,33,0,33,33,0,,,,,,0,0,0,1,1,"[9, 21, 31, 45, 56, 68, 69]",2,0,0.8138385999773163,0.16020900002331473,None,None,None,,,,,,,,,,,0,0,0,0,0,33,33,33,322.7530528999923,,,,,,,,,,,,,,,,,,,,,,,,,,,,,,,,,,,,,,322.71796770000947,322.7180127000029,322.75148519998766,322.7530528999923,322.7530528999923,322.7530528999923,322.7530528999923,325.7674393999914,325.7674393999914,326.73417569999583,2,0,0.8138385999773163,0.16020900002331473,None,326.73424520000117,326.7342659999849,None,326.7342900999938,326.7343077000114,None,,,,,,,,,,,,,5,1,0,0,2025-02-20_11h03.32.934,rtmindeye,2024.2.4,60.08203601412857,2025-02-20 11h17.34.938960 -0500
all_stimuli/special515/special_24640.jpg,34,0,34,34,0,,,,,,0,0,0,1,1,"[9, 21, 31, 45, 56, 68, 69]",1,1,0.7509845999884419,0.11693800002103671,None,None,None,,,,,,,,,,,0,0,0,0,0,34,34,34,326.76319019999937,,,,,,,,,,,,,,,,,,,,,,,,,,,,,,,,,,,,,,326.7344640000083,326.73455809999723,326.76135019998765,326.76319019999937,326.76319019999937,326.76319019999937,326.76319019999937,329.7674849999894,329.7674849999894,330.7507256999961,1,1,0.7509845999884419,0.11693800002103671,None,330.75079729998833,330.75081820000196,None,330.7508421000093,330.7508592999948,None,,,,,,,,,,,,,5,1,0,0,2025-02-20_11h03.32.934,rtmindeye,2024.2.4,60.08203601412857,2025-02-20 11h17.34.938960 -0500
all_stimuli/special515/special_22993.jpg,35,0,35,35,0,,,,,,0,0,0,1,1,"[9, 21, 31, 45, 56, 68, 69]",1,1,0.5571641999995336,0.1211652000201866,None,None,None,,,,,,,,,,,0,0,0,0,0,35,35,35,330.7817475000047,,,,,,,,,,,,,,,,,,,,,,,,,,,,,,,,,,,,,,330.7510181000107,330.7510623999988,330.7798793000111,330.7817475000047,330.7817475000047,330.7817475000047,330.7817475000047,333.78416129999096,333.78416129999096,334.767457,1,1,0.5571641999995336,0.1211652000201866,None,334.7675263999845,334.7675472999981,None,334.7675709000032,334.76758859999245,None,,,,,,,,,,,,,5,1,0,0,2025-02-20_11h03.32.934,rtmindeye,2024.2.4,60.08203601412857,2025-02-20 11h17.34.938960 -0500
all_stimuli/special515/special_16917.jpg,36,0,36,36,0,,,,,,0,0,0,1,1,"[9, 21, 31, 45, 56, 68, 69]",1,1,0.46030639999662526,0.1732610999897588,None,None,None,,,,,,,,,,,0,0,0,0,0,36,36,36,334.80757159998757,,,,,,,,,,,,,,,,,,,,,,,,,,,,,,,,,,,,,,334.7677415999933,334.7677862000128,334.8057220999908,334.80757159998757,334.80757159998757,334.80757159998757,334.80757159998757,337.81737269999576,337.81737269999576,338.7842491999909,1,1,0.46030639999662526,0.1732610999897588,None,338.7843206000107,338.7843420999998,None,338.7843658000056,338.7843831999926,None,,,,,,,,,,,,,5,1,0,0,2025-02-20_11h03.32.934,rtmindeye,2024.2.4,60.08203601412857,2025-02-20 11h17.34.938960 -0500
all_stimuli/special515/special_69813.jpg,37,0,37,37,0,,,,,,0,0,0,1,1,"[9, 21, 31, 45, 56, 68, 69]",1,1,0.5410932999802753,0.14881000001332723,None,None,None,,,,,,,,,,,0,0,0,0,0,37,37,37,338.8150844000047,,,,,,,,,,,,,,,,,,,,,,,,,,,,,,,,,,,,,,338.78455069998745,338.7845960999839,338.8133809999854,338.8150844000047,338.8150844000047,338.8150844000047,338.8150844000047,341.8174988999963,341.8174988999963,342.8006924999936,1,1,0.5410932999802753,0.14881000001332723,None,342.8007632000081,342.8007845999964,None,342.80080850000377,342.8008256999892,None,,,,,,,,,,,,,5,1,0,0,2025-02-20_11h03.32.934,rtmindeye,2024.2.4,60.08203601412857,2025-02-20 11h17.34.938960 -0500
all_stimuli/special515/special_70095.jpg,38,0,38,38,0,,,,,,0,0,0,1,1,"[9, 21, 31, 45, 56, 68, 69]",1,1,0.4662356000044383,0.2948569000000134,None,None,None,,,,,,,,,,,0,0,0,0,0,38,38,38,342.82588509999914,,,,,,,,,,,,,,,,,,,,,,,,,,,,,,,,,,,,,,342.80098289999296,342.8010273000109,342.8242443999916,342.82588509999914,342.82588509999914,342.82588509999914,342.82588509999914,345.8340077,345.8340077,346.81740840000566,1,1,0.4662356000044383,0.2948569000000134,None,346.8174808,346.8175016999885,None,346.81752620000043,346.81754369998816,None,,,,,,,,,,,,,5,1,0,0,2025-02-20_11h03.32.934,rtmindeye,2024.2.4,60.08203601412857,2025-02-20 11h17.34.938960 -0500
all_stimuli/MST_pairs/pair_5_8_78.png,39,0,39,39,0,,,,,,0,0,0,1,1,"[9, 21, 31, 45, 56, 68, 69]",1,1,0.7352800999942701,0.1379439000156708,None,None,None,,,,,,,,,,,0,0,0,0,0,39,39,39,346.8627215999877,,,,,,,,,,,,,,,,,,,,,,,,,,,,,,,,,,,,,,346.8177001999866,346.8177444,346.8609155000013,346.8627215999877,346.8627215999877,346.8627215999877,346.8627215999877,349.8673517999996,349.8673517999996,350.8341422000085,1,1,0.7352800999942701,0.1379439000156708,None,350.8342120999878,350.8342326999991,None,350.8342571000103,350.83427449999726,None,,,,,,,,,,,,,5,1,0,0,2025-02-20_11h03.32.934,rtmindeye,2024.2.4,60.08203601412857,2025-02-20 11h17.34.938960 -0500
all_stimuli/special515/special_40935.jpg,40,0,40,40,0,,,,,,0,0,0,1,1,"[9, 21, 31, 45, 56, 68, 69]",1,1,0.46457330000703223,0.11903840000741184,None,None,None,,,,,,,,,,,0,0,0,0,0,40,40,40,350.8614656999998,,,,,,,,,,,,,,,,,,,,,,,,,,,,,,,,,,,,,,350.8344308999949,350.8344754999853,350.8597364999878,350.8614656999998,350.8614656999998,350.8614656999998,350.8614656999998,353.8674602000101,353.8674602000101,354.8503487999842,1,1,0.46457330000703223,0.11903840000741184,None,354.8504199000017,354.8504409,None,354.8504654999997,354.85048349999124,None,,,,,,,,,,,,,5,1,0,0,2025-02-20_11h03.32.934,rtmindeye,2024.2.4,60.08203601412857,2025-02-20 11h17.34.938960 -0500
all_stimuli/special515/special_10064.jpg,41,0,41,41,0,,,,,,0,0,0,1,1,"[9, 21, 31, 45, 56, 68, 69]",1,1,0.4904546999896411,0.1279733999981545,None,None,None,,,,,,,,,,,0,0,0,0,0,41,41,41,354.88854730001185,,,,,,,,,,,,,,,,,,,,,,,,,,,,,,,,,,,,,,354.8506411999988,354.8506855999876,354.88669169999775,354.88854730001185,354.88854730001185,354.88854730001185,354.88854730001185,357.90061949999654,357.90061949999654,358.8674008999951,1,1,0.4904546999896411,0.1279733999981545,None,358.867471,358.8674914999865,None,358.8675150999916,358.8675331000122,None,,,,,,,,,,,,,5,1,0,0,2025-02-20_11h03.32.934,rtmindeye,2024.2.4,60.08203601412857,2025-02-20 11h17.34.938960 -0500
all_stimuli/MST_pairs/pair_7_10_89.png,42,0,42,42,0,,,,,,0,0,0,1,1,"[9, 21, 31, 45, 56, 68, 69]",1,1,0.5818617,0.12198189998161979,None,None,None,,,,,,,,,,,0,0,0,0,0,42,42,42,358.9381804000004,,,,,,,,,,,,,,,,,,,,,,,,,,,,,,,,,,,,,,358.8678263000038,358.8678719000018,358.9347182000056,358.9381804000004,358.9381804000004,358.9381804000004,358.9381804000004,361.9506595999992,361.9506595999992,362.88412259999313,1,1,0.5818617,0.12198189998161979,None,362.8841940999846,362.8842153000005,None,362.8842400999856,362.8842577000032,None,,,,,,,,,,,,,5,1,0,0,2025-02-20_11h03.32.934,rtmindeye,2024.2.4,60.08203601412857,2025-02-20 11h17.34.938960 -0500
all_stimuli/MST_pairs/pair_45_w_pagoda1.jpg,43,0,43,43,0,,,,,,0,0,0,1,1,"[9, 21, 31, 45, 56, 68, 69]",1,1,0.5676923000137322,0.15371859999140725,None,None,None,,,,,,,,,,,0,0,0,0,0,43,43,43,362.9145266000123,,,,,,,,,,,,,,,,,,,,,,,,,,,,,,,,,,,,,,362.8844189000083,362.88446359999944,362.9128447000112,362.9145266000123,362.9145266000123,362.9145266000123,362.9145266000123,365.9171859000053,365.9171859000053,366.9006866000127,1,1,0.5676923000137322,0.15371859999140725,None,366.90075820000493,366.9007791999902,None,366.9008029999968,366.9008203999838,None,,,,,,,,,,,,,5,1,0,0,2025-02-20_11h03.32.934,rtmindeye,2024.2.4,60.08203601412857,2025-02-20 11h17.34.938960 -0500
all_stimuli/special515/special_42171.jpg,44,0,44,44,0,,,,,,0,0,0,1,1,"[9, 21, 31, 45, 56, 68, 69]",1,1,0.5758601000125054,0.11685699998633936,None,None,None,,,,,,,,,,,0,0,0,0,0,44,44,44,366.93731179999304,,,,,,,,,,,,,,,,,,,,,,,,,,,,,,,,,,,,,,366.90098320000106,366.9010275999899,366.93554259999655,366.93731179999304,366.93731179999304,366.93731179999304,366.93731179999304,369.9505126999866,369.9505126999866,370.91751269999077,1,1,0.5758601000125054,0.11685699998633936,None,370.91758569999365,370.91760690000956,None,370.91763119999086,370.91764910001075,None,,,,,,,,,,,,,5,1,0,0,2025-02-20_11h03.32.934,rtmindeye,2024.2.4,60.08203601412857,2025-02-20 11h17.34.938960 -0500
blank.jpg,45,1,45,45,0,,,,,,0,0,0,1,1,"[9, 21, 31, 45, 56, 68, 69]",None,0,,,None,None,None,,,,,,,,,,,0,0,0,0,0,45,45,45,370.93402230000356,,,,,,,,,,,,,,,,,,,,,,,,,,,,,,,,,,,,,,370.91781680000713,370.9178616999998,370.9272187000024,370.93402230000356,370.93402230000356,370.93402230000356,370.93402230000356,373.9339769000071,373.9339769000071,374.9174348000088,None,0,,,None,374.91749260001234,374.91751269999077,None,374.9175355999905,374.91755260000355,None,374.9458406000049,374.9458406000049,,,,,,,,,,,5,1,0,0,2025-02-20_11h03.32.934,rtmindeye,2024.2.4,60.08203601412857,2025-02-20 11h17.34.938960 -0500
all_stimuli/special515/special_42980.jpg,46,0,46,46,0,,,,,,0,0,0,1,1,"[9, 21, 31, 45, 56, 68, 69]",1,1,0.47201339999446645,0.11502460000338033,None,None,None,,,,,,,,,,,0,0,0,0,0,46,46,46,374.9458406000049,,,,,,,,,,,,,,,,,,,,,,,,,,,,,,,,,,,,,,374.91770009999163,374.9177386999945,374.9440535999893,374.9458406000049,374.9458406000049,374.9458406000049,374.9458406000049,377.95063929999014,377.95063929999014,378.9340674999985,1,1,0.47201339999446645,0.11502460000338033,None,378.9341415,378.9341623999935,None,378.9341862000001,378.9342040999909,None,,,,,,,,,,,,,5,1,0,0,2025-02-20_11h03.32.934,rtmindeye,2024.2.4,60.08203601412857,2025-02-20 11h17.34.938960 -0500
all_stimuli/special515/special_40575.jpg,47,0,47,47,0,,,,,,0,0,0,1,1,"[9, 21, 31, 45, 56, 68, 69]",1,1,0.45584450001479127,0.12287119997199625,None,None,None,,,,,,,,,,,0,0,0,0,0,47,47,47,378.97621590000927,,,,,,,,,,,,,,,,,,,,,,,,,,,,,,,,,,,,,,378.9343700000027,378.93441379998694,378.97436910000397,378.97621590000927,378.97621590000927,378.97621590000927,378.97621590000927,381.98370939999586,381.98370939999586,382.95089340000413,1,1,0.45584450001479127,0.12287119997199625,None,382.9509643,382.95098550000694,None,382.95100850000745,382.9510259999952,None,,,,,,,,,,,,,5,1,0,0,2025-02-20_11h03.32.934,rtmindeye,2024.2.4,60.08203601412857,2025-02-20 11h17.34.938960 -0500
all_stimuli/special515/special_72719.jpg,48,0,48,48,0,,,,,,0,0,0,1,1,"[9, 21, 31, 45, 56, 68, 69]",1,1,0.42274919999181293,0.13101539999479428,None,None,None,,,,,,,,,,,0,0,0,0,0,48,48,48,382.99613859999226,,,,,,,,,,,,,,,,,,,,,,,,,,,,,,,,,,,,,,382.9511855999881,382.95123020000756,382.99441449998994,382.99613859999226,382.99613859999226,382.99613859999226,382.99613859999226,386.00062239999534,386.00062239999534,386.96745749999536,1,1,0.42274919999181293,0.13101539999479428,None,386.9675285999838,386.96754990000045,None,386.96757400000934,386.96759149999707,None,,,,,,,,,,,,,5,1,0,0,2025-02-20_11h03.32.934,rtmindeye,2024.2.4,60.08203601412857,2025-02-20 11h17.34.938960 -0500
all_stimuli/MST_pairs/pair_10_14_89.png,49,0,49,49,0,,,,,,0,0,0,1,1,"[9, 21, 31, 45, 56, 68, 69]",1,1,0.5341311999945901,0.12306270000408404,None,None,None,,,,,,,,,,,0,0,0,0,0,49,49,49,387.0058485000045,,,,,,,,,,,,,,,,,,,,,,,,,,,,,,,,,,,,,,386.9677515,386.9677963999857,387.00406060001114,387.0058485000045,387.0058485000045,387.0058485000045,387.0058485000045,390.01730219999445,390.01730219999445,390.98390659998404,1,1,0.5341311999945901,0.12306270000408404,None,390.9839784000069,390.9839990999899,None,390.9840227999957,390.9840406999865,None,,,,,,,,,,,,,5,1,0,0,2025-02-20_11h03.32.934,rtmindeye,2024.2.4,60.08203601412857,2025-02-20 11h17.34.938960 -0500
all_stimuli/special515/special_20080.jpg,50,0,50,50,0,,,,,,0,0,0,1,1,"[9, 21, 31, 45, 56, 68, 69]",1,1,0.5018233000009786,0.12110140000004321,None,None,None,,,,,,,,,,,0,0,0,0,0,50,50,50,391.0341253000079,,,,,,,,,,,,,,,,,,,,,,,,,,,,,,,,,,,,,,390.9842069000006,390.98425280000083,391.0323710000084,391.0341253000079,391.0341253000079,391.0341253000079,391.0341253000079,394.0338147000002,394.0338147000002,395.0001517999917,1,1,0.5018233000009786,0.12110140000004321,None,395.0002223000047,395.00024309998844,None,395.00026629999047,395.0002835,None,,,,,,,,,,,,,5,1,0,0,2025-02-20_11h03.32.934,rtmindeye,2024.2.4,60.08203601412857,2025-02-20 11h17.34.938960 -0500
all_stimuli/shared1000_notspecial/notspecial_21703.png,51,0,51,51,0,,,,,,0,0,0,1,1,"[9, 21, 31, 45, 56, 68, 69]",1,1,0.574441,0.25185339999734424,None,None,None,,,,,,,,,,,0,0,0,0,0,51,51,51,395.0397518,,,,,,,,,,,,,,,,,,,,,,,,,,,,,,,,,,,,,,395.0004399000027,395.00048419999075,395.0381282999879,395.0397518,395.0397518,395.0397518,395.0397518,398.0508397000085,398.0508397000085,399.0005780000065,1,1,0.574441,0.25185339999734424,None,399.00064929999644,399.0006703000108,None,399.0006938999868,399.00071089999983,None,,,,,,,,,,,,,5,1,0,0,2025-02-20_11h03.32.934,rtmindeye,2024.2.4,60.08203601412857,2025-02-20 11h17.34.938960 -0500
all_stimuli/special515/special_72209.jpg,52,0,52,52,0,,,,,,0,0,0,1,1,"[9, 21, 31, 45, 56, 68, 69]",1,1,0.6211172000039369,0.10689230001298711,None,None,None,,,,,,,,,,,0,0,0,0,0,52,52,52,399.03499670000747,,,,,,,,,,,,,,,,,,,,,,,,,,,,,,,,,,,,,,399.0008659999876,399.00091010000324,399.03322209999897,399.03499670000747,399.03499670000747,399.03499670000747,399.03499670000747,402.0506049999967,402.0506049999967,403.01738549998845,1,1,0.6211172000039369,0.10689230001298711,None,403.0174582999898,403.0174796000065,None,403.0175031000108,403.01752110000234,None,,,,,,,,,,,,,5,1,0,0,2025-02-20_11h03.32.934,rtmindeye,2024.2.4,60.08203601412857,2025-02-20 11h17.34.938960 -0500
all_stimuli/shared1000_notspecial/notspecial_22782.png,53,0,53,53,0,,,,,,0,0,0,1,1,"[9, 21, 31, 45, 56, 68, 69]",1,1,0.6169962999993004,0.13705670001218095,None,None,None,,,,,,,,,,,0,0,0,0,0,53,53,53,403.0499082999886,,,,,,,,,,,,,,,,,,,,,,,,,,,,,,,,,,,,,,403.0176800999907,403.0177245000086,403.04831650000415,403.0499082999886,403.0499082999886,403.0499082999886,403.0499082999886,406.0505129999947,406.0505129999947,407.03344719999586,1,1,0.6169962999993004,0.13705670001218095,None,407.0335182000126,407.03353929999867,None,407.03356209999765,407.03357939998386,None,,,,,,,,,,,,,5,1,0,0,2025-02-20_11h03.32.934,rtmindeye,2024.2.4,60.08203601412857,2025-02-20 11h17.34.938960 -0500
all_stimuli/MST_pairs/pair_4_6_44.png,54,0,54,54,0,,,,,,0,0,0,1,1,"[9, 21, 31, 45, 56, 68, 69]",1,1,0.7737486000114586,0.14317160000791773,None,None,None,,,,,,,,,,,0,0,0,0,0,54,54,54,407.3110929999966,,,,,,,,,,,,,,,,,,,,,,,,,,,,,,,,,,,,,,407.03374059998896,407.0337852000084,407.30738509999355,407.3110929999966,407.3110929999966,407.3110929999966,407.3110929999966,410.31734479998704,410.31734479998704,411.0506408000074,1,1,0.7737486000114586,0.14317160000791773,None,411.05071000001044,411.0507309999957,None,411.0507549000031,411.0507721999893,None,,,,,,,,,,,,,5,1,0,0,2025-02-20_11h03.32.934,rtmindeye,2024.2.4,60.08203601412857,2025-02-20 11h17.34.938960 -0500
all_stimuli/shared1000_notspecial/notspecial_25602.png,55,0,55,55,0,,,,,,0,0,0,1,1,"[9, 21, 31, 45, 56, 68, 69]",1,1,0.6305631999857724,0.1380860000208486,None,None,None,,,,,,,,,,,0,0,0,0,0,55,55,55,411.0862744000042,,,,,,,,,,,,,,,,,,,,,,,,,,,,,,,,,,,,,,411.0509277000092,411.05097209999803,411.0846659,411.0862744000042,411.0862744000042,411.0862744000042,411.0862744000042,414.1006289999932,414.1006289999932,415.0669265000033,1,1,0.6305631999857724,0.1380860000208486,None,415.0669990000024,415.0670198999869,None,415.0670437999943,415.06706150001264,None,,,,,,,,,,,,,5,1,0,0,2025-02-20_11h03.32.934,rtmindeye,2024.2.4,60.08203601412857,2025-02-20 11h17.34.938960 -0500
blank.jpg,56,1,56,56,0,,,,,,0,0,0,1,1,"[9, 21, 31, 45, 56, 68, 69]",None,0,,,None,None,None,,,,,,,,,,,0,0,0,0,0,56,56,56,415.0841846000112,,,,,,,,,,,,,,,,,,,,,,,,,,,,,,,,,,,,,,415.06722369999625,415.0672678000119,415.07454100000905,415.0841846000112,415.0841846000112,415.0841846000112,415.0841846000112,418.0837603000109,418.0837603000109,419.06695559999207,None,0,,,None,419.0670162999886,419.06703589999233,None,419.0670589999936,419.0670763000089,None,419.1063992000127,419.1063992000127,,,,,,,,,,,5,1,0,0,2025-02-20_11h03.32.934,rtmindeye,2024.2.4,60.08203601412857,2025-02-20 11h17.34.938960 -0500
all_stimuli/shared1000_notspecial/notspecial_41056.png,57,0,57,57,0,,,,,,0,0,0,1,1,"[9, 21, 31, 45, 56, 68, 69]",1,1,0.5015962999896146,0.15803620000951923,None,None,None,,,,,,,,,,,0,0,0,0,0,57,57,57,419.1063992000127,,,,,,,,,,,,,,,,,,,,,,,,,,,,,,,,,,,,,,419.06722840000293,419.06726640000124,419.10475510000833,419.1063992000127,419.1063992000127,419.1063992000127,419.1063992000127,422.1167742999969,422.1167742999969,423.0674918000004,1,1,0.5015962999896146,0.15803620000951923,None,423.0675635999942,423.0675850000116,None,423.0676084999868,423.06762580000213,None,,,,,,,,,,,,,5,1,0,0,2025-02-20_11h03.32.934,rtmindeye,2024.2.4,60.08203601412857,2025-02-20 11h17.34.938960 -0500
all_stimuli/special515/special_11617.jpg,58,0,58,58,0,,,,,,0,0,0,1,1,"[9, 21, 31, 45, 56, 68, 69]",1,1,0.6767886000161525,0.12674139998853207,None,None,None,,,,,,,,,,,0,0,0,0,0,58,58,58,423.1003692,,,,,,,,,,,,,,,,,,,,,,,,,,,,,,,,,,,,,,423.0677885999903,423.0678324000037,423.0986715,423.1003692,423.1003692,423.1003692,423.1003692,426.10070260000066,426.10070260000066,427.0834702999855,1,1,0.6767886000161525,0.12674139998853207,None,427.0835422000091,427.0835623999883,None,427.0835859999934,427.08360340000945,None,,,,,,,,,,,,,5,1,0,0,2025-02-20_11h03.32.934,rtmindeye,2024.2.4,60.08203601412857,2025-02-20 11h17.34.938960 -0500
all_stimuli/special515/special_62960.jpg,59,0,59,59,0,,,,,,0,0,0,1,1,"[9, 21, 31, 45, 56, 68, 69]",1,1,0.5802188999950886,0.1349552999890875,None,None,None,,,,,,,,,,,0,0,0,0,0,59,59,59,427.1308725999843,,,,,,,,,,,,,,,,,,,,,,,,,,,,,,,,,,,,,,427.08376559999306,427.08381139999256,427.12899299999117,427.1308725999843,427.1308725999843,427.1308725999843,427.1308725999843,430.13382300001103,430.13382300001103,431.0838599000126,1,1,0.5802188999950886,0.1349552999890875,None,431.0839313000033,431.08395239998936,None,431.0839777000074,431.0839952999959,None,,,,,,,,,,,,,5,1,0,0,2025-02-20_11h03.32.934,rtmindeye,2024.2.4,60.08203601412857,2025-02-20 11h17.34.938960 -0500
all_stimuli/special515/special_3171.jpg,60,0,60,60,0,,,,,,0,0,0,1,1,"[9, 21, 31, 45, 56, 68, 69]",1,1,0.4646839000051841,0.15573239998775534,None,None,None,,,,,,,,,,,0,0,0,0,0,60,60,60,431.11646029999247,,,,,,,,,,,,,,,,,,,,,,,,,,,,,,,,,,,,,,431.0841553999926,431.08420049998676,431.1147503000102,431.11646029999247,431.11646029999247,431.11646029999247,431.11646029999247,434.11710899998434,434.11710899998434,435.1006861999922,1,1,0.4646839000051841,0.15573239998775534,None,435.10075620000134,435.1007772999874,None,435.10080089999246,435.1008187000116,None,,,,,,,,,,,,,5,1,0,0,2025-02-20_11h03.32.934,rtmindeye,2024.2.4,60.08203601412857,2025-02-20 11h17.34.938960 -0500
all_stimuli/MST_pairs/pair_1_3_89.png,61,0,61,61,0,,,,,,0,0,0,1,1,"[9, 21, 31, 45, 56, 68, 69]",1,1,0.6312211999902502,0.16393569999490865,None,None,None,,,,,,,,,,,0,0,0,0,0,61,61,61,435.13388449998456,,,,,,,,,,,,,,,,,,,,,,,,,,,,,,,,,,,,,,435.1009781,435.10102269999334,435.13228220000747,435.13388449998456,435.13388449998456,435.13388449998456,435.13388449998456,438.1338517999975,438.1338517999975,439.11688359998516,1,1,0.6312211999902502,0.16393569999490865,None,439.1169530999905,439.1169736000011,None,439.1169979000115,439.1170149999962,None,,,,,,,,,,,,,5,1,0,0,2025-02-20_11h03.32.934,rtmindeye,2024.2.4,60.08203601412857,2025-02-20 11h17.34.938960 -0500
all_stimuli/special515/special_67204.jpg,62,0,62,62,0,,,,,,0,0,0,1,1,"[9, 21, 31, 45, 56, 68, 69]",1,1,0.4902603999944404,0.13089790000231005,None,None,None,,,,,,,,,,,0,0,0,0,0,62,62,62,439.13681440000073,,,,,,,,,,,,,,,,,,,,,,,,,,,,,,,,,,,,,,439.1171757999982,439.11722019998706,439.13490289999754,439.13681440000073,439.13681440000073,439.13681440000073,439.13681440000073,442.1503579999844,442.1503579999844,443.11733690000256,1,1,0.4902603999944404,0.13089790000231005,None,443.11740550000104,443.11742570000933,None,443.11744919998455,443.11746680000215,None,,,,,,,,,,,,,5,1,0,0,2025-02-20_11h03.32.934,rtmindeye,2024.2.4,60.08203601412857,2025-02-20 11h17.34.938960 -0500
all_stimuli/special515/special_8933.jpg,63,0,63,63,0,,,,,,0,0,0,1,1,"[9, 21, 31, 45, 56, 68, 69]",1,1,0.6669883000140544,0.16188749999855645,None,None,None,,,,,,,,,,,0,0,0,0,0,63,63,63,443.14808009998524,,,,,,,,,,,,,,,,,,,,,,,,,,,,,,,,,,,,,,443.11762380000437,443.1176683999947,443.1462281999993,443.14808009998524,443.14808009998524,443.14808009998524,443.14808009998524,446.1506170000066,446.1506170000066,447.13371329999063,1,1,0.6669883000140544,0.16188749999855645,None,447.13378619999276,447.1338068000041,None,447.1338308000122,447.13384779999615,None,,,,,,,,,,,,,5,1,0,0,2025-02-20_11h03.32.934,rtmindeye,2024.2.4,60.08203601412857,2025-02-20 11h17.34.938960 -0500
all_stimuli/MST_pairs/pair_4_6_44.png,64,0,64,64,0,,,,,,1,0,0,1,1,"[9, 21, 31, 45, 56, 68, 69]",2,1,0.7336249999934807,0.18693460000213236,None,None,None,,,,,,,,,,,0,0,0,0,0,64,64,64,447.3724920999957,,,,,,,,,,,,,,,,,,,,,,,,,,,,,,,,,,,,,,447.1340111999889,447.1340562000114,447.3686774999951,447.3724920999957,447.3724920999957,447.3724920999957,447.3724920999957,450.38362869998673,450.38362869998673,451.15049500000896,2,1,0.7336249999934807,0.18693460000213236,None,451.15056670000195,451.1505876999872,None,451.1506112999923,451.15062880000914,None,,,,,,,,,,,,,5,1,0,0,2025-02-20_11h03.32.934,rtmindeye,2024.2.4,60.08203601412857,2025-02-20 11h17.34.938960 -0500
all_stimuli/shared1000_notspecial/notspecial_42299.png,65,0,65,65,0,,,,,,0,0,0,1,1,"[9, 21, 31, 45, 56, 68, 69]",1,1,0.7024886999861337,0.13817510000080802,None,None,None,,,,,,,,,,,0,0,0,0,0,65,65,65,451.1844010000059,,,,,,,,,,,,,,,,,,,,,,,,,,,,,,,,,,,,,,451.1507893000089,451.1508336,451.18279230000917,451.1844010000059,451.1844010000059,451.1844010000059,451.1844010000059,454.1836258000112,454.1836258000112,455.1671449999849,1,1,0.7024886999861337,0.13817510000080802,None,455.16721630000393,455.16723719998845,None,455.1672602999897,455.1672772,None,,,,,,,,,,,,,5,1,0,0,2025-02-20_11h03.32.934,rtmindeye,2024.2.4,60.08203601412857,2025-02-20 11h17.34.938960 -0500
all_stimuli/special515/special_45129.jpg,66,0,66,66,0,,,,,,0,0,0,1,1,"[9, 21, 31, 45, 56, 68, 69]",1,1,0.6547012,0.1448138999985531,None,None,None,,,,,,,,,,,0,0,0,0,0,66,66,66,455.20440950000193,,,,,,,,,,,,,,,,,,,,,,,,,,,,,,,,,,,,,,455.16743539998424,455.1674830999982,455.2026343999896,455.20440950000193,455.20440950000193,455.20440950000193,455.20440950000193,458.21706299998914,458.21706299998914,459.1836401000037,1,1,0.6547012,0.1448138999985531,None,459.18371109999134,459.18373180000344,None,459.1837550000055,459.18377269999473,None,,,,,,,,,,,,,5,1,0,0,2025-02-20_11h03.32.934,rtmindeye,2024.2.4,60.08203601412857,2025-02-20 11h17.34.938960 -0500
all_stimuli/shared1000_notspecial/notspecial_8262.png,67,0,67,67,0,,,,,,0,0,0,1,1,"[9, 21, 31, 45, 56, 68, 69]",1,1,0.8300850999949034,0.18696699998690747,None,None,None,,,,,,,,,,,0,0,0,0,0,67,67,67,459.2138675999886,,,,,,,,,,,,,,,,,,,,,,,,,,,,,,,,,,,,,,459.18393379999907,459.1839784999902,459.2122262000048,459.2138675999886,459.2138675999886,459.2138675999886,459.2138675999886,462.2172228000127,462.2172228000127,463.2004267000011,1,1,0.8300850999949034,0.18696699998690747,None,463.2004983999941,463.2005191000062,None,463.2005429000128,463.2005599999975,None,,,,,,,,,,,,,5,1,0,0,2025-02-20_11h03.32.934,rtmindeye,2024.2.4,60.08203601412857,2025-02-20 11h17.34.938960 -0500
blank.jpg,68,1,68,68,0,,,,,,0,0,0,1,1,"[9, 21, 31, 45, 56, 68, 69]",None,0,,,None,None,None,,,,,,,,,,,0,0,0,0,0,68,68,68,463.2171432999894,,,,,,,,,,,,,,,,,,,,,,,,,,,,,,,,,,,,,,463.20074380000005,463.2008535999921,463.20944090001285,463.2171432999894,463.2171432999894,463.2171432999894,463.2171432999894,466.2171745999949,466.2171745999949,467.20022319999407,None,0,,,None,467.20028640000965,467.2003066999896,None,467.2003299999924,467.20034720000695,None,467.2169043000031,467.2169043000031,,,,,,,,,,,5,1,0,0,2025-02-20_11h03.32.934,rtmindeye,2024.2.4,60.08203601412857,2025-02-20 11h17.34.938960 -0500
blank.jpg,69,1,69,69,0,,,,,,0,1,0,1,0,"[9, 21, 31, 45, 56, 68, 69]",None,0,,,None,1,equal,33.61806569999317,None,18.73501750000287,None,,,,,,,0,0,0,0,0,69,69,69,467.2169043000031,,,,,,,,,,,,,,,,,,,,,,,,,,,,,,,,,,,,,,467.2005046000122,467.2005438999913,467.2065694000048,467.2169043000031,467.2169043000031,467.2169043000031,467.2169043000031,470.21730329998536,470.21730329998536,471.2005638999981,None,0,,,None,471.2084983,504.8501593999972,1,504.8502182000084,523.6168299999845,equal,471.2168297,471.2168297,471.2168297,471.2168297,33.61806569999317,None,504.8669319000037,504.8669319000037,18.73501750000287,None,,,5,1,0,0,2025-02-20_11h03.32.934,rtmindeye,2024.2.4,60.08203601412857,2025-02-20 11h17.34.938960 -0500
,,,0,0,0,,,,,,,,,,,,,,,,,,,,,,,,,,,,,0,0,0,0,,,,,,,,,,,,,,,,,,,,,,,,,,,,,,,,,,,,,,,,,,,,,,,,,,,,,,,,,,,,,,,,,,,,,,,,,,,,5,1,0,0,2025-02-20_11h03.32.934,rtmindeye,2024.2.4,60.08203601412857,2025-02-20 11h17.34.938960 -0500
all_stimuli/shared1000_notspecial/notspecial_51928.png,0,0,0,0,0,,,,,,0,0,1,1,1,"[9, 21, 31, 45, 56, 68, 69]",1,1,1.0945560999971349,0.28995050000958145,None,None,None,,,,,,,,,,,1,0,1,0,0,0,0,0,523.6804722000088,,,,,,,,,,,,,,,,,,,,,,,,,,,,,,,,,,,,,,523.6429090999882,523.6430089999922,523.6765976999886,523.6804722000088,523.6804722000088,523.6804722000088,523.6804722000088,526.683521,526.683521,527.6500295999867,1,1,1.0945560999971349,0.28995050000958145,None,527.6501027999911,527.6501237000048,None,527.6501484999899,527.6501663,None,,,,,,,,,,,,,5,1,0,0,2025-02-20_11h03.32.934,rtmindeye,2024.2.4,60.08203601412857,2025-02-20 11h17.34.938960 -0500
all_stimuli/MST_pairs/pair_6_9_56.png,1,0,1,1,0,,,,,,0,0,1,1,1,"[9, 21, 31, 45, 56, 68, 69]",1,1,0.5090380999899935,0.1348794000223279,None,None,None,,,,,,,,,,,1,0,1,0,0,1,1,1,527.6999491000024,,,,,,,,,,,,,,,,,,,,,,,,,,,,,,,,,,,,,,527.6503311999841,527.6503755000012,527.6982513999974,527.6999491000024,527.6999491000024,527.6999491000024,527.6999491000024,530.7002758999879,530.7002758999879,531.6671232999943,1,1,0.5090380999899935,0.1348794000223279,None,531.6671962999972,531.6672171,None,531.6672409999883,531.6672588000074,None,,,,,,,,,,,,,5,1,0,0,2025-02-20_11h03.32.934,rtmindeye,2024.2.4,60.08203601412857,2025-02-20 11h17.34.938960 -0500
all_stimuli/special515/special_63182.jpg,2,0,2,2,0,,,,,,0,0,1,1,1,"[9, 21, 31, 45, 56, 68, 69]",1,1,0.41734300000825897,0.11210030000074767,None,None,None,,,,,,,,,,,1,0,1,0,0,2,2,2,531.7015459999966,,,,,,,,,,,,,,,,,,,,,,,,,,,,,,,,,,,,,,531.6674246999901,531.6674692000088,531.6997620000038,531.7015459999966,531.7015459999966,531.7015459999966,531.7015459999966,534.7168166000047,534.7168166000047,535.6836621999973,1,1,0.41734300000825897,0.11210030000074767,None,535.6837321000057,535.6837525999872,None,535.6837761999923,535.6837936000084,None,,,,,,,,,,,,,5,1,0,0,2025-02-20_11h03.32.934,rtmindeye,2024.2.4,60.08203601412857,2025-02-20 11h17.34.938960 -0500
all_stimuli/MST_pairs/pair_43_w_lighthouse1.jpg,3,0,3,3,0,,,,,,0,0,1,1,1,"[9, 21, 31, 45, 56, 68, 69]",1,1,0.5922680999792647,0.13294820001465268,None,None,None,,,,,,,,,,,1,0,1,0,0,3,3,3,535.7106175000081,,,,,,,,,,,,,,,,,,,,,,,,,,,,,,,,,,,,,,535.6839517999906,535.6839963000093,535.7089353000047,535.7106175000081,535.7106175000081,535.7106175000081,535.7106175000081,538.7170260999992,538.7170260999992,539.7002388999972,1,1,0.5922680999792647,0.13294820001465268,None,539.7003122000024,539.7003330999869,None,539.7003565999912,539.7003741,None,,,,,,,,,,,,,5,1,0,0,2025-02-20_11h03.32.934,rtmindeye,2024.2.4,60.08203601412857,2025-02-20 11h17.34.938960 -0500
all_stimuli/shared1000_notspecial/notspecial_5890.png,4,0,4,4,0,,,,,,0,0,1,1,1,"[9, 21, 31, 45, 56, 68, 69]",1,1,0.4494913999806158,0.13617550002527423,None,None,None,,,,,,,,,,,1,0,1,0,0,4,4,4,539.7293376000016,,,,,,,,,,,,,,,,,,,,,,,,,,,,,,,,,,,,,,539.7005395999877,539.7005863,539.7276564000058,539.7293376000016,539.7293376000016,539.7293376000016,539.7293376000016,542.7331915000104,542.7331915000104,543.7164994,1,1,0.4494913999806158,0.13617550002527423,None,543.7165709999972,543.7165915000078,None,543.7166154,543.7166333000059,None,,,,,,,,,,,,,5,1,0,0,2025-02-20_11h03.32.934,rtmindeye,2024.2.4,60.08203601412857,2025-02-20 11h17.34.938960 -0500
all_stimuli/special515/special_42224.jpg,5,0,5,5,0,,,,,,0,0,1,1,1,"[9, 21, 31, 45, 56, 68, 69]",1,1,0.37438819999806583,0.14997050000238232,None,None,None,,,,,,,,,,,1,0,1,0,0,5,5,5,543.7536804999982,,,,,,,,,,,,,,,,,,,,,,,,,,,,,,,,,,,,,,543.7167942000087,543.7168384,543.7517212000093,543.7536804999982,543.7536804999982,543.7536804999982,543.7536804999982,546.7671422999993,546.7671422999993,547.7169108999951,1,1,0.37438819999806583,0.14997050000238232,None,547.7169820000126,547.7170025999949,None,547.7170266,547.7170441999915,None,,,,,,,,,,,,,5,1,0,0,2025-02-20_11h03.32.934,rtmindeye,2024.2.4,60.08203601412857,2025-02-20 11h17.34.938960 -0500
all_stimuli/special515/special_42473.jpg,6,0,6,6,0,,,,,,0,0,1,1,1,"[9, 21, 31, 45, 56, 68, 69]",1,1,0.5033898999972735,0.12302570001338609,None,None,None,,,,,,,,,,,1,0,1,0,0,6,6,6,547.7565526000108,,,,,,,,,,,,,,,,,,,,,,,,,,,,,,,,,,,,,,547.7172023000021,547.7172467999917,547.7546858999995,547.7565526000108,547.7565526000108,547.7565526000108,547.7565526000108,550.7668967999925,550.7668967999925,551.7336764000065,1,1,0.5033898999972735,0.12302570001338609,None,551.7337492000079,551.7337700999924,None,551.7337939999998,551.7338119999913,None,,,,,,,,,,,,,5,1,0,0,2025-02-20_11h03.32.934,rtmindeye,2024.2.4,60.08203601412857,2025-02-20 11h17.34.938960 -0500
all_stimuli/special515/special_23241.jpg,7,0,7,7,0,,,,,,1,0,1,1,1,"[9, 21, 31, 45, 56, 68, 69]",2,1,0.8270545999985188,0.2328781000105664,None,None,None,,,,,,,,,,,1,0,1,0,0,7,7,7,551.7499363000097,,,,,,,,,,,,,,,,,,,,,,,,,,,,,,,,,,,,,,551.7339754,551.7340199000027,551.7452880000055,551.7499363000097,551.7499363000097,551.7499363000097,551.7499363000097,554.7501829999965,554.7501829999965,555.7338058000023,2,1,0.8270545999985188,0.2328781000105664,None,555.7338703999994,555.7338905,None,555.7339141,555.7339307999937,None,555.7611265000014,555.7611265000014,,,,,,,,,,,5,1,0,0,2025-02-20_11h03.32.934,rtmindeye,2024.2.4,60.08203601412857,2025-02-20 11h17.34.938960 -0500
all_stimuli/special515/special_11796.jpg,8,0,8,8,0,,,,,,0,0,1,1,1,"[9, 21, 31, 45, 56, 68, 69]",1,1,0.4969762999971863,0.25290380002115853,None,None,None,,,,,,,,,,,1,0,1,0,0,8,8,8,555.7611265000014,,,,,,,,,,,,,,,,,,,,,,,,,,,,,,,,,,,,,,555.7340838999953,555.7341222999967,555.7594377,555.7611265000014,555.7611265000014,555.7611265000014,555.7611265000014,558.7667302000045,558.7667302000045,559.7501852999849,1,1,0.4969762999971863,0.25290380002115853,None,559.7502563000016,559.7502770999854,None,559.7503000999859,559.7503174000012,None,,,,,,,,,,,,,5,1,0,0,2025-02-20_11h03.32.934,rtmindeye,2024.2.4,60.08203601412857,2025-02-20 11h17.34.938960 -0500
blank.jpg,9,1,9,9,0,,,,,,0,0,1,1,1,"[9, 21, 31, 45, 56, 68, 69]",None,0,,,None,None,None,,,,,,,,,,,1,0,1,0,0,9,9,9,559.7668907000043,,,,,,,,,,,,,,,,,,,,,,,,,,,,,,,,,,,,,,559.7504747000057,559.7505189999938,559.7599384000059,559.7668907000043,559.7668907000043,559.7668907000043,559.7668907000043,562.7665929000068,562.7665929000068,563.7502824999974,None,0,,,None,563.7503426999901,563.7503627999977,None,563.7503866000043,563.7504043999943,None,563.7764354000101,563.7764354000101,,,,,,,,,,,5,1,0,0,2025-02-20_11h03.32.934,rtmindeye,2024.2.4,60.08203601412857,2025-02-20 11h17.34.938960 -0500
all_stimuli/special515/special_49979.jpg,10,0,10,10,0,,,,,,0,0,1,1,1,"[9, 21, 31, 45, 56, 68, 69]",1,1,0.48947380000026897,0.13793749999604188,None,None,None,,,,,,,,,,,1,0,1,0,0,10,10,10,563.7764354000101,,,,,,,,,,,,,,,,,,,,,,,,,,,,,,,,,,,,,,563.7505568999914,563.7505956,563.7745393000077,563.7764354000101,563.7764354000101,563.7764354000101,563.7764354000101,566.7835753000109,566.7835753000109,567.7668620999902,1,1,0.48947380000026897,0.13793749999604188,None,567.7669354999962,567.7669559,None,567.7669796000118,567.7669970999996,None,,,,,,,,,,,,,5,1,0,0,2025-02-20_11h03.32.934,rtmindeye,2024.2.4,60.08203601412857,2025-02-20 11h17.34.938960 -0500
all_stimuli/MST_pairs/pair_14_18_22.png,11,0,11,11,0,,,,,,0,0,1,1,1,"[9, 21, 31, 45, 56, 68, 69]",1,1,0.8842180999927223,0.21113390001119114,None,None,None,,,,,,,,,,,1,0,1,0,0,11,11,11,567.7995282000047,,,,,,,,,,,,,,,,,,,,,,,,,,,,,,,,,,,,,,567.7671623,567.7672071999987,567.7978977999883,567.7995282000047,567.7995282000047,567.7995282000047,567.7995282000047,570.8002137999865,570.8002137999865,571.7835732999956,1,1,0.8842180999927223,0.21113390001119114,None,571.7836431000032,571.7836635,None,571.7836873999913,571.7837057999859,None,,,,,,,,,,,,,5,1,0,0,2025-02-20_11h03.32.934,rtmindeye,2024.2.4,60.08203601412857,2025-02-20 11h17.34.938960 -0500
all_stimuli/special515/special_69839.jpg,12,0,12,12,0,,,,,,0,0,1,1,1,"[9, 21, 31, 45, 56, 68, 69]",1,1,0.5809146999963559,0.14000950002809986,None,None,None,,,,,,,,,,,1,0,1,0,0,12,12,12,571.8049148999853,,,,,,,,,,,,,,,,,,,,,,,,,,,,,,,,,,,,,,571.7838622999843,571.7839070000045,571.8031514000031,571.8049148999853,571.8049148999853,571.8049148999853,571.8049148999853,574.8166815000004,574.8166815000004,575.8001566999883,1,1,0.5809146999963559,0.14000950002809986,None,575.8002287000127,575.8002494999964,None,575.8002734000038,575.8002905999892,None,,,,,,,,,,,,,5,1,0,0,2025-02-20_11h03.32.934,rtmindeye,2024.2.4,60.08203601412857,2025-02-20 11h17.34.938960 -0500
all_stimuli/shared1000_notspecial/notspecial_28303.png,13,0,13,13,0,,,,,,0,0,1,1,1,"[9, 21, 31, 45, 56, 68, 69]",1,1,0.46815120000974275,0.17592849998618476,None,None,None,,,,,,,,,,,1,0,1,0,0,13,13,13,575.8326306999952,,,,,,,,,,,,,,,,,,,,,,,,,,,,,,,,,,,,,,575.8004534000065,575.8004976999946,575.8310102999967,575.8326306999952,575.8326306999952,575.8326306999952,575.8326306999952,578.8334606999997,578.8334606999997,579.8168008000066,1,1,0.46815120000974275,0.17592849998618476,None,579.8168708999874,579.8168911999965,None,579.8169147000008,579.816932,None,,,,,,,,,,,,,5,1,0,0,2025-02-20_11h03.32.934,rtmindeye,2024.2.4,60.08203601412857,2025-02-20 11h17.34.938960 -0500
all_stimuli/special515/special_41566.jpg,14,0,14,14,0,,,,,,0,0,1,1,1,"[9, 21, 31, 45, 56, 68, 69]",1,1,0.7441677000024356,0.1379151000001002,None,None,None,,,,,,,,,,,1,0,1,0,0,14,14,14,579.8508525,,,,,,,,,,,,,,,,,,,,,,,,,,,,,,,,,,,,,,579.8170903999999,579.8171351999918,579.8491187999898,579.8508525,579.8508525,579.8508525,579.8508525,582.8498777000059,582.8498777000059,583.8332411999872,1,1,0.7441677000024356,0.1379151000001002,None,583.8333107999933,583.8333316000062,None,583.8333553,583.8333727,None,,,,,,,,,,,,,5,1,0,0,2025-02-20_11h03.32.934,rtmindeye,2024.2.4,60.08203601412857,2025-02-20 11h17.34.938960 -0500
all_stimuli/special515/special_42224.jpg,15,0,15,15,0,,,,,,1,0,1,1,1,"[9, 21, 31, 45, 56, 68, 69]",1,0,0.4836170999915339,0.13121429999591783,None,None,None,,,,,,,,,,,1,0,1,0,0,15,15,15,583.8501658999885,,,,,,,,,,,,,,,,,,,,,,,,,,,,,,,,,,,,,,583.8335328999965,583.8335770000122,583.8484674000065,583.8501658999885,583.8501658999885,583.8501658999885,583.8501658999885,586.8501194000128,586.8501194000128,587.8336504,1,0,0.4836170999915339,0.13121429999591783,None,587.8337184,587.8337375000119,None,587.8337611999887,587.8337782000017,None,587.8629739,587.8629739,,,,,,,,,,,5,1,0,0,2025-02-20_11h03.32.934,rtmindeye,2024.2.4,60.08203601412857,2025-02-20 11h17.34.938960 -0500
all_stimuli/shared1000_notspecial/notspecial_65010.png,16,0,16,16,0,,,,,,0,0,1,1,1,"[9, 21, 31, 45, 56, 68, 69]",1,1,0.5268170000053942,0.13216290000127628,None,None,None,,,,,,,,,,,1,0,1,0,0,16,16,16,587.8629739,,,,,,,,,,,,,,,,,,,,,,,,,,,,,,,,,,,,,,587.8339434000081,587.8339819000103,587.8613821000035,587.8629739,587.8629739,587.8629739,587.8629739,590.8668111999868,590.8668111999868,591.8503655999957,1,1,0.5268170000053942,0.13216290000127628,None,591.8504365000117,591.8504571999947,None,591.8504810000013,591.8504982999875,None,,,,,,,,,,,,,5,1,0,0,2025-02-20_11h03.32.934,rtmindeye,2024.2.4,60.08203601412857,2025-02-20 11h17.34.938960 -0500
all_stimuli/special515/special_50882.jpg,17,0,17,17,0,,,,,,0,0,1,1,1,"[9, 21, 31, 45, 56, 68, 69]",1,1,0.6959706000052392,0.17286190000595525,None,None,None,,,,,,,,,,,1,0,1,0,0,17,17,17,591.8810150999925,,,,,,,,,,,,,,,,,,,,,,,,,,,,,,,,,,,,,,591.8506633999932,591.8507075000089,591.8792374999903,591.8810150999925,591.8810150999925,591.8810150999925,591.8810150999925,594.8832694999874,594.8832694999874,595.8668232999917,1,1,0.6959706000052392,0.17286190000595525,None,595.8668946000107,595.8669154999952,None,595.8669393000018,595.8669566,None,,,,,,,,,,,,,5,1,0,0,2025-02-20_11h03.32.934,rtmindeye,2024.2.4,60.08203601412857,2025-02-20 11h17.34.938960 -0500
all_stimuli/special515/special_55107.jpg,18,0,18,18,0,,,,,,0,0,1,1,1,"[9, 21, 31, 45, 56, 68, 69]",1,1,0.5483331000141334,0.11696610000217333,None,None,None,,,,,,,,,,,1,0,1,0,0,18,18,18,595.8957054000057,,,,,,,,,,,,,,,,,,,,,,,,,,,,,,,,,,,,,,595.8671137999918,595.8671584000112,595.8938536999922,595.8957054000057,595.8957054000057,595.8957054000057,595.8957054000057,598.9002360999875,598.9002360999875,599.8834232999943,1,1,0.5483331000141334,0.11696610000217333,None,599.8834952999896,599.8835160000017,None,599.8835392000037,599.8835564999899,None,,,,,,,,,,,,,5,1,0,0,2025-02-20_11h03.32.934,rtmindeye,2024.2.4,60.08203601412857,2025-02-20 11h17.34.938960 -0500
all_stimuli/special515/special_51788.jpg,19,0,19,19,0,,,,,,0,0,1,1,1,"[9, 21, 31, 45, 56, 68, 69]",1,1,0.4397956000175327,0.1368125,None,None,None,,,,,,,,,,,1,0,1,0,0,19,19,19,599.9071554999973,,,,,,,,,,,,,,,,,,,,,,,,,,,,,,,,,,,,,,599.8837168999889,599.8837612000061,599.905448,599.9071554999973,599.9071554999973,599.9071554999973,599.9071554999973,602.9167702999839,602.9167702999839,603.8999499999918,1,1,0.4397956000175327,0.1368125,None,603.9000233999977,603.9000443000114,None,603.9000681999896,603.9000861000095,None,,,,,,,,,,,,,5,1,0,0,2025-02-20_11h03.32.934,rtmindeye,2024.2.4,60.08203601412857,2025-02-20 11h17.34.938960 -0500
all_stimuli/shared1000_notspecial/notspecial_22886.png,20,0,20,20,0,,,,,,0,0,1,1,1,"[9, 21, 31, 45, 56, 68, 69]",1,1,0.45933420001529157,0.12303990000509657,None,None,None,,,,,,,,,,,1,0,1,0,0,20,20,20,603.9265116000024,,,,,,,,,,,,,,,,,,,,,,,,,,,,,,,,,,,,,,603.9002480999916,603.9004469999927,603.9248350000125,603.9265116000024,603.9265116000024,603.9265116000024,603.9265116000024,606.9333204999857,606.9333204999857,607.9165973000054,1,1,0.45933420001529157,0.12303990000509657,None,607.9166693000006,607.9166894000082,None,607.9167128000117,607.9167308000033,None,,,,,,,,,,,,,5,1,0,0,2025-02-20_11h03.32.934,rtmindeye,2024.2.4,60.08203601412857,2025-02-20 11h17.34.938960 -0500
blank.jpg,21,1,21,21,0,,,,,,0,0,1,1,1,"[9, 21, 31, 45, 56, 68, 69]",None,0,,,None,None,None,,,,,,,,,,,1,0,1,0,0,21,21,21,607.9333183999988,,,,,,,,,,,,,,,,,,,,,,,,,,,,,,,,,,,,,,607.9168906999985,607.9169410000031,607.9274524000066,607.9333183999988,607.9333183999988,607.9333183999988,607.9333183999988,610.9330935000035,610.9330935000035,611.9168914000038,None,0,,,None,611.9169522000011,611.9169724000094,None,611.9169957999839,611.9170128999976,None,611.9747307999933,611.9747307999933,,,,,,,,,,,5,1,0,0,2025-02-20_11h03.32.934,rtmindeye,2024.2.4,60.08203601412857,2025-02-20 11h17.34.938960 -0500
all_stimuli/special515/special_45632.jpg,22,0,22,22,0,,,,,,0,0,1,1,1,"[9, 21, 31, 45, 56, 68, 69]",1,1,0.6202243000152521,0.13401209999574348,None,None,None,,,,,,,,,,,1,0,1,0,0,22,22,22,611.9747307999933,,,,,,,,,,,,,,,,,,,,,,,,,,,,,,,,,,,,,,611.9171691999945,611.9172070999921,611.9729359000048,611.9747307999933,611.9747307999933,611.9747307999933,611.9747307999933,614.9834078999993,614.9834078999993,615.933228,1,1,0.6202243000152521,0.13401209999574348,None,615.9332996000012,615.9333197000087,None,615.9333433999855,615.9333603999985,None,,,,,,,,,,,,,5,1,0,0,2025-02-20_11h03.32.934,rtmindeye,2024.2.4,60.08203601412857,2025-02-20 11h17.34.938960 -0500
all_stimuli/MST_pairs/pair_44_w_log_cabin2.jpg,23,0,23,23,0,,,,,,0,0,1,1,1,"[9, 21, 31, 45, 56, 68, 69]",2,0,0.8286580999847502,0.15695070000947453,None,None,None,,,,,,,,,,,1,0,1,0,0,23,23,23,615.9672224000096,,,,,,,,,,,,,,,,,,,,,,,,,,,,,,,,,,,,,,615.9335214000021,615.9335656999901,615.9655611999915,615.9672224000096,615.9672224000096,615.9672224000096,615.9672224000096,618.9668315000017,618.9668315000017,619.9500510999933,2,0,0.8286580999847502,0.15695070000947453,None,619.9501275999937,619.9501478,None,619.9501715000079,619.9501885999925,None,,,,,,,,,,,,,5,1,0,0,2025-02-20_11h03.32.934,rtmindeye,2024.2.4,60.08203601412857,2025-02-20 11h17.34.938960 -0500
all_stimuli/special515/special_16616.jpg,24,0,24,24,0,,,,,,0,0,1,1,1,"[9, 21, 31, 45, 56, 68, 69]",1,1,0.8662131000019144,0.16584299999522045,None,None,None,,,,,,,,,,,1,0,1,0,0,24,24,24,619.9768320999865,,,,,,,,,,,,,,,,,,,,,,,,,,,,,,,,,,,,,,619.9503660000046,619.9504106999957,619.9750610000046,619.9768320999865,619.9768320999865,619.9768320999865,619.9768320999865,622.9832898000022,622.9832898000022,623.9666094999993,1,1,0.8662131000019144,0.16584299999522045,None,623.9666800999839,623.9667009999976,None,623.9667254000087,623.9667424999934,None,,,,,,,,,,,,,5,1,0,0,2025-02-20_11h03.32.934,rtmindeye,2024.2.4,60.08203601412857,2025-02-20 11h17.34.938960 -0500
all_stimuli/shared1000_notspecial/notspecial_10586.png,25,0,25,25,0,,,,,,0,0,1,1,1,"[9, 21, 31, 45, 56, 68, 69]",2,0,1.0355502000020351,0.1739586999756284,None,None,None,,,,,,,,,,,1,0,1,0,0,25,25,25,623.9933255999931,,,,,,,,,,,,,,,,,,,,,,,,,,,,,,,,,,,,,,623.9669023999886,623.9669472000096,623.9915723000013,623.9933255999931,623.9933255999931,623.9933255999931,623.9933255999931,627.0000272000034,627.0000272000034,627.9833440000075,2,0,1.0355502000020351,0.1739586999756284,None,627.9834165000066,627.9834372999903,None,627.9834611999977,627.9834787999862,None,,,,,,,,,,,,,5,1,0,0,2025-02-20_11h03.32.934,rtmindeye,2024.2.4,60.08203601412857,2025-02-20 11h17.34.938960 -0500
all_stimuli/special515/special_59585.jpg,26,0,26,26,0,,,,,,0,0,1,1,1,"[9, 21, 31, 45, 56, 68, 69]",1,1,0.8347803000069689,0.1411591999931261,None,None,None,,,,,,,,,,,1,0,1,0,0,26,26,26,628.0360172000073,,,,,,,,,,,,,,,,,,,,,,,,,,,,,,,,,,,,,,627.9836467999849,627.9836921000096,628.0339432999899,628.0360172000073,628.0360172000073,628.0360172000073,628.0360172000073,631.0499153999845,631.0499153999845,632.0001933999883,1,1,0.8347803000069689,0.1411591999931261,None,632.0002663999912,632.0002873000049,None,632.0003113999846,632.0003287,None,,,,,,,,,,,,,5,1,0,0,2025-02-20_11h03.32.934,rtmindeye,2024.2.4,60.08203601412857,2025-02-20 11h17.34.938960 -0500
all_stimuli/special515/special_40423.jpg,27,0,27,27,0,,,,,,0,0,1,1,1,"[9, 21, 31, 45, 56, 68, 69]",1,1,0.7697916999750305,0.16483630001312122,None,None,None,,,,,,,,,,,1,0,1,0,0,27,27,27,632.0272637000016,,,,,,,,,,,,,,,,,,,,,,,,,,,,,,,,,,,,,,632.0005020000099,632.0005466000002,632.0255414999847,632.0272637000016,632.0272637000016,632.0272637000016,632.0272637000016,635.0331823999877,635.0331823999877,636.0167347000097,1,1,0.7697916999750305,0.16483630001312122,None,636.0168062000012,636.0168272999872,None,636.0168504999892,636.0168678000045,None,,,,,,,,,,,,,5,1,0,0,2025-02-20_11h03.32.934,rtmindeye,2024.2.4,60.08203601412857,2025-02-20 11h17.34.938960 -0500
all_stimuli/MST_pairs/pair_13_17_56.png,28,0,28,28,0,,,,,,0,0,1,1,1,"[9, 21, 31, 45, 56, 68, 69]",2,0,0.7209919999877457,0.17515850000199862,None,None,None,,,,,,,,,,,1,0,1,0,0,28,28,28,636.0478168000118,,,,,,,,,,,,,,,,,,,,,,,,,,,,,,,,,,,,,,636.0170303999912,636.0170743000053,636.0461615000095,636.0478168000118,636.0478168000118,636.0478168000118,636.0478168000118,639.0498423000099,639.0498423000099,640.0335875999881,2,0,0.7209919999877457,0.17515850000199862,None,640.0336599999864,640.0336799999932,None,640.0337030999945,640.0337197000044,None,,,,,,,,,,,,,5,1,0,0,2025-02-20_11h03.32.934,rtmindeye,2024.2.4,60.08203601412857,2025-02-20 11h17.34.938960 -0500
all_stimuli/special515/special_51983.jpg,29,0,29,29,0,,,,,,0,0,1,1,1,"[9, 21, 31, 45, 56, 68, 69]",1,1,0.9637208000058308,0.14387499997974373,None,None,None,,,,,,,,,,,1,0,1,0,0,29,29,29,640.0592761999869,,,,,,,,,,,,,,,,,,,,,,,,,,,,,,,,,,,,,,640.0338811000111,640.0339258000022,640.0575206000067,640.0592761999869,640.0592761999869,640.0592761999869,640.0592761999869,643.0667343999958,643.0667343999958,644.0501609999919,1,1,0.9637208000058308,0.14387499997974373,None,644.0502312000026,644.0502516999841,None,644.0502756999922,644.0502927000052,None,,,,,,,,,,,,,5,1,0,0,2025-02-20_11h03.32.934,rtmindeye,2024.2.4,60.08203601412857,2025-02-20 11h17.34.938960 -0500
all_stimuli/shared1000_notspecial/notspecial_29660.png,30,0,30,30,0,,,,,,0,0,1,1,1,"[9, 21, 31, 45, 56, 68, 69]",1,1,0.7189554999931715,0.1911178000154905,None,None,None,,,,,,,,,,,1,0,1,0,0,30,30,30,644.0847808000108,,,,,,,,,,,,,,,,,,,,,,,,,,,,,,,,,,,,,,644.0504507,644.0504950000031,644.0831586999993,644.0847808000108,644.0847808000108,644.0847808000108,644.0847808000108,647.0999491999974,647.0999491999974,648.0665222000098,1,1,0.7189554999931715,0.1911178000154905,None,648.0665990999842,648.0666233999946,None,648.0666519000079,648.0666697999986,None,,,,,,,,,,,,,5,1,0,0,2025-02-20_11h03.32.934,rtmindeye,2024.2.4,60.08203601412857,2025-02-20 11h17.34.938960 -0500
blank.jpg,31,1,31,31,0,,,,,,0,0,1,1,1,"[9, 21, 31, 45, 56, 68, 69]",None,0,,,None,None,None,,,,,,,,,,,1,0,1,0,0,31,31,31,648.0834940999921,,,,,,,,,,,,,,,,,,,,,,,,,,,,,,,,,,,,,,648.0668371,648.0668822999869,648.0746775000007,648.0834940999921,648.0834940999921,648.0834940999921,648.0834940999921,651.0832284000062,651.0832284000062,652.0667172000103,None,0,,,None,652.066777,652.0668019999866,None,652.0668263999978,652.0668436000124,None,652.1097487999941,652.1097487999941,,,,,,,,,,,5,1,0,0,2025-02-20_11h03.32.934,rtmindeye,2024.2.4,60.08203601412857,2025-02-20 11h17.34.938960 -0500
all_stimuli/shared1000_notspecial/notspecial_43107.png,32,0,32,32,0,,,,,,0,0,1,1,1,"[9, 21, 31, 45, 56, 68, 69]",1,1,0.8170995999826118,0.14609350002137944,None,None,None,,,,,,,,,,,1,0,1,0,0,32,32,32,652.1097487999941,,,,,,,,,,,,,,,,,,,,,,,,,,,,,,,,,,,,,,652.0670015999931,652.0670398999937,652.1081552,652.1097487999941,652.1097487999941,652.1097487999941,652.1097487999941,655.1165657000092,655.1165657000092,656.0833710999868,1,1,0.8170995999826118,0.14609350002137944,None,656.0834411999967,656.0834614,None,656.0834851000109,656.0835023999971,None,,,,,,,,,,,,,5,1,0,0,2025-02-20_11h03.32.934,rtmindeye,2024.2.4,60.08203601412857,2025-02-20 11h17.34.938960 -0500
all_stimuli/shared1000_notspecial/notspecial_34186.png,33,0,33,33,0,,,,,,0,0,1,1,1,"[9, 21, 31, 45, 56, 68, 69]",1,1,0.9987732000008691,0.18767420001677237,None,None,None,,,,,,,,,,,1,0,1,0,0,33,33,33,656.1132574,,,,,,,,,,,,,,,,,,,,,,,,,,,,,,,,,,,,,,656.0838119999971,656.0838570999913,656.1116745,656.1132574,656.1132574,656.1132574,656.1132574,659.1165903999936,659.1165903999936,660.1002600000065,1,1,0.9987732000008691,0.18767420001677237,None,660.1003327000071,660.1003539999947,None,660.1003773999983,660.1003947999852,None,,,,,,,,,,,,,5,1,0,0,2025-02-20_11h03.32.934,rtmindeye,2024.2.4,60.08203601412857,2025-02-20 11h17.34.938960 -0500
all_stimuli/shared1000_notspecial/notspecial_64979.png,34,0,34,34,0,,,,,,0,0,1,1,1,"[9, 21, 31, 45, 56, 68, 69]",1,1,0.7411657999909949,0.13200350000988692,None,None,None,,,,,,,,,,,1,0,1,0,0,34,34,34,660.1347883,,,,,,,,,,,,,,,,,,,,,,,,,,,,,,,,,,,,,,660.1005664000113,660.1006118000078,660.1328514000052,660.1347883,660.1347883,660.1347883,660.1347883,663.1501761999971,663.1501761999971,664.1166260000027,1,1,0.7411657999909949,0.13200350000988692,None,664.1166986000026,664.1167192999856,None,664.1167428999906,664.1167599000037,None,,,,,,,,,,,,,5,1,0,0,2025-02-20_11h03.32.934,rtmindeye,2024.2.4,60.08203601412857,2025-02-20 11h17.34.938960 -0500
all_stimuli/special515/special_65686.jpg,35,0,35,35,0,,,,,,0,0,1,1,1,"[9, 21, 31, 45, 56, 68, 69]",1,1,0.7599123000109103,0.1479747999983374,None,None,None,,,,,,,,,,,1,0,1,0,0,35,35,35,664.1479942000005,,,,,,,,,,,,,,,,,,,,,,,,,,,,,,,,,,,,,,664.1169212000095,664.1169654999976,664.1462255000079,664.1479942000005,664.1479942000005,664.1479942000005,664.1479942000005,667.1495027,667.1495027,668.1330584000098,1,1,0.7599123000109103,0.1479747999983374,None,668.1331294999982,668.1331494000042,None,668.1331722000032,668.1331896999909,None,,,,,,,,,,,,,5,1,0,0,2025-02-20_11h03.32.934,rtmindeye,2024.2.4,60.08203601412857,2025-02-20 11h17.34.938960 -0500
all_stimuli/special515/special_51185.jpg,36,0,36,36,0,,,,,,0,0,1,1,1,"[9, 21, 31, 45, 56, 68, 69]",1,1,0.5517411,0.2710793000005651,None,None,None,,,,,,,,,,,1,0,1,0,0,36,36,36,668.1670601000078,,,,,,,,,,,,,,,,,,,,,,,,,,,,,,,,,,,,,,668.1333575999888,668.1334023,668.1653056000068,668.1670601000078,668.1670601000078,668.1670601000078,668.1670601000078,671.1665247000055,671.1665247000055,672.1497373,1,1,0.5517411,0.2710793000005651,None,672.1498079999874,672.1498280999949,None,672.1498517,672.1498691999877,None,,,,,,,,,,,,,5,1,0,0,2025-02-20_11h03.32.934,rtmindeye,2024.2.4,60.08203601412857,2025-02-20 11h17.34.938960 -0500
all_stimuli/special515/special_68842.jpg,37,0,37,37,0,,,,,,0,0,1,1,1,"[9, 21, 31, 45, 56, 68, 69]",1,1,0.5907657,0.13490629999432713,None,None,None,,,,,,,,,,,1,0,1,0,0,37,37,37,672.1750524,,,,,,,,,,,,,,,,,,,,,,,,,,,,,,,,,,,,,,672.1500283000059,672.1500729999971,672.1733216999855,672.1750524,672.1750524,672.1750524,672.1750524,675.1830001999915,675.1830001999915,676.1664536,1,1,0.5907657,0.13490629999432713,None,676.1665252000093,676.1665453999885,None,676.1665684999898,676.1665857000044,None,,,,,,,,,,,,,5,1,0,0,2025-02-20_11h03.32.934,rtmindeye,2024.2.4,60.08203601412857,2025-02-20 11h17.34.938960 -0500
all_stimuli/MST_pairs/pair_10_14_33.png,38,0,38,38,0,,,,,,0,0,1,1,1,"[9, 21, 31, 45, 56, 68, 69]",1,1,0.6897645999852102,0.1399307000101544,None,None,None,,,,,,,,,,,1,0,1,0,0,38,38,38,676.2021777000045,,,,,,,,,,,,,,,,,,,,,,,,,,,,,,,,,,,,,,676.1667455999996,676.1667899999884,676.2005305000057,676.2021777000045,676.2021777000045,676.2021777000045,676.2021777000045,679.2165961999854,679.2165961999854,680.1833687000035,1,1,0.6897645999852102,0.1399307000101544,None,680.183441,680.1834613000101,None,680.1834849999868,680.1835017999983,None,,,,,,,,,,,,,5,1,0,0,2025-02-20_11h03.32.934,rtmindeye,2024.2.4,60.08203601412857,2025-02-20 11h17.34.938960 -0500
all_stimuli/shared1000_notspecial/notspecial_27972.png,39,0,39,39,0,,,,,,0,0,1,1,1,"[9, 21, 31, 45, 56, 68, 69]",1,1,0.6240892999921925,0.1350557999976445,None,None,None,,,,,,,,,,,1,0,1,0,0,39,39,39,680.2095980999875,,,,,,,,,,,,,,,,,,,,,,,,,,,,,,,,,,,,,,680.1836688999902,680.1837143999874,680.2079329999979,680.2095980999875,680.2095980999875,680.2095980999875,680.2095980999875,683.2162826999847,683.2162826999847,684.1998834999977,1,1,0.6240892999921925,0.1350557999976445,None,684.1999535000068,684.1999744999921,None,684.1999977999949,684.2000152,None,,,,,,,,,,,,,5,1,0,0,2025-02-20_11h03.32.934,rtmindeye,2024.2.4,60.08203601412857,2025-02-20 11h17.34.938960 -0500
all_stimuli/special515/special_3077.jpg,40,0,40,40,0,,,,,,0,0,1,1,1,"[9, 21, 31, 45, 56, 68, 69]",1,1,0.5796306,0.12604370000190102,None,None,None,,,,,,,,,,,1,0,1,0,0,40,40,40,684.2352957999974,,,,,,,,,,,,,,,,,,,,,,,,,,,,,,,,,,,,,,684.2001712000056,684.2002160999982,684.2334919999994,684.2352957999974,684.2352957999974,684.2352957999974,684.2352957999974,687.2496802000096,687.2496802000096,688.2165257000015,1,1,0.5796306,0.12604370000190102,None,688.2166003999882,688.2166213000019,None,688.2166456999839,688.2166635,None,,,,,,,,,,,,,5,1,0,0,2025-02-20_11h03.32.934,rtmindeye,2024.2.4,60.08203601412857,2025-02-20 11h17.34.938960 -0500
all_stimuli/special515/special_5583.jpg,41,0,41,41,0,,,,,,0,0,1,1,1,"[9, 21, 31, 45, 56, 68, 69]",1,1,0.5511872999777552,0.11808060001931153,None,None,None,,,,,,,,,,,1,0,1,0,0,41,41,41,688.2494997000031,,,,,,,,,,,,,,,,,,,,,,,,,,,,,,,,,,,,,,688.2168291000125,688.2168735000014,688.2477803000074,688.2494997000031,688.2494997000031,688.2494997000031,688.2494997000031,691.2498637000099,691.2498637000099,692.2328449999914,1,1,0.5511872999777552,0.11808060001931153,None,692.2329165000119,692.2329368999926,None,692.2329598999931,692.2329769000062,None,,,,,,,,,,,,,5,1,0,0,2025-02-20_11h03.32.934,rtmindeye,2024.2.4,60.08203601412857,2025-02-20 11h17.34.938960 -0500
all_stimuli/special515/special_53152.jpg,42,0,42,42,0,,,,,,0,0,1,1,1,"[9, 21, 31, 45, 56, 68, 69]",2,0,0.8386505999951623,0.17215659999055788,None,None,None,,,,,,,,,,,1,0,1,0,0,42,42,42,692.2610821999842,,,,,,,,,,,,,,,,,,,,,,,,,,,,,,,,,,,,,,692.2331382,692.2331826000009,692.2591608,692.2610821999842,692.2610821999842,692.2610821999842,692.2610821999842,695.2665477000119,695.2665477000119,696.2332453000126,2,0,0.8386505999951623,0.17215659999055788,None,696.2333174000087,696.2333377999894,None,696.2333617999975,696.2333794,None,,,,,,,,,,,,,5,1,0,0,2025-02-20_11h03.32.934,rtmindeye,2024.2.4,60.08203601412857,2025-02-20 11h17.34.938960 -0500
all_stimuli/special515/special_19933.jpg,43,0,43,43,0,,,,,,1,0,1,1,1,"[9, 21, 31, 45, 56, 68, 69]",1,0,0.9022710999997798,0.19121819999418221,None,None,None,,,,,,,,,,,1,0,1,0,0,43,43,43,696.2494792999933,,,,,,,,,,,,,,,,,,,,,,,,,,,,,,,,,,,,,,696.2335391000088,696.2335870999959,696.2472535000124,696.2494792999933,696.2494792999933,696.2494792999933,696.2494792999933,699.2497058000008,699.2497058000008,700.2331451000064,1,0,0.9022710999997798,0.19121819999418221,None,700.2332105000096,700.2332303999865,None,700.2332534,700.2332704,None,700.2776208,700.2776208,,,,,,,,,,,5,1,0,0,2025-02-20_11h03.32.934,rtmindeye,2024.2.4,60.08203601412857,2025-02-20 11h17.34.938960 -0500
all_stimuli/special515/special_24214.jpg,44,0,44,44,0,,,,,,0,0,1,1,1,"[9, 21, 31, 45, 56, 68, 69]",1,1,0.6771813999803271,0.13408089999575168,None,None,None,,,,,,,,,,,1,0,1,0,0,44,44,44,700.2776208,,,,,,,,,,,,,,,,,,,,,,,,,,,,,,,,,,,,,,700.2334231999994,700.2334616000007,700.2758914000005,700.2776208,700.2776208,700.2776208,700.2776208,703.2832672999939,703.2832672999939,704.2497224000108,1,1,0.6771813999803271,0.13408089999575168,None,704.2497951000114,704.2498159999959,None,704.2498405000078,704.2498581999971,None,,,,,,,,,,,,,5,1,0,0,2025-02-20_11h03.32.934,rtmindeye,2024.2.4,60.08203601412857,2025-02-20 11h17.34.938960 -0500
blank.jpg,45,1,45,45,0,,,,,,0,0,1,1,1,"[9, 21, 31, 45, 56, 68, 69]",None,0,,,None,None,None,,,,,,,,,,,1,0,1,0,0,45,45,45,704.2663043999928,,,,,,,,,,,,,,,,,,,,,,,,,,,,,,,,,,,,,,704.2500198000052,704.2500644999964,704.2593332,704.2663043999928,704.2663043999928,704.2663043999928,704.2663043999928,707.2664052000036,707.2664052000036,708.2500701000099,None,0,,,None,708.2501289999927,708.2501488999987,None,708.250172,708.2501890999847,None,708.2745812000067,708.2745812000067,,,,,,,,,,,5,1,0,0,2025-02-20_11h03.32.934,rtmindeye,2024.2.4,60.08203601412857,2025-02-20 11h17.34.938960 -0500
all_stimuli/special515/special_57838.jpg,46,0,46,46,0,,,,,,0,0,1,1,1,"[9, 21, 31, 45, 56, 68, 69]",1,1,0.5723385000019334,0.13400710001587868,None,None,None,,,,,,,,,,,1,0,1,0,0,46,46,46,708.2745812000067,,,,,,,,,,,,,,,,,,,,,,,,,,,,,,,,,,,,,,708.2503421999863,708.2503800999839,708.2727914999996,708.2745812000067,708.2745812000067,708.2745812000067,708.2745812000067,711.2833052999922,711.2833052999922,712.2666559999925,1,1,0.5723385000019334,0.13400710001587868,None,712.2667263000039,712.2667468999862,None,712.2667706,712.2667883000104,None,,,,,,,,,,,,,5,1,0,0,2025-02-20_11h03.32.934,rtmindeye,2024.2.4,60.08203601412857,2025-02-20 11h17.34.938960 -0500
all_stimuli/special515/special_28068.jpg,47,0,47,47,0,,,,,,0,0,1,1,1,"[9, 21, 31, 45, 56, 68, 69]",1,1,0.5848513999953866,0.15088070000638254,None,None,None,,,,,,,,,,,1,0,1,0,0,47,47,47,712.2900659999868,,,,,,,,,,,,,,,,,,,,,,,,,,,,,,,,,,,,,,712.2669470999972,712.2669912000129,712.2882175999985,712.2900659999868,712.2900659999868,712.2900659999868,712.2900659999868,715.2998498000088,715.2998498000088,716.2831526999944,1,1,0.5848513999953866,0.15088070000638254,None,716.2832256999973,716.2832467000117,None,716.2832711999945,716.2832905999967,None,,,,,,,,,,,,,5,1,0,0,2025-02-20_11h03.32.934,rtmindeye,2024.2.4,60.08203601412857,2025-02-20 11h17.34.938960 -0500
all_stimuli/special515/special_12796.jpg,48,0,48,48,0,,,,,,0,0,1,1,1,"[9, 21, 31, 45, 56, 68, 69]",1,1,0.6512358999752905,0.14191650002612732,None,None,None,,,,,,,,,,,1,0,1,0,0,48,48,48,716.3425964000053,,,,,,,,,,,,,,,,,,,,,,,,,,,,,,,,,,,,,,716.2834567,716.2835016000026,716.3407158000045,716.3425964000053,716.3425964000053,716.3425964000053,716.3425964000053,719.3495991000091,719.3495991000091,720.2997553999885,1,1,0.6512358999752905,0.14191650002612732,None,720.2998253999976,720.2998458000075,None,720.29987,720.2998875000048,None,,,,,,,,,,,,,5,1,0,0,2025-02-20_11h03.32.934,rtmindeye,2024.2.4,60.08203601412857,2025-02-20 11h17.34.938960 -0500
all_stimuli/shared1000_notspecial/notspecial_57906.png,49,0,49,49,0,,,,,,0,0,1,1,1,"[9, 21, 31, 45, 56, 68, 69]",1,1,0.5727886999957263,0.13908260001335293,None,None,None,,,,,,,,,,,1,0,1,0,0,49,49,49,720.3309845,,,,,,,,,,,,,,,,,,,,,,,,,,,,,,,,,,,,,,720.3000467999955,720.3000915999874,720.3292711999966,720.3309845,720.3309845,720.3309845,720.3309845,723.3329706999939,723.3329706999939,724.3163684000028,1,1,0.5727886999957263,0.13908260001335293,None,724.3164405999996,724.3164609000087,None,724.3164848999877,724.3165021000023,None,,,,,,,,,,,,,5,1,0,0,2025-02-20_11h03.32.934,rtmindeye,2024.2.4,60.08203601412857,2025-02-20 11h17.34.938960 -0500
all_stimuli/MST_pairs/pair_9_13_44.png,50,0,50,50,0,,,,,,0,0,1,1,1,"[9, 21, 31, 45, 56, 68, 69]",1,1,0.6678696000017226,0.13782969999010675,None,None,None,,,,,,,,,,,1,0,1,0,0,50,50,50,724.3449868999887,,,,,,,,,,,,,,,,,,,,,,,,,,,,,,,,,,,,,,724.3166618999967,724.3167061,724.3433092999912,724.3449868999887,724.3449868999887,724.3449868999887,724.3449868999887,727.3496488000092,727.3496488000092,728.3331806999922,1,1,0.6678696000017226,0.13782969999010675,None,728.3332540999982,728.3332748000103,None,728.3332995999954,728.3333171000122,None,,,,,,,,,,,,,5,1,0,0,2025-02-20_11h03.32.934,rtmindeye,2024.2.4,60.08203601412857,2025-02-20 11h17.34.938960 -0500
all_stimuli/special515/special_64867.jpg,51,0,51,51,0,,,,,,0,0,1,1,1,"[9, 21, 31, 45, 56, 68, 69]",1,1,0.5347774999972899,0.1409871999931056,None,None,None,,,,,,,,,,,1,0,1,0,0,51,51,51,728.3711514000024,,,,,,,,,,,,,,,,,,,,,,,,,,,,,,,,,,,,,,728.3334901999915,728.3335353999864,728.3694277000031,728.3711514000024,728.3711514000024,728.3711514000024,728.3711514000024,731.3829447,731.3829447,732.3498480999842,1,1,0.5347774999972899,0.1409871999931056,None,732.3499198000063,732.3499402999878,None,732.3499630999868,732.3499807000044,None,,,,,,,,,,,,,5,1,0,0,2025-02-20_11h03.32.934,rtmindeye,2024.2.4,60.08203601412857,2025-02-20 11h17.34.938960 -0500
all_stimuli/MST_pairs/pair_6_9_56.png,52,0,52,52,0,,,,,,1,0,1,1,1,"[9, 21, 31, 45, 56, 68, 69]",2,1,0.8239705,0.15873279998777434,None,None,None,,,,,,,,,,,1,0,1,0,0,52,52,52,732.3659969999862,,,,,,,,,,,,,,,,,,,,,,,,,,,,,,,,,,,,,,732.3501400999958,732.3501950000064,732.3640195000044,732.3659969999862,732.3659969999862,732.3659969999862,732.3659969999862,735.3664946999925,735.3664946999925,736.3496899,2,1,0.8239705,0.15873279998777434,None,736.3497561000113,736.3497758999874,None,736.3497989,736.3498159,None,736.3777230000123,736.3777230000123,,,,,,,,,,,5,1,0,0,2025-02-20_11h03.32.934,rtmindeye,2024.2.4,60.08203601412857,2025-02-20 11h17.34.938960 -0500
all_stimuli/special515/special_26163.jpg,53,0,53,53,0,,,,,,0,0,1,1,1,"[9, 21, 31, 45, 56, 68, 69]",1,1,0.6850875999953132,0.11804800000390969,None,None,None,,,,,,,,,,,1,0,1,0,0,53,53,53,736.3777230000123,,,,,,,,,,,,,,,,,,,,,,,,,,,,,,,,,,,,,,736.3499752999924,736.3500136,736.3760036999884,736.3777230000123,736.3777230000123,736.3777230000123,736.3777230000123,739.3831236000115,739.3831236000115,740.3664395000087,1,1,0.6850875999953132,0.11804800000390969,None,740.3665116000047,740.3665319999855,None,740.3665563999966,740.3665739999851,None,,,,,,,,,,,,,5,1,0,0,2025-02-20_11h03.32.934,rtmindeye,2024.2.4,60.08203601412857,2025-02-20 11h17.34.938960 -0500
all_stimuli/shared1000_notspecial/notspecial_56126.png,54,0,54,54,0,,,,,,0,0,1,1,1,"[9, 21, 31, 45, 56, 68, 69]",1,1,0.9264774000039324,0.2807907999958843,None,None,None,,,,,,,,,,,1,0,1,0,0,54,54,54,740.4004039999854,,,,,,,,,,,,,,,,,,,,,,,,,,,,,,,,,,,,,,740.3667392999923,740.3667838,740.3988259999896,740.4004039999854,740.4004039999854,740.4004039999854,740.4004039999854,743.3994702000055,743.3994702000055,744.3830495000002,1,1,0.9264774000039324,0.2807907999958843,None,744.3831197000109,744.3831401999923,None,744.3831635999959,744.3831806000089,None,,,,,,,,,,,,,5,1,0,0,2025-02-20_11h03.32.934,rtmindeye,2024.2.4,60.08203601412857,2025-02-20 11h17.34.938960 -0500
all_stimuli/special515/special_25318.jpg,55,0,55,55,0,,,,,,0,0,1,1,1,"[9, 21, 31, 45, 56, 68, 69]",1,1,0.6890605000080541,0.12973909999709576,None,None,None,,,,,,,,,,,1,0,1,0,0,55,55,55,744.401893,,,,,,,,,,,,,,,,,,,,,,,,,,,,,,,,,,,,,,744.3833409000072,744.3833855999983,744.4000917999947,744.401893,744.401893,744.401893,744.401893,747.4161927000096,747.4161927000096,748.3995683999965,1,1,0.6890605000080541,0.12973909999709576,None,748.3996400999895,748.3996607000008,None,748.3996848000097,748.3997016999929,None,,,,,,,,,,,,,5,1,0,0,2025-02-20_11h03.32.934,rtmindeye,2024.2.4,60.08203601412857,2025-02-20 11h17.34.938960 -0500
blank.jpg,56,1,56,56,0,,,,,,0,0,1,1,1,"[9, 21, 31, 45, 56, 68, 69]",None,0,,,None,None,None,,,,,,,,,,,1,0,1,0,0,56,56,56,748.4166978999856,,,,,,,,,,,,,,,,,,,,,,,,,,,,,,,,,,,,,,748.3998693999893,748.3999138000072,748.4084111,748.4166978999856,748.4166978999856,748.4166978999856,748.4166978999856,751.4162277,751.4162277,752.3997450000024,None,0,,,None,752.3998043999891,752.3998246999981,None,752.3998475999979,752.3998645000102,None,752.4274319,752.4274319,,,,,,,,,,,5,1,0,0,2025-02-20_11h03.32.934,rtmindeye,2024.2.4,60.08203601412857,2025-02-20 11h17.34.938960 -0500
all_stimuli/shared1000_notspecial/notspecial_9230.png,57,0,57,57,0,,,,,,0,0,1,1,1,"[9, 21, 31, 45, 56, 68, 69]",1,1,0.6242173000064213,0.2641908999939915,None,None,None,,,,,,,,,,,1,0,1,0,0,57,57,57,752.4274319,,,,,,,,,,,,,,,,,,,,,,,,,,,,,,,,,,,,,,752.4000179,752.4000595000107,752.4258210000116,752.4274319,752.4274319,752.4274319,752.4274319,755.4332029999932,755.4332029999932,756.4162756000005,1,1,0.6242173000064213,0.2641908999939915,None,756.4163468999905,756.4163676000026,None,756.4163906000031,756.4164078999893,None,,,,,,,,,,,,,5,1,0,0,2025-02-20_11h03.32.934,rtmindeye,2024.2.4,60.08203601412857,2025-02-20 11h17.34.938960 -0500
all_stimuli/special515/special_32891.jpg,58,0,58,58,0,,,,,,0,0,1,1,1,"[9, 21, 31, 45, 56, 68, 69]",1,1,0.5267767000186723,0.1450182999833487,None,None,None,,,,,,,,,,,1,0,1,0,0,58,58,58,756.4390452,,,,,,,,,,,,,,,,,,,,,,,,,,,,,,,,,,,,,,756.4165697,756.4166168000083,756.4373240999994,756.4390452,756.4390452,756.4390452,756.4390452,759.4495681000117,759.4495681000117,760.4328848999867,1,1,0.5267767000186723,0.1450182999833487,None,760.4329566000088,760.4329768999887,None,760.4330008999968,760.4330183999846,None,,,,,,,,,,,,,5,1,0,0,2025-02-20_11h03.32.934,rtmindeye,2024.2.4,60.08203601412857,2025-02-20 11h17.34.938960 -0500
all_stimuli/shared1000_notspecial/notspecial_65187.png,59,0,59,59,0,,,,,,0,0,1,1,1,"[9, 21, 31, 45, 56, 68, 69]",1,1,0.6764458999969065,0.12827370001468807,None,None,None,,,,,,,,,,,1,0,1,0,0,59,59,59,760.4721759000095,,,,,,,,,,,,,,,,,,,,,,,,,,,,,,,,,,,,,,760.4331879999954,760.4332325999858,760.4705702000065,760.4721759000095,760.4721759000095,760.4721759000095,760.4721759000095,763.4830834000022,763.4830834000022,764.4496599999839,1,1,0.6764458999969065,0.12827370001468807,None,764.4497313000029,764.4497519999859,None,764.4497752999887,764.449793,None,,,,,,,,,,,,,5,1,0,0,2025-02-20_11h03.32.934,rtmindeye,2024.2.4,60.08203601412857,2025-02-20 11h17.34.938960 -0500
all_stimuli/special515/special_4690.jpg,60,0,60,60,0,,,,,,0,0,1,1,1,"[9, 21, 31, 45, 56, 68, 69]",1,1,0.9445937999989837,0.13981880000210367,None,None,None,,,,,,,,,,,1,0,1,0,0,60,60,60,764.4843129999936,,,,,,,,,,,,,,,,,,,,,,,,,,,,,,,,,,,,,,764.4499553999922,764.4499999000109,764.4825658999907,764.4843129999936,764.4843129999936,764.4843129999936,764.4843129999936,767.4993096000107,767.4993096000107,768.4663402,1,1,0.9445937999989837,0.13981880000210367,None,768.4664116000058,768.4664319999865,None,768.4664555999916,768.4664730000077,None,,,,,,,,,,,,,5,1,0,0,2025-02-20_11h03.32.934,rtmindeye,2024.2.4,60.08203601412857,2025-02-20 11h17.34.938960 -0500
all_stimuli/shared1000_notspecial/notspecial_36258.png,61,0,61,61,0,,,,,,0,0,1,1,1,"[9, 21, 31, 45, 56, 68, 69]",1,1,0.7269917999801692,0.1350635999988299,None,None,None,,,,,,,,,,,1,0,1,0,0,61,61,61,768.5066831999866,,,,,,,,,,,,,,,,,,,,,,,,,,,,,,,,,,,,,,768.4666339000105,768.4666777999955,768.5050917000044,768.5066831999866,768.5066831999866,768.5066831999866,768.5066831999866,771.5161978,771.5161978,772.4831023000006,1,1,0.7269917999801692,0.1350635999988299,None,772.4831743999966,772.4831942000019,None,772.4832171000016,772.4832339,None,,,,,,,,,,,,,5,1,0,0,2025-02-20_11h03.32.934,rtmindeye,2024.2.4,60.08203601412857,2025-02-20 11h17.34.938960 -0500
all_stimuli/special515/special_13138.jpg,62,0,62,62,0,,,,,,0,0,1,1,1,"[9, 21, 31, 45, 56, 68, 69]",1,1,0.48237220000009984,0.12701550000929274,None,None,None,,,,,,,,,,,1,0,1,0,0,62,62,62,772.5144839,,,,,,,,,,,,,,,,,,,,,,,,,,,,,,,,,,,,,,772.4833986999874,772.4834428000031,772.5126312999928,772.5144839,772.5144839,772.5144839,772.5144839,775.5167018999928,775.5167018999928,776.4994573000004,1,1,0.48237220000009984,0.12701550000929274,None,776.4995287999918,776.4995496000047,None,776.4995733000105,776.4995906999975,None,,,,,,,,,,,,,5,1,0,0,2025-02-20_11h03.32.934,rtmindeye,2024.2.4,60.08203601412857,2025-02-20 11h17.34.938960 -0500
all_stimuli/special515/special_38025.jpg,63,0,63,63,0,,,,,,0,0,1,1,1,"[9, 21, 31, 45, 56, 68, 69]",1,1,0.6279741999751423,0.15684860001783818,None,None,None,,,,,,,,,,,1,0,1,0,0,63,63,63,776.5498685000057,,,,,,,,,,,,,,,,,,,,,,,,,,,,,,,,,,,,,,776.4997513,776.4997957999876,776.5481680000084,776.5498685000057,776.5498685000057,776.5498685000057,776.5498685000057,779.5495459999947,779.5495459999947,780.5163370000082,1,1,0.6279741999751423,0.15684860001783818,None,780.5164075,780.5164281000034,None,780.5164520000108,780.5164742000052,None,,,,,,,,,,,,,5,1,0,0,2025-02-20_11h03.32.934,rtmindeye,2024.2.4,60.08203601412857,2025-02-20 11h17.34.938960 -0500
all_stimuli/special515/special_16702.jpg,64,0,64,64,0,,,,,,0,0,1,1,1,"[9, 21, 31, 45, 56, 68, 69]",1,1,0.6520993000012822,0.12992330000270158,None,None,None,,,,,,,,,,,1,0,1,0,0,64,64,64,780.5457592000021,,,,,,,,,,,,,,,,,,,,,,,,,,,,,,,,,,,,,,780.5166371999949,780.5166815,780.5439062000078,780.5457592000021,780.5457592000021,780.5457592000021,780.5457592000021,783.5499445000023,783.5499445000023,784.5331661000091,1,1,0.6520993000012822,0.12992330000270158,None,784.5332416000019,784.5332627,None,784.5332875000022,784.5333046999876,None,,,,,,,,,,,,,5,1,0,0,2025-02-20_11h03.32.934,rtmindeye,2024.2.4,60.08203601412857,2025-02-20 11h17.34.938960 -0500
all_stimuli/special515/special_62228.jpg,65,0,65,65,0,,,,,,0,0,1,1,1,"[9, 21, 31, 45, 56, 68, 69]",1,1,0.5512216000061017,0.11806720000458881,None,None,None,,,,,,,,,,,1,0,1,0,0,65,65,65,784.5565835000016,,,,,,,,,,,,,,,,,,,,,,,,,,,,,,,,,,,,,,784.5334699999948,784.5335139,784.5543958999915,784.5565835000016,784.5565835000016,784.5565835000016,784.5565835000016,787.5663178999966,787.5663178999966,788.5495295999863,1,1,0.5512216000061017,0.11806720000458881,None,788.5496026999899,788.5496237000043,None,788.5496473000094,788.5496649999986,None,,,,,,,,,,,,,5,1,0,0,2025-02-20_11h03.32.934,rtmindeye,2024.2.4,60.08203601412857,2025-02-20 11h17.34.938960 -0500
all_stimuli/special515/special_68278.jpg,66,0,66,66,0,,,,,,0,0,1,1,1,"[9, 21, 31, 45, 56, 68, 69]",1,1,0.6984335999877658,0.13585950000560842,None,None,None,,,,,,,,,,,1,0,1,0,0,66,66,66,788.5814266999951,,,,,,,,,,,,,,,,,,,,,,,,,,,,,,,,,,,,,,788.5498286999937,788.5498741999909,788.5796938999847,788.5814266999951,788.5814266999951,788.5814266999951,788.5814266999951,791.5828582000104,791.5828582000104,792.5662303,1,1,0.6984335999877658,0.13585950000560842,None,792.5663022999943,792.5663229000056,None,792.5663470999862,792.5663651000068,None,,,,,,,,,,,,,5,1,0,0,2025-02-20_11h03.32.934,rtmindeye,2024.2.4,60.08203601412857,2025-02-20 11h17.34.938960 -0500
all_stimuli/special515/special_18543.jpg,67,0,67,67,0,,,,,,0,0,1,1,1,"[9, 21, 31, 45, 56, 68, 69]",1,1,1.0140145000186749,0.12492489998112433,None,None,None,,,,,,,,,,,1,0,1,0,0,67,67,67,792.5977545999922,,,,,,,,,,,,,,,,,,,,,,,,,,,,,,,,,,,,,,792.5665279,792.5665759000112,792.5959003,792.5977545999922,792.5977545999922,792.5977545999922,792.5977545999922,795.5996430999949,795.5996430999949,796.5828042000066,1,1,1.0140145000186749,0.12492489998112433,None,796.5828765000042,796.5828969999857,None,796.5829216999991,796.5829391999869,None,,,,,,,,,,,,,5,1,0,0,2025-02-20_11h03.32.934,rtmindeye,2024.2.4,60.08203601412857,2025-02-20 11h17.34.938960 -0500
