current_image,trial_index,is_blank_trial,thisN,thisTrialN,thisRepN,press_if_repeat_2.keys,press_if_repeat_2.corr,all_keys_pressed_2.keys,press_if_repeat_2.rt,press_if_repeat_2.duration,is_repeat,is_new_run,run_num,sess_num,is_not_last_trial,all_blanks_list,press_if_repeat.keys,press_if_repeat.corr,press_if_repeat.rt,press_if_repeat.duration,all_keys_pressed.keys,key_resp_5.keys,key_resp_4.keys,key_resp_5.rt,key_resp_5.duration,key_resp_4.rt,key_resp_4.duration,all_keys_pressed.rt,all_keys_pressed.duration,practice.thisRepN,practice.thisTrialN,practice.thisN,practice.thisIndex,loop_runs.thisRepN,loop_runs.thisTrialN,loop_runs.thisN,loop_runs.thisIndex,loop_all_images.thisRepN,loop_all_images.thisTrialN,loop_all_images.thisN,loop_all_images.thisIndex,thisRow.t,notes,set_up.started,set_up.stopped,practice_continue.started,key_resp_6.started,text_6.started,practice_continue.stopped,key_resp_6.keys,key_resp_6.rt,key_resp_6.duration,practice_trial.started,image_2.started,press_if_repeat_2.started,polygon_3.started,all_keys_pressed_2.started,image_2.stopped,press_if_repeat_2.stopped,practice_trial.stopped,practice.press_if_repeat_2.keys,practice.press_if_repeat_2.corr,practice.all_keys_pressed_2.keys,practice.press_if_repeat_2.rt,practice.press_if_repeat_2.duration,testing_continue.started,key_resp_7.started,text_7.started,testing_continue.stopped,key_resp_7.keys,key_resp_7.rt,key_resp_7.duration,waiting_fmri.started,key_resp_2.started,text_3.started,waiting_fmri.stopped,key_resp_2.keys,key_resp_2.rt,key_resp_2.duration,set_skips_and_correct_key.started,set_skips_and_correct_key.stopped,trial.started,image.started,press_if_repeat.started,polygon.started,all_keys_pressed.started,image.stopped,press_if_repeat.stopped,trial.stopped,loop_all_images.press_if_repeat.keys,loop_all_images.press_if_repeat.corr,loop_all_images.press_if_repeat.rt,loop_all_images.press_if_repeat.duration,loop_all_images.all_keys_pressed.keys,run_wait2_2.started,run_wait2_2.stopped,loop_all_images.key_resp_5.keys,waiting_fmri_2.started,waiting_fmri_2.stopped,loop_all_images.key_resp_4.keys,key_resp_5.started,text_5.started,loop_all_images.key_resp_5.rt,loop_all_images.key_resp_5.duration,key_resp_4.started,text_4.started,loop_all_images.key_resp_4.rt,loop_all_images.key_resp_4.duration,loop_all_images.all_keys_pressed.rt,loop_all_images.all_keys_pressed.duration,participant,session (1 2 or 3),starting_run,skip_practice,date,expName,psychopyVersion,frameRate,expStart,
,,,,,,,,,,,,,,,,,,,,,,,,,,,,,,,,,,,,,,,,,,,,0.004180167001322843,0.004254625004250556,,,,,,,,,,,,,,,,,,,,,,,,,,,,,,,,,,,,,,,,,,,,,,,,,,,,,,,,,,,,,,,,,,4,5,0,0,2025-02-06_12h23.14.618,rtmindeye,2024.2.4,None,2025-02-06 12h23.39.940222 -0500,
,,,,,,,,,,,,,,,,,,,,,,,,,,,,,,,,,,,,,,,,,,,,,,0.00944283400895074,0.014801750003243797,0.014801750003243797,2.1373051250120625,1,2.0254342909902334,None,,,,,,,,,,,,,,,,,,,,,,,,,,,,,,,,,,,,,,,,,,,,,,,,,,,,,,,,,,,4,5,0,0,2025-02-06_12h23.14.618,rtmindeye,2024.2.4,None,2025-02-06 12h23.39.940222 -0500,
practice_images/w_kitchen2.jpg,0,0,0,0,0,None,0,None,,,,,,,,,,,,,,,,,,,,,,0,0,0,0,,,,,,,,,2.377908792012022,,,,,,,,,,,2.3686032500118017,2.377908792012022,2.377908792012022,2.377908792012022,2.377908792012022,5.3645175420097075,5.3645175420097075,6.144444250006927,None,0,None,,,,,,,,,,,,,,,,,,,,,,,,,,,,,,,,,,,,,,,,,,,,,,,,4,5,0,0,2025-02-06_12h23.14.618,rtmindeye,2024.2.4,None,2025-02-06 12h23.39.940222 -0500,
practice_images/w_boardwalk2.jpg,1,0,1,1,0,None,0,None,,,,,,,,,,,,,,,,,,,,,,0,1,1,1,,,,,,,,,6.295823209002265,,,,,,,,,,,6.292244500000379,6.295823209002265,6.295823209002265,6.295823209002265,6.295823209002265,9.294514500012156,9.294514500012156,10.144521334004821,None,0,None,,,,,,,,,,,,,,,,,,,,,,,,,,,,,,,,,,,,,,,,,,,,,,,,4,5,0,0,2025-02-06_12h23.14.618,rtmindeye,2024.2.4,None,2025-02-06 12h23.39.940222 -0500,
practice_images/w_monument2.jpg,2,0,2,2,0,None,0,None,,,,,,,,,,,,,,,,,,,,,,0,2,2,2,,,,,,,,,10.266579041999648,,,,,,,,,,,10.262725874999887,10.266579041999648,10.266579041999648,10.266579041999648,10.266579041999648,13.26176041700819,13.26176041700819,14.146026292000897,None,0,None,,,,,,,,,,,,,,,,,,,,,,,,,,,,,,,,,,,,,,,,,,,,,,,,4,5,0,0,2025-02-06_12h23.14.618,rtmindeye,2024.2.4,None,2025-02-06 12h23.39.940222 -0500,
practice_images/w_auditorium2.jpg,3,0,3,3,0,None,0,None,,,,,,,,,,,,,,,,,,,,,,0,3,3,3,,,,,,,,,14.290508625010261,,,,,,,,,,,14.284515167004429,14.290508625010261,14.290508625010261,14.290508625010261,14.290508625010261,17.28209520901146,17.28209520901146,18.145655584012275,None,0,None,,,,,,,,,,,,,,,,,,,,,,,,,,,,,,,,,,,,,,,,,,,,,,,,4,5,0,0,2025-02-06_12h23.14.618,rtmindeye,2024.2.4,None,2025-02-06 12h23.39.940222 -0500,
practice_images/w_kitchen2.jpg,4,0,4,4,0,2,0,None,1.0422014989890158,0.36099975000252016,,,,,,,,,,,,,,,,,,,,0,4,4,4,,,,,,,,,18.192993792006746,,,,,,,,,,,18.18923841700598,18.192993792006746,18.192993792006746,18.192993792006746,18.192993792006746,21.183904000004986,21.183904000004986,22.145606083999155,2,0,None,1.0422014989890158,0.36099975000252016,,,,,,,,,,,,,,,,,,,,,,,,,,,,,,,,,,,,,,,,,,,,,,4,5,0,0,2025-02-06_12h23.14.618,rtmindeye,2024.2.4,None,2025-02-06 12h23.39.940222 -0500,
practice_images/w_auditorium1.jpg,5,0,5,5,0,1,0,None,0.9837143330078106,0.5760158749908442,,,,,,,,,,,,,,,,,,,,0,5,5,5,,,,,,,,,22.296507874998497,,,,,,,,,,,22.291730500000995,22.296507874998497,22.296507874998497,22.296507874998497,22.296507874998497,25.294988917012233,25.294988917012233,26.145582124998327,1,0,None,0.9837143330078106,0.5760158749908442,,,,,,,,,,,,,,,,,,,,,,,,,,,,,,,,,,,,,,,,,,,,,,4,5,0,0,2025-02-06_12h23.14.618,rtmindeye,2024.2.4,None,2025-02-06 12h23.39.940222 -0500,
practice_images/w_bedroom2.jpg,6,0,6,6,0,1,0,None,0.8255179160041735,0.7479242090048501,,,,,,,,,,,,,,,,,,,,0,6,6,6,,,,,,,,,26.279591417012853,,,,,,,,,,,26.273920042003738,26.279591417012853,26.279591417012853,26.279591417012853,26.279591417012853,29.2782979170006,29.2782979170006,30.144963042010204,1,0,None,0.8255179160041735,0.7479242090048501,,,,,,,,,,,,,,,,,,,,,,,,,,,,,,,,,,,,,,,,,,,,,,4,5,0,0,2025-02-06_12h23.14.618,rtmindeye,2024.2.4,None,2025-02-06 12h23.39.940222 -0500,
practice_images/w_kitchen1.jpg,7,0,7,7,0,2,0,None,0.8005789580056444,0.37500775000080466,,,,,,,,,,,,,,,,,,,,0,7,7,7,,,,,,,,,30.4105802920094,,,,,,,,,,,30.4045150840102,30.4105802920094,30.4105802920094,30.4105802920094,30.4105802920094,33.39837950000947,33.39837950000947,34.14530520900735,2,0,None,0.8005789580056444,0.37500775000080466,,,,,,,,,,,,,,,,,,,,,,,,,,,,,,,,,,,,,,,,,,,,,,4,5,0,0,2025-02-06_12h23.14.618,rtmindeye,2024.2.4,None,2025-02-06 12h23.39.940222 -0500,
practice_images/w_bedroom1.jpg,8,0,8,8,0,2,0,None,1.0782784999901196,0.3069747080007801,,,,,,,,,,,,,,,,,,,,0,8,8,8,,,,,,,,,34.276896834009676,,,,,,,,,,,34.271387500004494,34.276896834009676,34.276896834009676,34.276896834009676,34.276896834009676,37.266746000008425,37.266746000008425,38.1452702920069,2,0,None,1.0782784999901196,0.3069747080007801,,,,,,,,,,,,,,,,,,,,,,,,,,,,,,,,,,,,,,,,,,,,,,4,5,0,0,2025-02-06_12h23.14.618,rtmindeye,2024.2.4,None,2025-02-06 12h23.39.940222 -0500,
practice_images/w_monument2.jpg,9,0,9,9,0,2,0,None,1.2219717489933828,0.37198645899479743,,,,,,,,,,,,,,,,,,,,0,9,9,9,,,,,,,,,38.216209209000226,,,,,,,,,,,38.21061933400051,38.216209209000226,38.216209209000226,38.216209209000226,38.216209209000226,41.211538709001616,41.211538709001616,42.14500758401118,2,0,None,1.2219717489933828,0.37198645899479743,,,,,,,,,,,,,,,,,,,,,,,,,,,,,,,,,,,,,,,,,,,,,,4,5,0,0,2025-02-06_12h23.14.618,rtmindeye,2024.2.4,None,2025-02-06 12h23.39.940222 -0500,
,,,,,,,,,,,,,,,,,,,,,,,,,,,,,,,,,,,,,,,,,,,,,,,,,,,,,,,,,,,,,,,,,,42.161369250010466,42.16568679201009,42.16568679201009,64.1962312500109,1,22.02864924899768,None,,,,,,,,,,,,,,,,,,,,,,,,,,,,,,,,,,,,,,,4,5,0,0,2025-02-06_12h23.14.618,rtmindeye,2024.2.4,None,2025-02-06 12h23.39.940222 -0500,
,,,,,,,,,,,,,,,,,,,,,,,,,,,,,,,,,,,,,,,,,,,,,,,,,,,,,,,,,,,,,,,,,,,,,,,,,64.19633170901216,64.20296141700237,64.20296141700237,199.81524645900936,equal,135.6086737079895,None,,,,,,,,,,,,,,,,,,,,,,,,,,,,,,,,4,5,0,0,2025-02-06_12h23.14.618,rtmindeye,2024.2.4,None,2025-02-06 12h23.39.940222 -0500,
all_stimuli/special515/special_13613.jpg,0,0,0,0,0,,,,,,0,0,0,5,1,"[9, 21, 31, 45, 56, 68, 69]",1,1,1.0236707080039196,0.5519430830026977,None,None,None,,,,,,,,,,,0,0,0,0,0,0,0,0,200.14384287501161,,,,,,,,,,,,,,,,,,,,,,,,,,,,,,,,,,,,,,199.95232595900598,199.95307604200207,200.1330083339999,200.14384287501161,200.14384287501161,200.14384287501161,200.14384287501161,203.13252533400373,203.13252533400373,203.96212195900443,1,1,1.0236707080039196,0.5519430830026977,None,203.96245525000268,203.962569292009,None,203.96273199999996,203.96281087500392,None,,,,,,,,,,,4,5,0,0,2025-02-06_12h23.14.618,rtmindeye,2024.2.4,None,2025-02-06 12h23.39.940222 -0500,
all_stimuli/shared1000_notspecial/notspecial_31049.png,1,0,1,1,0,,,,,,0,0,0,5,1,"[9, 21, 31, 45, 56, 68, 69]",1,1,0.6462576240010094,0.6959794169961242,None,None,None,,,,,,,,,,,0,0,0,0,0,1,1,1,204.1362928340095,,,,,,,,,,,,,,,,,,,,,,,,,,,,,,,,,,,,,,203.9634831250005,203.96384729200508,204.13299454200023,204.1362928340095,204.1362928340095,204.1362928340095,204.1362928340095,207.1328116250079,207.1328116250079,207.96620195900323,1,1,0.6462576240010094,0.6959794169961242,None,207.96634854200238,207.9663849589997,None,207.96644554199884,207.9664773340046,None,,,,,,,,,,,4,5,0,0,2025-02-06_12h23.14.618,rtmindeye,2024.2.4,None,2025-02-06 12h23.39.940222 -0500,
all_stimuli/special515/special_28096.jpg,2,0,2,2,0,,,,,,0,0,0,5,1,"[9, 21, 31, 45, 56, 68, 69]",1,1,0.7741937910031993,0.4179334999935236,None,None,None,,,,,,,,,,,0,0,0,0,0,2,2,2,208.12428670900408,,,,,,,,,,,,,,,,,,,,,,,,,,,,,,,,,,,,,,207.966846292009,207.96701025000948,208.1192082500056,208.12428670900408,208.12428670900408,208.12428670900408,208.12428670900408,211.1156836250011,211.1156836250011,211.9787949169986,1,1,0.7741937910031993,0.4179334999935236,None,211.9790572089987,211.97915079200175,None,211.97922291701252,211.97928174999834,None,,,,,,,,,,,4,5,0,0,2025-02-06_12h23.14.618,rtmindeye,2024.2.4,None,2025-02-06 12h23.39.940222 -0500,
all_stimuli/shared1000_notspecial/notspecial_68471.png,3,0,3,3,0,,,,,,0,0,0,5,1,"[9, 21, 31, 45, 56, 68, 69]",1,1,0.7794806659949245,0.29400495800655335,None,None,None,,,,,,,,,,,0,0,0,0,0,3,3,3,212.16103479200683,,,,,,,,,,,,,,,,,,,,,,,,,,,,,,,,,,,,,,211.97981954200077,211.98001016701164,212.1558445420087,212.16103479200683,212.16103479200683,212.16103479200683,212.16103479200683,215.14986145900912,215.14986145900912,215.98346037500596,1,1,0.7794806659949245,0.29400495800655335,None,215.98364308400778,215.98368595899956,None,215.98374904200318,215.98378624999896,None,,,,,,,,,,,4,5,0,0,2025-02-06_12h23.14.618,rtmindeye,2024.2.4,None,2025-02-06 12h23.39.940222 -0500,
all_stimuli/special515/special_15506.jpg,4,0,4,4,0,,,,,,0,0,0,5,1,"[9, 21, 31, 45, 56, 68, 69]",1,1,0.8440855820081197,0.48598320900055114,None,None,None,,,,,,,,,,,0,0,0,0,0,4,4,4,216.13144954200834,,,,,,,,,,,,,,,,,,,,,,,,,,,,,,,,,,,,,,215.98423783401086,215.98445975000504,216.12682045900146,216.13144954200834,216.13144954200834,216.13144954200834,216.13144954200834,219.12876783400134,219.12876783400134,219.99560612501227,1,1,0.8440855820081197,0.48598320900055114,None,219.995964583999,219.99604637500306,None,219.9962322920037,219.99630441699992,None,,,,,,,,,,,4,5,0,0,2025-02-06_12h23.14.618,rtmindeye,2024.2.4,None,2025-02-06 12h23.39.940222 -0500,
all_stimuli/MST_pairs1/pair_24_nsd_158_1_cocoid_2285.png,5,0,5,5,0,,,,,,0,0,0,5,1,"[9, 21, 31, 45, 56, 68, 69]",1,1,0.833069083004375,0.3890780419897055,None,None,None,,,,,,,,,,,0,0,0,0,0,5,5,5,220.2814240000007,,,,,,,,,,,,,,,,,,,,,,,,,,,,,,,,,,,,,,219.99696958401182,219.99726025000564,220.27746120899974,220.2814240000007,220.2814240000007,220.2814240000007,220.2814240000007,223.27854437500355,223.27854437500355,223.99911475001136,1,1,0.833069083004375,0.3890780419897055,None,223.99933912500273,223.9993891250051,None,223.99944887500897,223.9994914590061,None,,,,,,,,,,,4,5,0,0,2025-02-06_12h23.14.618,rtmindeye,2024.2.4,None,2025-02-06 12h23.39.940222 -0500,
all_stimuli/MST_pairs1/pair_10_14_89.png,6,0,6,6,0,,,,,,0,0,0,5,1,"[9, 21, 31, 45, 56, 68, 69]",1,1,0.891190374008147,0.7440917499916395,None,None,None,,,,,,,,,,,0,0,0,0,0,6,6,6,224.1552757090103,,,,,,,,,,,,,,,,,,,,,,,,,,,,,,,,,,,,,,224.0000161670032,224.0002768750128,224.15018537500873,224.1552757090103,224.1552757090103,224.1552757090103,224.1552757090103,227.1490072919987,227.1490072919987,228.01216625000234,1,1,0.891190374008147,0.7440917499916395,None,228.0124227500055,228.0124911669991,None,228.0125946670014,228.0126599590003,None,,,,,,,,,,,4,5,0,0,2025-02-06_12h23.14.618,rtmindeye,2024.2.4,None,2025-02-06 12h23.39.940222 -0500,
all_stimuli/special515/special_62015.jpg,7,0,7,7,0,,,,,,0,0,0,5,1,"[9, 21, 31, 45, 56, 68, 69]",1,1,0.7390338739933213,0.37899675000517163,None,None,None,,,,,,,,,,,0,0,0,0,0,7,7,7,228.16048095900624,,,,,,,,,,,,,,,,,,,,,,,,,,,,,,,,,,,,,,228.01337729200895,228.01364075001038,228.1567979590036,228.16048095900624,228.16048095900624,228.16048095900624,228.16048095900624,231.14968841700465,231.14968841700465,232.01614554200205,1,1,0.7390338739933213,0.37899675000517163,None,232.01632070900814,232.0163615000056,None,232.01641129200289,232.0164431250014,None,,,,,,,,,,,4,5,0,0,2025-02-06_12h23.14.618,rtmindeye,2024.2.4,None,2025-02-06 12h23.39.940222 -0500,
all_stimuli/special515/special_47687.jpg,8,0,8,8,0,,,,,,0,0,0,5,1,"[9, 21, 31, 45, 56, 68, 69]",1,1,0.7762610409990884,0.28396812500432134,None,None,None,,,,,,,,,,,0,0,0,0,0,8,8,8,232.22234995900362,,,,,,,,,,,,,,,,,,,,,,,,,,,,,,,,,,,,,,232.01685504200577,232.01702795900928,232.21841349999886,232.22234995900362,232.22234995900362,232.22234995900362,232.22234995900362,235.21537383399846,235.21537383399846,236.02905137500784,1,1,0.7762610409990884,0.28396812500432134,None,236.02937041700352,236.0294481250021,None,236.02958175000094,236.02968504201272,None,,,,,,,,,,,4,5,0,0,2025-02-06_12h23.14.618,rtmindeye,2024.2.4,None,2025-02-06 12h23.39.940222 -0500,
blank.jpg,9,1,9,9,0,,,,,,0,0,0,5,1,"[9, 21, 31, 45, 56, 68, 69]",None,0,,,None,None,None,,,,,,,,,,,0,0,0,0,0,9,9,9,236.1330481670011,,,,,,,,,,,,,,,,,,,,,,,,,,,,,,,,,,,,,,236.03038616701087,236.03077495899925,236.12753712500853,236.1330481670011,236.1330481670011,236.1330481670011,236.1330481670011,239.12860775001172,239.12860775001172,240.03316929200082,None,0,,,None,240.03331441699993,240.0333543750021,None,240.03340266700252,240.0334392920049,None,,,,,,,,,,,4,5,0,0,2025-02-06_12h23.14.618,rtmindeye,2024.2.4,None,2025-02-06 12h23.39.940222 -0500,
all_stimuli/special515/special_4249.jpg,10,0,10,10,0,,,,,,0,0,0,5,1,"[9, 21, 31, 45, 56, 68, 69]",1,1,0.8066974989924347,0.8379489590006415,None,None,None,,,,,,,,,,,0,0,0,0,0,10,10,10,240.19088758400176,,,,,,,,,,,,,,,,,,,,,,,,,,,,,,,,,,,,,,240.03385975000856,240.03405050000583,240.18710729200393,240.19088758400176,240.19088758400176,240.19088758400176,240.19088758400176,243.182996500007,243.182996500007,244.04545654200774,1,1,0.8066974989924347,0.8379489590006415,None,244.04567308400874,244.04572720899887,None,244.0458024170075,244.04584187500586,None,,,,,,,,,,,4,5,0,0,2025-02-06_12h23.14.618,rtmindeye,2024.2.4,None,2025-02-06 12h23.39.940222 -0500,
all_stimuli/special515/special_54361.jpg,11,0,11,11,0,,,,,,0,0,0,5,1,"[9, 21, 31, 45, 56, 68, 69]",1,1,0.7138148329977412,0.3279879999900004,None,None,None,,,,,,,,,,,0,0,0,0,0,11,11,11,244.1628206250025,,,,,,,,,,,,,,,,,,,,,,,,,,,,,,,,,,,,,,244.04635591700207,244.04653933401278,244.15920870901027,244.1628206250025,244.1628206250025,244.1628206250025,244.1628206250025,247.14871708401188,247.14871708401188,248.04994008400536,1,1,0.7138148329977412,0.3279879999900004,None,248.05015270900913,248.05020408400742,None,248.05027183399943,248.05031629200676,None,,,,,,,,,,,4,5,0,0,2025-02-06_12h23.14.618,rtmindeye,2024.2.4,None,2025-02-06 12h23.39.940222 -0500,
all_stimuli/special515/special_6489.jpg,12,0,12,12,0,,,,,,0,0,0,5,1,"[9, 21, 31, 45, 56, 68, 69]",1,1,0.7539593749970663,0.3980377080006292,None,None,None,,,,,,,,,,,0,0,0,0,0,12,12,12,248.19858266699885,,,,,,,,,,,,,,,,,,,,,,,,,,,,,,,,,,,,,,248.05087704199832,248.05111725001188,248.19479183400108,248.19858266699885,248.19858266699885,248.19858266699885,248.19858266699885,251.19586941700254,251.19586941700254,252.06215637500281,1,1,0.7539593749970663,0.3980377080006292,None,252.0623431670101,252.06238687501173,None,252.0624567920022,252.06249991701043,None,,,,,,,,,,,4,5,0,0,2025-02-06_12h23.14.618,rtmindeye,2024.2.4,None,2025-02-06 12h23.39.940222 -0500,
all_stimuli/special515/special_38641.jpg,13,0,13,13,0,,,,,,0,0,0,5,1,"[9, 21, 31, 45, 56, 68, 69]",1,1,0.9375435410038335,0.6839445419900585,None,None,None,,,,,,,,,,,0,0,0,0,0,13,13,13,252.20701858399843,,,,,,,,,,,,,,,,,,,,,,,,,,,,,,,,,,,,,,252.06296175000898,252.06313862500247,252.20196175000456,252.20701858399843,252.20701858399843,252.20701858399843,252.20701858399843,255.20054579200223,255.20054579200223,256.06576495899935,1,1,0.9375435410038335,0.6839445419900585,None,256.065947916999,256.0659914590069,None,256.06604183401214,256.06607758400787,None,,,,,,,,,,,4,5,0,0,2025-02-06_12h23.14.618,rtmindeye,2024.2.4,None,2025-02-06 12h23.39.940222 -0500,
all_stimuli/shared1000_notspecial/notspecial_67168.png,14,0,14,14,0,,,,,,0,0,0,5,1,"[9, 21, 31, 45, 56, 68, 69]",1,1,0.8212327910005115,0.3659864999935962,None,None,None,,,,,,,,,,,0,0,0,0,0,14,14,14,256.2384034590068,,,,,,,,,,,,,,,,,,,,,,,,,,,,,,,,,,,,,,256.06653975001245,256.0667475000082,256.234639125003,256.2384034590068,256.2384034590068,256.2384034590068,256.2384034590068,259.23250395900686,259.23250395900686,260.06707145900873,1,1,0.8212327910005115,0.3659864999935962,None,260.0672720420116,260.06731345900334,None,260.06736995901156,260.0674037090066,None,,,,,,,,,,,4,5,0,0,2025-02-06_12h23.14.618,rtmindeye,2024.2.4,None,2025-02-06 12h23.39.940222 -0500,
all_stimuli/shared1000_notspecial/notspecial_59079.png,15,0,15,15,0,,,,,,0,0,0,5,1,"[9, 21, 31, 45, 56, 68, 69]",1,1,1.3481755829998292,0.6960859160026303,None,None,None,,,,,,,,,,,0,0,0,0,0,15,15,15,260.2503202920052,,,,,,,,,,,,,,,,,,,,,,,,,,,,,,,,,,,,,,260.0678496670007,260.0680992090056,260.244692459004,260.2503202920052,260.2503202920052,260.2503202920052,260.2503202920052,263.2488536669989,263.2488536669989,264.07888979199925,1,1,1.3481755829998292,0.6960859160026303,None,264.0791262499988,264.0792436250049,None,264.07934816701163,264.07943295899895,None,,,,,,,,,,,4,5,0,0,2025-02-06_12h23.14.618,rtmindeye,2024.2.4,None,2025-02-06 12h23.39.940222 -0500,
all_stimuli/MST_pairs1/pair_2_4_89.png,16,0,16,16,0,,,,,,0,0,0,5,1,"[9, 21, 31, 45, 56, 68, 69]",1,1,0.8658152909920318,0.6990004999970552,None,None,None,,,,,,,,,,,0,0,0,0,0,16,16,16,264.47975287500594,,,,,,,,,,,,,,,,,,,,,,,,,,,,,,,,,,,,,,264.0800795420073,264.080363459012,264.47216325000045,264.47975287500594,264.47975287500594,264.47975287500594,264.47975287500594,267.4782212499995,267.4782212499995,268.0820438750088,1,1,0.8658152909920318,0.6990004999970552,None,268.0822247090109,268.08227687500766,None,268.08233366700006,268.08239400001185,None,,,,,,,,,,,4,5,0,0,2025-02-06_12h23.14.618,rtmindeye,2024.2.4,None,2025-02-06 12h23.39.940222 -0500,
all_stimuli/shared1000_notspecial/notspecial_26127.png,17,0,17,17,0,,,,,,0,0,0,5,1,"[9, 21, 31, 45, 56, 68, 69]",1,1,0.7942079990025377,0.4319922919967212,None,None,None,,,,,,,,,,,0,0,0,0,0,17,17,17,268.23531729201204,,,,,,,,,,,,,,,,,,,,,,,,,,,,,,,,,,,,,,268.0828492090077,268.08300600000075,268.2316815840022,268.23531729201204,268.23531729201204,268.23531729201204,268.23531729201204,271.2314017919998,271.2314017919998,272.09515200000897,1,1,0.7942079990025377,0.4319922919967212,None,272.0954806670052,272.09557100001257,None,272.09575375000713,272.0958400420059,None,,,,,,,,,,,4,5,0,0,2025-02-06_12h23.14.618,rtmindeye,2024.2.4,None,2025-02-06 12h23.39.940222 -0500,
all_stimuli/shared1000_notspecial/notspecial_20223.png,18,0,18,18,0,,,,,,0,0,0,5,1,"[9, 21, 31, 45, 56, 68, 69]",1,1,0.7787599989969749,0.4359824590064818,None,None,None,,,,,,,,,,,0,0,0,0,0,18,18,18,272.2477871670126,,,,,,,,,,,,,,,,,,,,,,,,,,,,,,,,,,,,,,272.09662816701166,272.096922584009,272.24441387499974,272.2477871670126,272.2477871670126,272.2477871670126,272.2477871670126,275.2448221250088,275.2448221250088,276.0994090000022,1,1,0.7787599989969749,0.4359824590064818,None,276.0995800840028,276.09962929200265,None,276.0996898750018,276.0997306670033,None,,,,,,,,,,,4,5,0,0,2025-02-06_12h23.14.618,rtmindeye,2024.2.4,None,2025-02-06 12h23.39.940222 -0500,
all_stimuli/special515/special_62015.jpg,19,0,19,19,0,,,,,,1,0,0,5,1,"[9, 21, 31, 45, 56, 68, 69]",2,1,0.7599638329993468,0.31398820799950045,None,None,None,,,,,,,,,,,0,0,0,0,0,19,19,19,276.19464162499935,,,,,,,,,,,,,,,,,,,,,,,,,,,,,,,,,,,,,,276.10018633400614,276.10034554199956,276.19164362500305,276.19464162499935,276.19464162499935,276.19464162499935,276.19464162499935,279.1813670420088,279.1813670420088,280.1118030840007,2,1,0.7599638329993468,0.31398820799950045,None,280.1120917500084,280.1122442090127,None,280.11246779200155,280.11257450000267,None,,,,,,,,,,,4,5,0,0,2025-02-06_12h23.14.618,rtmindeye,2024.2.4,None,2025-02-06 12h23.39.940222 -0500,
all_stimuli/special515/special_10244.jpg,20,0,20,20,0,,,,,,0,0,0,5,1,"[9, 21, 31, 45, 56, 68, 69]",1,1,1.1164226249966305,0.43399770799442194,None,None,None,,,,,,,,,,,0,0,0,0,0,20,20,20,280.2431330840045,,,,,,,,,,,,,,,,,,,,,,,,,,,,,,,,,,,,,,280.11337062501116,280.1135360840126,280.23985237500165,280.2431330840045,280.2431330840045,280.2431330840045,280.2431330840045,283.2325712919992,283.2325712919992,284.1146102920029,1,1,1.1164226249966305,0.43399770799442194,None,284.1147606250015,284.11480075000145,None,284.11484883401135,284.11488991700753,None,,,,,,,,,,,4,5,0,0,2025-02-06_12h23.14.618,rtmindeye,2024.2.4,None,2025-02-06 12h23.39.940222 -0500,
blank.jpg,21,1,21,21,0,,,,,,0,0,0,5,1,"[9, 21, 31, 45, 56, 68, 69]",None,0,,,None,None,None,,,,,,,,,,,0,0,0,0,0,21,21,21,284.19012062500406,,,,,,,,,,,,,,,,,,,,,,,,,,,,,,,,,,,,,,284.1152851670049,284.1154440840037,284.18679075001273,284.19012062500406,284.19012062500406,284.19012062500406,284.19012062500406,287.1810925840109,287.1810925840109,288.11568487501063,None,0,,,None,288.1158435840043,288.11589479200484,None,288.1159486250108,288.11598966699967,None,,,,,,,,,,,4,5,0,0,2025-02-06_12h23.14.618,rtmindeye,2024.2.4,None,2025-02-06 12h23.39.940222 -0500,
all_stimuli/special515/special_28524.jpg,22,0,22,22,0,,,,,,0,0,0,5,1,"[9, 21, 31, 45, 56, 68, 69]",1,1,1.178297123988159,0.46102041700214613,None,None,None,,,,,,,,,,,0,0,0,0,0,22,22,22,288.26727645900974,,,,,,,,,,,,,,,,,,,,,,,,,,,,,,,,,,,,,,288.11641175000113,288.1165803340118,288.26376895900466,288.26727645900974,288.26727645900974,288.26727645900974,288.26727645900974,291.26482816701173,291.26482816701173,292.12823983401177,1,1,1.178297123988159,0.46102041700214613,None,292.1284541250061,292.12861641700147,None,292.12869529200543,292.12877970900445,None,,,,,,,,,,,4,5,0,0,2025-02-06_12h23.14.618,rtmindeye,2024.2.4,None,2025-02-06 12h23.39.940222 -0500,
all_stimuli/special515/special_30430.jpg,23,0,23,23,0,,,,,,0,0,0,5,1,"[9, 21, 31, 45, 56, 68, 69]",1,1,0.7187195820006309,0.45101295900531113,None,None,None,,,,,,,,,,,0,0,0,0,0,23,23,23,292.2838509590074,,,,,,,,,,,,,,,,,,,,,,,,,,,,,,,,,,,,,,292.1292227090016,292.1293919590098,292.28033166700334,292.2838509590074,292.2838509590074,292.2838509590074,292.2838509590074,295.2814703750046,295.2814703750046,296.13089658399986,1,1,0.7187195820006309,0.45101295900531113,None,296.13105683401227,296.13109720899956,None,296.1311473750102,296.13119191701117,None,,,,,,,,,,,4,5,0,0,2025-02-06_12h23.14.618,rtmindeye,2024.2.4,None,2025-02-06 12h23.39.940222 -0500,
all_stimuli/MST_pairs1/pair_10_14_33.png,24,0,24,24,0,,,,,,0,0,0,5,1,"[9, 21, 31, 45, 56, 68, 69]",1,1,1.0036785830016015,0.4169981659943005,None,None,None,,,,,,,,,,,0,0,0,0,0,24,24,24,296.3539269169996,,,,,,,,,,,,,,,,,,,,,,,,,,,,,,,,,,,,,,296.1315895420121,296.13173245900543,296.35042450000765,296.3539269169996,296.3539269169996,296.3539269169996,296.3539269169996,299.3496986250102,299.3496986250102,300.1448828749999,1,1,1.0036785830016015,0.4169981659943005,None,300.14509862499835,300.1451611670054,None,300.1452368340106,300.1453496670001,None,,,,,,,,,,,4,5,0,0,2025-02-06_12h23.14.618,rtmindeye,2024.2.4,None,2025-02-06 12h23.39.940222 -0500,
all_stimuli/shared1000_notspecial/notspecial_10907.png,25,0,25,25,0,,,,,,0,0,0,5,1,"[9, 21, 31, 45, 56, 68, 69]",1,1,1.347178456999245,0.36801079199358355,None,None,None,,,,,,,,,,,0,0,0,0,0,25,25,25,300.2854772920109,,,,,,,,,,,,,,,,,,,,,,,,,,,,,,,,,,,,,,300.1460056670039,300.1462175839988,300.28306016699935,300.2854772920109,300.2854772920109,300.2854772920109,300.2854772920109,303.2817674590042,303.2817674590042,304.14933287500753,1,1,1.347178456999245,0.36801079199358355,None,304.14951820900023,304.14956916699884,None,304.14962945900334,304.14967062500364,None,,,,,,,,,,,4,5,0,0,2025-02-06_12h23.14.618,rtmindeye,2024.2.4,None,2025-02-06 12h23.39.940222 -0500,
all_stimuli/special515/special_22587.jpg,26,0,26,26,0,,,,,,0,0,0,5,1,"[9, 21, 31, 45, 56, 68, 69]",1,1,1.1002329160110094,0.39500862499698997,None,None,None,,,,,,,,,,,0,0,0,0,0,26,26,26,304.2843547090015,,,,,,,,,,,,,,,,,,,,,,,,,,,,,,,,,,,,,,304.15012487499916,304.15028008400986,304.280799250002,304.2843547090015,304.2843547090015,304.2843547090015,304.2843547090015,307.28230400000757,307.28230400000757,308.16194983400055,1,1,1.1002329160110094,0.39500862499698997,None,308.1622975420032,308.1624856670096,None,308.1626059590053,308.1626859590033,None,,,,,,,,,,,4,5,0,0,2025-02-06_12h23.14.618,rtmindeye,2024.2.4,None,2025-02-06 12h23.39.940222 -0500,
all_stimuli/special515/special_3687.jpg,27,0,27,27,0,,,,,,0,0,0,5,1,"[9, 21, 31, 45, 56, 68, 69]",1,1,0.98398650001036,0.8940066659997683,None,None,None,,,,,,,,,,,0,0,0,0,0,27,27,27,308.30560841700935,,,,,,,,,,,,,,,,,,,,,,,,,,,,,,,,,,,,,,308.1634807500086,308.16378908400657,308.3020113340026,308.30560841700935,308.30560841700935,308.30560841700935,308.30560841700935,311.2991010840051,311.2991010840051,312.16641995900136,1,1,0.98398650001036,0.8940066659997683,None,312.16658962500514,312.1666452089994,None,312.16670475000865,312.16674629200133,None,,,,,,,,,,,4,5,0,0,2025-02-06_12h23.14.618,rtmindeye,2024.2.4,None,2025-02-06 12h23.39.940222 -0500,
all_stimuli/shared1000_notspecial/notspecial_58164.png,28,0,28,28,0,,,,,,0,0,0,5,1,"[9, 21, 31, 45, 56, 68, 69]",1,1,0.5832491659966763,0.32799258299928624,None,None,None,,,,,,,,,,,0,0,0,0,0,28,28,28,312.3324056670099,,,,,,,,,,,,,,,,,,,,,,,,,,,,,,,,,,,,,,312.16717854200397,312.16733729200496,312.3263764590083,312.3324056670099,312.3324056670099,312.3324056670099,312.3324056670099,315.32826800001203,315.32826800001203,316.1675346250122,1,1,0.5832491659966763,0.32799258299928624,None,316.1675955420069,316.1676096250012,None,316.1676262920082,316.167636875005,None,,,,,,,,,,,4,5,0,0,2025-02-06_12h23.14.618,rtmindeye,2024.2.4,None,2025-02-06 12h23.39.940222 -0500,
all_stimuli/special515/special_38494.jpg,29,0,29,29,0,,,,,,0,0,0,5,1,"[9, 21, 31, 45, 56, 68, 69]",1,1,0.538182541000424,0.38598454199382104,None,None,None,,,,,,,,,,,0,0,0,0,0,29,29,29,316.2914299170079,,,,,,,,,,,,,,,,,,,,,,,,,,,,,,,,,,,,,,316.16778324999905,316.1678364170075,316.2879290000128,316.2914299170079,316.2914299170079,316.2914299170079,316.2914299170079,319.28211220900994,319.28211220900994,320.1783005420002,1,1,0.538182541000424,0.38598454199382104,None,320.1785152500088,320.17859262500133,None,320.1786698340002,320.1787254170049,None,,,,,,,,,,,4,5,0,0,2025-02-06_12h23.14.618,rtmindeye,2024.2.4,None,2025-02-06 12h23.39.940222 -0500,
all_stimuli/MST_pairs1/pair_12_16_22.png,30,0,30,30,0,,,,,,0,0,0,5,1,"[9, 21, 31, 45, 56, 68, 69]",1,1,0.949060623999685,0.4630212079937337,None,None,None,,,,,,,,,,,0,0,0,0,0,30,30,30,320.34451962501043,,,,,,,,,,,,,,,,,,,,,,,,,,,,,,,,,,,,,,320.17928454199864,320.1794705000066,320.3409910420014,320.34451962501043,320.34451962501043,320.34451962501043,320.34451962501043,323.3310896670009,323.3310896670009,324.1827858750039,1,1,0.949060623999685,0.4630212079937337,None,324.1829647500126,324.18301070900634,None,324.18306470901007,324.18311100000574,None,,,,,,,,,,,4,5,0,0,2025-02-06_12h23.14.618,rtmindeye,2024.2.4,None,2025-02-06 12h23.39.940222 -0500,
blank.jpg,31,1,31,31,0,,,,,,0,0,0,5,1,"[9, 21, 31, 45, 56, 68, 69]",None,0,,,None,None,None,,,,,,,,,,,0,0,0,0,0,31,31,31,324.28023095900426,,,,,,,,,,,,,,,,,,,,,,,,,,,,,,,,,,,,,,324.18354316700425,324.1837122500001,324.27656354200735,324.28023095900426,324.28023095900426,324.28023095900426,324.28023095900426,327.27811887500866,327.27811887500866,328.1952264170104,None,0,,,None,328.1955181670055,328.19561245900695,None,328.1956775840081,328.1957269590057,None,,,,,,,,,,,4,5,0,0,2025-02-06_12h23.14.618,rtmindeye,2024.2.4,None,2025-02-06 12h23.39.940222 -0500,
all_stimuli/special515/special_66489.jpg,32,0,32,32,0,,,,,,0,0,0,5,1,"[9, 21, 31, 45, 56, 68, 69]",1,1,0.6337832080025692,0.376984332993743,None,None,None,,,,,,,,,,,0,0,0,0,0,32,32,32,328.3719103340118,,,,,,,,,,,,,,,,,,,,,,,,,,,,,,,,,,,,,,328.1962055420008,328.1963720000058,328.36867879200145,328.3719103340118,328.3719103340118,328.3719103340118,328.3719103340118,331.3654833340115,331.3654833340115,332.1988412089995,1,1,0.6337832080025692,0.376984332993743,None,332.19900783400226,332.1990513750061,None,332.1991095840058,332.19914500000596,None,,,,,,,,,,,4,5,0,0,2025-02-06_12h23.14.618,rtmindeye,2024.2.4,None,2025-02-06 12h23.39.940222 -0500,
all_stimuli/MST_pairs1/pair_28_nsd_547_1_cocoid_60932.png,33,0,33,33,0,,,,,,0,0,0,5,1,"[9, 21, 31, 45, 56, 68, 69]",1,1,1.4636839159938972,0.4079886249965057,None,None,None,,,,,,,,,,,0,0,0,0,0,33,33,33,332.40705916700244,,,,,,,,,,,,,,,,,,,,,,,,,,,,,,,,,,,,,,332.1995641250105,332.19971495900245,332.40527954199933,332.40705916700244,332.40705916700244,332.40705916700244,332.40705916700244,335.3992979169998,335.3992979169998,336.21169416701014,1,1,1.4636839159938972,0.4079886249965057,None,336.2119706670055,336.2120730000024,None,336.2121950840083,336.2122585840116,None,,,,,,,,,,,4,5,0,0,2025-02-06_12h23.14.618,rtmindeye,2024.2.4,None,2025-02-06 12h23.39.940222 -0500,
all_stimuli/shared1000_notspecial/notspecial_46002.png,34,0,34,34,0,,,,,,0,0,0,5,1,"[9, 21, 31, 45, 56, 68, 69]",1,1,0.6741287490003742,0.701981792008155,None,None,None,,,,,,,,,,,0,0,0,0,0,34,34,34,336.4186040839995,,,,,,,,,,,,,,,,,,,,,,,,,,,,,,,,,,,,,,336.212788208999,336.2129552090046,336.4118833750108,336.4186040839995,336.4186040839995,336.4186040839995,336.4186040839995,339.4156652500096,339.4156652500096,340.21577983400493,1,1,0.6741287490003742,0.701981792008155,None,340.2159446670121,340.2159863340057,None,340.21603416700964,340.21607058400696,None,,,,,,,,,,,4,5,0,0,2025-02-06_12h23.14.618,rtmindeye,2024.2.4,None,2025-02-06 12h23.39.940222 -0500,
all_stimuli/special515/special_30632.jpg,35,0,35,35,0,,,,,,0,0,0,5,1,"[9, 21, 31, 45, 56, 68, 69]",1,1,0.7464615409990074,0.4700037080037873,None,None,None,,,,,,,,,,,0,0,0,0,0,35,35,35,340.34614454201073,,,,,,,,,,,,,,,,,,,,,,,,,,,,,,,,,,,,,,340.2164639170078,340.2166253750038,340.34248212500825,340.34614454201073,340.34614454201073,340.34614454201073,340.34614454201073,343.3447779170092,343.3447779170092,344.22862750000786,1,1,0.7464615409990074,0.4700037080037873,None,344.2289321670105,344.2291027500032,None,344.2293042500096,344.22939466701064,None,,,,,,,,,,,4,5,0,0,2025-02-06_12h23.14.618,rtmindeye,2024.2.4,None,2025-02-06 12h23.39.940222 -0500,
all_stimuli/special515/special_31936.jpg,36,0,36,36,0,,,,,,0,0,0,5,1,"[9, 21, 31, 45, 56, 68, 69]",1,1,0.8838489990012022,0.4069839589938056,None,None,None,,,,,,,,,,,0,0,0,0,0,36,36,36,344.35587870900054,,,,,,,,,,,,,,,,,,,,,,,,,,,,,,,,,,,,,,344.2301819590066,344.23039633400913,344.3524304169987,344.35587870900054,344.35587870900054,344.35587870900054,344.35587870900054,347.3480013340013,347.3480013340013,348.23243704201013,1,1,0.8838489990012022,0.4069839589938056,None,348.2326120840007,348.2326712500071,None,348.2327341670025,348.2327746670053,None,,,,,,,,,,,4,5,0,0,2025-02-06_12h23.14.618,rtmindeye,2024.2.4,None,2025-02-06 12h23.39.940222 -0500,
all_stimuli/MST_pairs1/pair_8_12_56.png,37,0,37,37,0,,,,,,0,0,0,5,1,"[9, 21, 31, 45, 56, 68, 69]",1,1,0.7010381240106653,0.4400329999916721,None,None,None,,,,,,,,,,,0,0,0,0,0,37,37,37,348.42868729200563,,,,,,,,,,,,,,,,,,,,,,,,,,,,,,,,,,,,,,348.2332086670067,348.23337825000635,348.42254683400097,348.42868729200563,348.42868729200563,348.42868729200563,348.42868729200563,351.4149452920101,351.4149452920101,352.2448635840119,1,1,0.7010381240106653,0.4400329999916721,None,352.2450470840122,352.2451003340102,None,352.2451698750083,352.24521208400256,None,,,,,,,,,,,4,5,0,0,2025-02-06_12h23.14.618,rtmindeye,2024.2.4,None,2025-02-06 12h23.39.940222 -0500,
all_stimuli/special515/special_19074.jpg,38,0,38,38,0,,,,,,0,0,0,5,1,"[9, 21, 31, 45, 56, 68, 69]",1,1,0.6660965830087662,0.5130183750006836,None,None,None,,,,,,,,,,,0,0,0,0,0,38,38,38,352.3805102500046,,,,,,,,,,,,,,,,,,,,,,,,,,,,,,,,,,,,,,352.2456977920083,352.2458830000105,352.3767271250108,352.3805102500046,352.3805102500046,352.3805102500046,352.3805102500046,355.37839329200506,355.37839329200506,356.2489147090091,1,1,0.6660965830087662,0.5130183750006836,None,356.2490919170086,356.24913833400933,None,356.2492028340057,356.2492435840104,None,,,,,,,,,,,4,5,0,0,2025-02-06_12h23.14.618,rtmindeye,2024.2.4,None,2025-02-06 12h23.39.940222 -0500,
all_stimuli/shared1000_notspecial/notspecial_42648.png,39,0,39,39,0,,,,,,0,0,0,5,1,"[9, 21, 31, 45, 56, 68, 69]",1,1,0.8995607909891987,0.39409891700779554,None,None,None,,,,,,,,,,,0,0,0,0,0,39,39,39,356.4291732499987,,,,,,,,,,,,,,,,,,,,,,,,,,,,,,,,,,,,,,356.24968175000686,356.2498562920082,356.42569295900466,356.4291732499987,356.4291732499987,356.4291732499987,356.4291732499987,359.41556587500963,359.41556587500963,360.2619212920108,1,1,0.8995607909891987,0.39409891700779554,None,360.26227204200404,360.26233712500834,None,360.262392500008,360.2624294170091,None,,,,,,,,,,,4,5,0,0,2025-02-06_12h23.14.618,rtmindeye,2024.2.4,None,2025-02-06 12h23.39.940222 -0500,
all_stimuli/MST_pairs1/pair_12_16_22.png,40,0,40,40,0,,,,,,1,0,0,5,1,"[9, 21, 31, 45, 56, 68, 69]",2,1,0.7592978739994578,0.33802204199309926,None,None,None,,,,,,,,,,,0,0,0,0,0,40,40,40,360.4784560840053,,,,,,,,,,,,,,,,,,,,,,,,,,,,,,,,,,,,,,360.26282587500464,360.26298104200396,360.4720595000108,360.4784560840053,360.4784560840053,360.4784560840053,360.4784560840053,363.46598895901116,363.46598895901116,364.2662052090018,2,1,0.7592978739994578,0.33802204199309926,None,364.2663706250023,364.2664271250105,None,364.2664866250125,364.2665273340099,None,,,,,,,,,,,4,5,0,0,2025-02-06_12h23.14.618,rtmindeye,2024.2.4,None,2025-02-06 12h23.39.940222 -0500,
all_stimuli/shared1000_notspecial/notspecial_3951.png,41,0,41,41,0,,,,,,0,0,0,5,1,"[9, 21, 31, 45, 56, 68, 69]",2,0,0.7820466240082169,0.3059782089985674,None,None,None,,,,,,,,,,,0,0,0,0,0,41,41,41,364.452659750008,,,,,,,,,,,,,,,,,,,,,,,,,,,,,,,,,,,,,,364.26695983399986,364.2671287500125,364.4491723340034,364.452659750008,364.452659750008,364.452659750008,364.452659750008,367.44809820900264,367.44809820900264,368.27900000000955,2,0,0.7820466240082169,0.3059782089985674,None,368.2793043749989,368.2794677089987,None,368.2796899170062,368.27979741700983,None,,,,,,,,,,,4,5,0,0,2025-02-06_12h23.14.618,rtmindeye,2024.2.4,None,2025-02-06 12h23.39.940222 -0500,
all_stimuli/MST_pairs1/pair_12_16_78.png,42,0,42,42,0,,,,,,0,0,0,5,1,"[9, 21, 31, 45, 56, 68, 69]",1,1,1.271451666005305,0.30199970900139306,None,None,None,,,,,,,,,,,0,0,0,0,0,42,42,42,368.44531587501115,,,,,,,,,,,,,,,,,,,,,,,,,,,,,,,,,,,,,,368.28063425001164,368.28099820901116,368.4419284169999,368.44531587501115,368.44531587501115,368.44531587501115,368.44531587501115,371.4314388750063,371.4314388750063,372.28246816700266,1,1,1.271451666005305,0.30199970900139306,None,372.2826514590124,372.2827078750124,None,372.28276341700985,372.28280387500126,None,,,,,,,,,,,4,5,0,0,2025-02-06_12h23.14.618,rtmindeye,2024.2.4,None,2025-02-06 12h23.39.940222 -0500,
all_stimuli/special515/special_11952.jpg,43,0,43,43,0,,,,,,0,0,0,5,1,"[9, 21, 31, 45, 56, 68, 69]",1,1,1.3537318750022678,0.43099137500394136,None,None,None,,,,,,,,,,,0,0,0,0,0,43,43,43,372.43505529200775,,,,,,,,,,,,,,,,,,,,,,,,,,,,,,,,,,,,,,372.28326558400295,372.28342845900625,372.4286483340111,372.43505529200775,372.43505529200775,372.43505529200775,372.43505529200775,375.4325334169989,375.4325334169989,376.2955448749999,1,1,1.3537318750022678,0.43099137500394136,None,376.2957869590027,376.29585229200893,None,376.29595104200416,376.2960048750101,None,,,,,,,,,,,4,5,0,0,2025-02-06_12h23.14.618,rtmindeye,2024.2.4,None,2025-02-06 12h23.39.940222 -0500,
all_stimuli/MST_pairs1/pair_14_18_22.png,44,0,44,44,0,,,,,,0,0,0,5,1,"[9, 21, 31, 45, 56, 68, 69]",1,1,1.3796516659931513,0.4739762090030126,None,None,None,,,,,,,,,,,0,0,0,0,0,44,44,44,376.5071520420024,,,,,,,,,,,,,,,,,,,,,,,,,,,,,,,,,,,,,,376.29644141701283,376.2966098340112,376.5037659590016,376.5071520420024,376.5071520420024,376.5071520420024,376.5071520420024,379.49920379200194,379.49920379200194,380.2984278750082,1,1,1.3796516659931513,0.4739762090030126,None,380.2985794999986,380.2986166250048,None,380.29866004201176,380.29870729200775,None,,,,,,,,,,,4,5,0,0,2025-02-06_12h23.14.618,rtmindeye,2024.2.4,None,2025-02-06 12h23.39.940222 -0500,
blank.jpg,45,1,45,45,0,,,,,,0,0,0,5,1,"[9, 21, 31, 45, 56, 68, 69]",None,0,,,None,None,None,,,,,,,,,,,0,0,0,0,0,45,45,45,380.42061070899945,,,,,,,,,,,,,,,,,,,,,,,,,,,,,,,,,,,,,,380.29906070900324,380.29920829201,380.41636491700774,380.42061070899945,380.42061070899945,380.42061070899945,380.42061070899945,383.4163855000079,383.4163855000079,384.30026616700343,None,0,,,None,384.30043758401007,384.30048070900375,None,384.30053845900693,384.3005761670065,None,,,,,,,,,,,4,5,0,0,2025-02-06_12h23.14.618,rtmindeye,2024.2.4,None,2025-02-06 12h23.39.940222 -0500,
all_stimuli/MST_pairs1/pair_16_20_56.png,46,0,46,46,0,,,,,,0,0,0,5,1,"[9, 21, 31, 45, 56, 68, 69]",1,1,1.1016722079948522,0.5139989169983892,None,None,None,,,,,,,,,,,0,0,0,0,0,46,46,46,384.5021110000089,,,,,,,,,,,,,,,,,,,,,,,,,,,,,,,,,,,,,,384.30099883400544,384.30121583399887,384.48997591700754,384.5021110000089,384.5021110000089,384.5021110000089,384.5021110000089,387.4993932500074,387.4993932500074,388.3122664590046,1,1,1.1016722079948522,0.5139989169983892,None,388.3124838340009,388.3125468750077,None,388.3126181250118,388.31266012501146,None,,,,,,,,,,,4,5,0,0,2025-02-06_12h23.14.618,rtmindeye,2024.2.4,None,2025-02-06 12h23.39.940222 -0500,
all_stimuli/special515/special_8933.jpg,47,0,47,47,0,,,,,,0,0,0,5,1,"[9, 21, 31, 45, 56, 68, 69]",2,0,2.885894790990278,None,None,None,None,,,,,,,,,,,0,0,0,0,0,47,47,47,388.480909875012,,,,,,,,,,,,,,,,,,,,,,,,,,,,,,,,,,,,,,388.31316608400084,388.3133519170078,388.47579045900784,388.480909875012,388.480909875012,388.480909875012,388.480909875012,391.48003099999914,391.48003099999914,392.3163143749989,2,0,2.885894790990278,None,None,392.3165049590025,392.3165494170098,None,392.3166013750015,392.3166424170049,None,,,,,,,,,,,4,5,0,0,2025-02-06_12h23.14.618,rtmindeye,2024.2.4,None,2025-02-06 12h23.39.940222 -0500,
all_stimuli/MST_pairs1/pair_16_20_56.png,48,0,48,48,0,,,,,,1,0,0,5,1,"[9, 21, 31, 45, 56, 68, 69]",2,1,1.2664566239982378,0.41496937500778586,None,None,None,,,,,,,,,,,0,0,0,0,0,48,48,48,392.4473727500008,,,,,,,,,,,,,,,,,,,,,,,,,,,,,,,,,,,,,,392.3170816250058,392.31726291700033,392.443258875006,392.4473727500008,392.4473727500008,392.4473727500008,392.4473727500008,395.43511129201215,395.43511129201215,396.3229937090073,2,1,1.2664566239982378,0.41496937500778586,None,396.32310158399923,396.3231311670097,None,396.32316691700544,396.3231911250041,None,,,,,,,,,,,4,5,0,0,2025-02-06_12h23.14.618,rtmindeye,2024.2.4,None,2025-02-06 12h23.39.940222 -0500,
all_stimuli/special515/special_5034.jpg,49,0,49,49,0,,,,,,0,0,0,5,1,"[9, 21, 31, 45, 56, 68, 69]",1,1,1.3777361240063328,0.4600640840071719,None,None,None,,,,,,,,,,,0,0,0,0,0,49,49,49,396.4740583340026,,,,,,,,,,,,,,,,,,,,,,,,,,,,,,,,,,,,,,396.32348250001087,396.32362408400513,396.4663204170065,396.4740583340026,396.4740583340026,396.4740583340026,396.4740583340026,399.4656829590094,399.4656829590094,400.3290728340071,1,1,1.3777361240063328,0.4600640840071719,None,400.3292854169995,400.3294092920114,None,400.3294757090043,400.32951445900835,None,,,,,,,,,,,4,5,0,0,2025-02-06_12h23.14.618,rtmindeye,2024.2.4,None,2025-02-06 12h23.39.940222 -0500,
all_stimuli/MST_pairs1/pair_16_20_0.png,50,0,50,50,0,,,,,,0,0,0,5,1,"[9, 21, 31, 45, 56, 68, 69]",2,0,0.9451625829969998,0.3580182080040686,None,None,None,,,,,,,,,,,0,0,0,0,0,50,50,50,400.800604834003,,,,,,,,,,,,,,,,,,,,,,,,,,,,,,,,,,,,,,400.3300212920003,400.3301950000023,400.79483308400086,400.800604834003,400.800604834003,400.800604834003,400.800604834003,403.79542295901047,403.79542295901047,404.3335425000114,2,0,0.9451625829969998,0.3580182080040686,None,404.3337162500102,404.3337672500056,None,404.33381620900764,404.3338512920018,None,,,,,,,,,,,4,5,0,0,2025-02-06_12h23.14.618,rtmindeye,2024.2.4,None,2025-02-06 12h23.39.940222 -0500,
all_stimuli/MST_pairs1/pair_46_w_pool2.jpg,51,0,51,51,0,,,,,,0,0,0,5,1,"[9, 21, 31, 45, 56, 68, 69]",1,1,1.859971707992372,0.5119707499979995,None,None,None,,,,,,,,,,,0,0,0,0,0,51,51,51,404.47081745900505,,,,,,,,,,,,,,,,,,,,,,,,,,,,,,,,,,,,,,404.3342799170059,404.33450745900336,404.4655862090003,404.47081745900505,404.47081745900505,404.47081745900505,404.47081745900505,407.4663039170118,407.4663039170118,408.3455160420126,1,1,1.859971707992372,0.5119707499979995,None,408.3456474590057,408.34568774999934,None,408.34573675000865,408.3457812090055,None,,,,,,,,,,,4,5,0,0,2025-02-06_12h23.14.618,rtmindeye,2024.2.4,None,2025-02-06 12h23.39.940222 -0500,
all_stimuli/special515/special_62228.jpg,52,0,52,52,0,,,,,,0,0,0,5,1,"[9, 21, 31, 45, 56, 68, 69]",1,1,0.8011165409989189,0.3850570000067819,None,None,None,,,,,,,,,,,0,0,0,0,0,52,52,52,408.49572016700404,,,,,,,,,,,,,,,,,,,,,,,,,,,,,,,,,,,,,,408.3461455420038,408.34625233399856,408.49175808401196,408.49572016700404,408.49572016700404,408.49572016700404,408.49572016700404,411.48355908400845,411.48355908400845,412.34929545900377,1,1,0.8011165409989189,0.3850570000067819,None,412.3494501670066,412.34948670900485,None,412.3495354170009,412.3495665000082,None,,,,,,,,,,,4,5,0,0,2025-02-06_12h23.14.618,rtmindeye,2024.2.4,None,2025-02-06 12h23.39.940222 -0500,
all_stimuli/MST_pairs1/pair_40_w_escalator2.jpg,53,0,53,53,0,,,,,,0,0,0,5,1,"[9, 21, 31, 45, 56, 68, 69]",1,1,0.7703209579922259,0.42003150000527967,None,None,None,,,,,,,,,,,0,0,0,0,0,53,53,53,412.512516917006,,,,,,,,,,,,,,,,,,,,,,,,,,,,,,,,,,,,,,412.3499337920075,412.3500963750121,412.50838795900927,412.512516917006,412.512516917006,412.512516917006,412.512516917006,415.51382237501093,415.51382237501093,416.36244933400303,1,1,0.7703209579922259,0.42003150000527967,None,416.3626600840071,416.3627066670015,None,416.36275966701214,416.36279804199876,None,,,,,,,,,,,4,5,0,0,2025-02-06_12h23.14.618,rtmindeye,2024.2.4,None,2025-02-06 12h23.39.940222 -0500,
all_stimuli/MST_pairs1/pair_20_nsd_41_2_cocoid_63715.png,54,0,54,54,0,,,,,,0,0,0,5,1,"[9, 21, 31, 45, 56, 68, 69]",1,1,0.5739982909872197,0.3190085420064861,None,None,None,,,,,,,,,,,0,0,0,0,0,54,54,54,416.6468411250098,,,,,,,,,,,,,,,,,,,,,,,,,,,,,,,,,,,,,,416.3632944590063,416.3634740000125,416.6416886670049,416.6468411250098,416.6468411250098,416.6468411250098,416.6468411250098,419.6453851670085,419.6453851670085,420.3667190420092,1,1,0.5739982909872197,0.3190085420064861,None,420.366844084012,420.3668745840114,None,420.36691129200335,420.3669362090004,None,,,,,,,,,,,4,5,0,0,2025-02-06_12h23.14.618,rtmindeye,2024.2.4,None,2025-02-06 12h23.39.940222 -0500,
all_stimuli/shared1000_notspecial/notspecial_22155.png,55,0,55,55,0,,,,,,0,0,0,5,1,"[9, 21, 31, 45, 56, 68, 69]",1,1,0.6644599580031354,0.3430878329963889,None,None,None,,,,,,,,,,,0,0,0,0,0,55,55,55,420.59938025000156,,,,,,,,,,,,,,,,,,,,,,,,,,,,,,,,,,,,,,420.36725154200394,420.36736845900305,420.59463170899835,420.59938025000156,420.59938025000156,420.59938025000156,420.59938025000156,423.59553133400914,423.59553133400914,424.379843667004,1,1,0.6644599580031354,0.3430878329963889,None,424.38007300000754,424.3801190840022,None,424.38017804200354,424.3802123750065,None,,,,,,,,,,,4,5,0,0,2025-02-06_12h23.14.618,rtmindeye,2024.2.4,None,2025-02-06 12h23.39.940222 -0500,
blank.jpg,56,1,56,56,0,,,,,,0,0,0,5,1,"[9, 21, 31, 45, 56, 68, 69]",None,0,,,None,None,None,,,,,,,,,,,0,0,0,0,0,56,56,56,424.5090667090117,,,,,,,,,,,,,,,,,,,,,,,,,,,,,,,,,,,,,,424.380659167,424.38093825000396,424.5033894590015,424.5090667090117,424.5090667090117,424.5090667090117,424.5090667090117,427.49899745899893,427.49899745899893,428.3827025000064,None,0,,,None,428.38285062499926,428.38289475000056,None,428.3829417090019,428.3829787920113,None,,,,,,,,,,,4,5,0,0,2025-02-06_12h23.14.618,rtmindeye,2024.2.4,None,2025-02-06 12h23.39.940222 -0500,
all_stimuli/special515/special_11617.jpg,57,0,57,57,0,,,,,,0,0,0,5,1,"[9, 21, 31, 45, 56, 68, 69]",1,1,0.7103668750060024,0.36500554099620786,None,None,None,,,,,,,,,,,0,0,0,0,0,57,57,57,428.54958120900847,,,,,,,,,,,,,,,,,,,,,,,,,,,,,,,,,,,,,,428.383384834,428.38355479200254,428.54578520900395,428.54958120900847,428.54958120900847,428.54958120900847,428.54958120900847,431.5453903340094,431.5453903340094,432.3955926250055,1,1,0.7103668750060024,0.36500554099620786,None,432.3957117920072,432.3957473340124,None,432.3957892500039,432.3958190840058,None,,,,,,,,,,,4,5,0,0,2025-02-06_12h23.14.618,rtmindeye,2024.2.4,None,2025-02-06 12h23.39.940222 -0500,
all_stimuli/MST_pairs1/pair_14_18_22.png,58,0,58,58,0,,,,,,1,0,0,5,1,"[9, 21, 31, 45, 56, 68, 69]",2,1,0.7130739580024965,0.28506879101041704,None,None,None,,,,,,,,,,,0,0,0,0,0,58,58,58,432.5037682920083,,,,,,,,,,,,,,,,,,,,,,,,,,,,,,,,,,,,,,432.3961559590098,432.3962460420007,432.5001031670108,432.5037682920083,432.5037682920083,432.5037682920083,432.5037682920083,435.5137395000056,435.5137395000056,436.39880725000694,2,1,0.7130739580024965,0.28506879101041704,None,436.3990161670081,436.39906820900796,None,436.3991248750099,436.3991649170057,None,,,,,,,,,,,4,5,0,0,2025-02-06_12h23.14.618,rtmindeye,2024.2.4,None,2025-02-06 12h23.39.940222 -0500,
all_stimuli/shared1000_notspecial/notspecial_63081.png,59,0,59,59,0,,,,,,0,0,0,5,1,"[9, 21, 31, 45, 56, 68, 69]",1,1,1.073381791007705,0.42405349999899045,None,None,None,,,,,,,,,,,0,0,0,0,0,59,59,59,436.60934108401125,,,,,,,,,,,,,,,,,,,,,,,,,,,,,,,,,,,,,,436.3996312090021,436.3998563750065,436.6038282500085,436.60934108401125,436.60934108401125,436.60934108401125,436.60934108401125,439.5989343340043,439.5989343340043,440.40127383400977,1,1,1.073381791007705,0.42405349999899045,None,440.401456874999,440.40150283400726,None,440.40155037501245,440.40158291700936,None,,,,,,,,,,,4,5,0,0,2025-02-06_12h23.14.618,rtmindeye,2024.2.4,None,2025-02-06 12h23.39.940222 -0500,
all_stimuli/MST_pairs1/pair_42_w_icerink2.jpg,60,0,60,60,0,,,,,,0,0,0,5,1,"[9, 21, 31, 45, 56, 68, 69]",1,1,0.6192842489981558,0.4199975829978939,None,None,None,,,,,,,,,,,0,0,0,0,0,60,60,60,440.68153841700405,,,,,,,,,,,,,,,,,,,,,,,,,,,,,,,,,,,,,,440.40198104199953,440.40216441699886,440.67623062500206,440.68153841700405,440.68153841700405,440.68153841700405,440.68153841700405,443.6788113750081,443.6788113750081,444.4126818750083,1,1,0.6192842489981558,0.4199975829978939,None,444.4129343750101,444.4129816670029,None,444.4130342920107,444.41306845900544,None,,,,,,,,,,,4,5,0,0,2025-02-06_12h23.14.618,rtmindeye,2024.2.4,None,2025-02-06 12h23.39.940222 -0500,
all_stimuli/MST_pairs1/pair_46_w_pool1.jpg,61,0,61,61,0,,,,,,0,0,0,5,1,"[9, 21, 31, 45, 56, 68, 69]",1,1,0.8035763740044786,0.47091925000131596,None,None,None,,,,,,,,,,,0,0,0,0,0,61,61,61,444.561286000011,,,,,,,,,,,,,,,,,,,,,,,,,,,,,,,,,,,,,,444.4134935000038,444.41366600000765,444.5556282920006,444.561286000011,444.561286000011,444.561286000011,444.561286000011,447.54856895899866,447.54856895899866,448.41496587501024,1,1,0.8035763740044786,0.47091925000131596,None,448.41511912499845,448.4151611250127,None,448.4152097500046,448.4152458340104,None,,,,,,,,,,,4,5,0,0,2025-02-06_12h23.14.618,rtmindeye,2024.2.4,None,2025-02-06 12h23.39.940222 -0500,
all_stimuli/special515/special_40840.jpg,62,0,62,62,0,,,,,,0,0,0,5,1,"[9, 21, 31, 45, 56, 68, 69]",2,0,0.9009471250028582,0.4499999160034349,None,None,None,,,,,,,,,,,0,0,0,0,0,62,62,62,448.567888125006,,,,,,,,,,,,,,,,,,,,,,,,,,,,,,,,,,,,,,448.41562300000805,448.41577191700344,448.56443350001064,448.567888125006,448.567888125006,448.567888125006,448.567888125006,451.56486854200193,451.56486854200193,452.4289019590069,2,0,0.9009471250028582,0.4499999160034349,None,452.429343959011,452.4294491250039,None,452.42955166700995,452.42962950000947,None,,,,,,,,,,,4,5,0,0,2025-02-06_12h23.14.618,rtmindeye,2024.2.4,None,2025-02-06 12h23.39.940222 -0500,
all_stimuli/special515/special_29837.jpg,63,0,63,63,0,,,,,,0,0,0,5,1,"[9, 21, 31, 45, 56, 68, 69]",1,1,0.691488873999333,0.6439927500032354,None,None,None,,,,,,,,,,,0,0,0,0,0,63,63,63,452.57935887500935,,,,,,,,,,,,,,,,,,,,,,,,,,,,,,,,,,,,,,452.4304733750032,452.4307566250063,452.575675125001,452.57935887500935,452.57935887500935,452.57935887500935,452.57935887500935,455.566192667,455.566192667,456.4315985840076,1,1,0.691488873999333,0.6439927500032354,None,456.4317642090027,456.4318162090058,None,456.43188120900595,456.43192670900316,None,,,,,,,,,,,4,5,0,0,2025-02-06_12h23.14.618,rtmindeye,2024.2.4,None,2025-02-06 12h23.39.940222 -0500,
all_stimuli/shared1000_notspecial/notspecial_4768.png,64,0,64,64,0,,,,,,0,0,0,5,1,"[9, 21, 31, 45, 56, 68, 69]",1,1,0.654860541006201,0.7200136669998756,None,None,None,,,,,,,,,,,0,0,0,0,0,64,64,64,456.6499858340103,,,,,,,,,,,,,,,,,,,,,,,,,,,,,,,,,,,,,,456.43238045900944,456.43254950000846,456.64642225000716,456.6499858340103,456.6499858340103,456.6499858340103,456.6499858340103,459.64809258400055,459.64809258400055,460.43342020901036,1,1,0.654860541006201,0.7200136669998756,None,460.43360800000664,460.4336583340046,None,460.43371604201093,460.43375750000996,None,,,,,,,,,,,4,5,0,0,2025-02-06_12h23.14.618,rtmindeye,2024.2.4,None,2025-02-06 12h23.39.940222 -0500,
all_stimuli/MST_pairs1/pair_20_nsd_41_1_cocoid_15472.png,65,0,65,65,0,,,,,,0,0,0,5,1,"[9, 21, 31, 45, 56, 68, 69]",1,1,0.8379977910080925,0.4369972919957945,None,None,None,,,,,,,,,,,0,0,0,0,0,65,65,65,460.6699738340103,,,,,,,,,,,,,,,,,,,,,,,,,,,,,,,,,,,,,,460.43420600000536,460.4343848749995,460.6679158340121,460.6699738340103,460.6699738340103,460.6699738340103,460.6699738340103,463.6660625420045,463.6660625420045,464.4454315000039,1,1,0.8379977910080925,0.4369972919957945,None,464.44578629200987,464.44586308400903,None,464.4459407920076,464.4459968750016,None,,,,,,,,,,,4,5,0,0,2025-02-06_12h23.14.618,rtmindeye,2024.2.4,None,2025-02-06 12h23.39.940222 -0500,
all_stimuli/shared1000_notspecial/notspecial_53157.png,66,0,66,66,0,,,,,,0,0,0,5,1,"[9, 21, 31, 45, 56, 68, 69]",1,1,0.9128182079875842,0.45802058301342186,None,None,None,,,,,,,,,,,0,0,0,0,0,66,66,66,464.62601804200676,,,,,,,,,,,,,,,,,,,,,,,,,,,,,,,,,,,,,,464.44657066700165,464.44681449999916,464.6224507920124,464.62601804200676,464.62601804200676,464.62601804200676,464.62601804200676,467.6158872090018,467.6158872090018,468.4498152919987,1,1,0.9128182079875842,0.45802058301342186,None,468.44996945900493,468.4500102919992,None,468.45006845900207,468.4501030840038,None,,,,,,,,,,,4,5,0,0,2025-02-06_12h23.14.618,rtmindeye,2024.2.4,None,2025-02-06 12h23.39.940222 -0500,
all_stimuli/special515/special_38641.jpg,67,0,67,67,0,,,,,,1,0,0,5,1,"[9, 21, 31, 45, 56, 68, 69]",2,1,1.178938457989716,0.3940225830010604,None,None,None,,,,,,,,,,,0,0,0,0,0,67,67,67,468.5439097500057,,,,,,,,,,,,,,,,,,,,,,,,,,,,,,,,,,,,,,468.4504998340126,468.45067708400893,468.5404685000103,468.5439097500057,468.5439097500057,468.5439097500057,468.5439097500057,471.5319137500046,471.5319137500046,472.46211516699987,2,1,1.178938457989716,0.3940225830010604,None,472.46239258399874,472.4624830840039,None,472.4625938750105,472.4626866250037,None,,,,,,,,,,,4,5,0,0,2025-02-06_12h23.14.618,rtmindeye,2024.2.4,None,2025-02-06 12h23.39.940222 -0500,
blank.jpg,68,1,68,68,0,,,,,,0,0,0,5,1,"[9, 21, 31, 45, 56, 68, 69]",None,0,,,None,None,None,,,,,,,,,,,0,0,0,0,0,68,68,68,472.5378112920007,,,,,,,,,,,,,,,,,,,,,,,,,,,,,,,,,,,,,,472.4635380000109,472.4638356670039,472.5343863750022,472.5378112920007,472.5378112920007,472.5378112920007,472.5378112920007,475.53273058400373,475.53273058400373,476.4647620420001,None,0,,,None,476.464899292012,476.4649495420017,None,476.4650019170076,476.4650419170066,None,,,,,,,,,,,4,5,0,0,2025-02-06_12h23.14.618,rtmindeye,2024.2.4,None,2025-02-06 12h23.39.940222 -0500,
blank.jpg,69,1,69,69,0,,,,,,0,1,0,5,0,"[9, 21, 31, 45, 56, 68, 69]",None,0,,,None,1,equal,34.44890750000195,None,23.374235041002976,None,,,,,,,0,0,0,0,0,69,69,69,476.52597191699897,,,,,,,,,,,,,,,,,,,,,,,,,,,,,,,,,,,,,,476.46543183400354,476.4655843340006,476.5223150840029,476.52597191699897,476.52597191699897,476.52597191699897,476.52597191699897,479.5149969589984,479.5149969589984,480.46663662500214,None,0,,,None,480.4774513750017,514.9341229590063,1,514.9342502500076,538.3305076670076,equal,480.4801998750045,480.4801998750045,34.44890750000195,None,514.9449029170064,514.9449029170064,23.374235041002976,None,,,4,5,0,0,2025-02-06_12h23.14.618,rtmindeye,2024.2.4,None,2025-02-06 12h23.39.940222 -0500,
,,,0,0,0,,,,,,,,,,,,,,,,,,,,,,,,,,,,,0,0,0,0,,,,,,,,,,,,,,,,,,,,,,,,,,,,,,,,,,,,,,,,,,,,,,,,,,,,,,,,,,,,,,,,,,,,,,,,,,4,5,0,0,2025-02-06_12h23.14.618,rtmindeye,2024.2.4,None,2025-02-06 12h23.39.940222 -0500,
all_stimuli/special515/special_71450.jpg,0,0,0,0,0,,,,,,0,0,1,5,1,"[9, 21, 31, 45, 56, 68, 69]",2,0,1.0825222080020467,0.4319842080003582,None,None,None,,,,,,,,,,,1,0,1,0,0,0,0,0,538.6965630420018,,,,,,,,,,,,,,,,,,,,,,,,,,,,,,,,,,,,,,538.4799330000096,538.4803187090001,538.6923607920035,538.6965630420018,538.6965630420018,538.6965630420018,538.6965630420018,541.6953594170045,541.6953594170045,542.4810372089996,2,0,1.0825222080020467,0.4319842080003582,None,542.4811945420079,542.4812409170117,None,542.4812901250116,542.4813299170055,None,,,,,,,,,,,4,5,0,0,2025-02-06_12h23.14.618,rtmindeye,2024.2.4,None,2025-02-06 12h23.39.940222 -0500,
all_stimuli/special515/special_38246.jpg,1,0,1,1,0,,,,,,0,0,1,5,1,"[9, 21, 31, 45, 56, 68, 69]",2,0,1.0369087910075905,0.3609791250055423,None,None,None,,,,,,,,,,,1,0,1,0,0,1,1,1,542.6420789170079,,,,,,,,,,,,,,,,,,,,,,,,,,,,,,,,,,,,,,542.4817107090057,542.48186179201,542.6384990840015,542.6420789170079,542.6420789170079,542.6420789170079,542.6420789170079,545.632802667009,545.632802667009,546.495637584012,2,0,1.0369087910075905,0.3609791250055423,None,546.4959217920114,546.4960227920092,None,546.4961319590075,546.4963116250001,None,,,,,,,,,,,4,5,0,0,2025-02-06_12h23.14.618,rtmindeye,2024.2.4,None,2025-02-06 12h23.39.940222 -0500,
all_stimuli/special515/special_10046.jpg,2,0,2,2,0,,,,,,0,0,1,5,1,"[9, 21, 31, 45, 56, 68, 69]",None,0,,,['1'],None,None,,,,,[0.8000090819987236],[0.42700629199680407],,,,,1,0,1,0,0,2,2,2,546.6620479170087,,,,,,,,,,,,,,,,,,,,,,,,,,,,,,,,,,,,,,546.4967636670044,546.4969033340021,546.658660000001,546.6620479170087,546.6620479170087,546.6620479170087,546.6620479170087,549.6483044170018,549.6483044170018,550.5004040420026,None,0,,,['1'],550.5006783749996,550.5007282090082,None,550.5007845420041,550.5008264170028,None,,,,,,,,,[0.8000090819987236],[0.42700629199680407],4,5,0,0,2025-02-06_12h23.14.618,rtmindeye,2024.2.4,None,2025-02-06 12h23.39.940222 -0500,
all_stimuli/MST_pairs1/pair_38_w_arch2.jpg,3,0,3,3,0,,,,,,0,0,1,5,1,"[9, 21, 31, 45, 56, 68, 69]",1,1,0.9847433740069391,0.36903416700079106,None,None,None,,,,,,,,,,,1,0,1,0,0,3,3,3,550.6552957500098,,,,,,,,,,,,,,,,,,,,,,,,,,,,,,,,,,,,,,550.5012852090003,550.5014690000098,550.6522025420127,550.6552957500098,550.6552957500098,550.6552957500098,550.6552957500098,553.6490658750117,553.6490658750117,554.5125070420036,1,1,0.9847433740069391,0.36903416700079106,None,554.5127234590036,554.5127797090099,None,554.5128255000018,554.5128579590091,None,,,,,,,,,,,4,5,0,0,2025-02-06_12h23.14.618,rtmindeye,2024.2.4,None,2025-02-06 12h23.39.940222 -0500,
all_stimuli/special515/special_30395.jpg,4,0,4,4,0,,,,,,0,0,1,5,1,"[9, 21, 31, 45, 56, 68, 69]",1,1,1.6733957069955068,0.48200491699390113,None,None,None,,,,,,,,,,,1,0,1,0,0,4,4,4,554.6616848340054,,,,,,,,,,,,,,,,,,,,,,,,,,,,,,,,,,,,,,554.5132329590124,554.5133800840122,554.658247667001,554.6616848340054,554.6616848340054,554.6616848340054,554.6616848340054,557.6480642090028,557.6480642090028,558.5151241670101,1,1,1.6733957069955068,0.48200491699390113,None,558.5152999590064,558.5153432500083,None,558.5153949590022,558.5154301670118,None,,,,,,,,,,,4,5,0,0,2025-02-06_12h23.14.618,rtmindeye,2024.2.4,None,2025-02-06 12h23.39.940222 -0500,
all_stimuli/special515/special_38494.jpg,5,0,5,5,0,,,,,,1,0,1,5,1,"[9, 21, 31, 45, 56, 68, 69]",2,1,1.0200416660081828,0.38898129199515097,None,None,None,,,,,,,,,,,1,0,1,0,0,5,5,5,558.5890685420018,,,,,,,,,,,,,,,,,,,,,,,,,,,,,,,,,,,,,,558.5158265000064,558.5159824590082,558.5857178340084,558.5890685420018,558.5890685420018,558.5890685420018,558.5890685420018,561.5818915000127,561.5818915000127,562.5289079590002,2,1,1.0200416660081828,0.38898129199515097,None,562.5291928750084,562.5292603340058,None,562.5293678340095,562.5294203340018,None,,,,,,,,,,,4,5,0,0,2025-02-06_12h23.14.618,rtmindeye,2024.2.4,None,2025-02-06 12h23.39.940222 -0500,
all_stimuli/MST_pairs1/pair_28_nsd_547_1_cocoid_60932.png,6,0,6,6,0,,,,,,1,0,1,5,1,"[9, 21, 31, 45, 56, 68, 69]",2,1,1.0799352489993908,0.4399290830042446,None,None,None,,,,,,,,,,,1,0,1,0,0,6,6,6,562.6262594170112,,,,,,,,,,,,,,,,,,,,,,,,,,,,,,,,,,,,,,562.5298606249999,562.5300325840071,562.6241749170003,562.6262594170112,562.6262594170112,562.6262594170112,562.6262594170112,565.6305767919985,565.6305767919985,566.5334747090092,2,1,1.0799352489993908,0.4399290830042446,None,566.5336541670113,566.5337013340031,None,566.5337515420106,566.5337869590003,None,,,,,,,,,,,4,5,0,0,2025-02-06_12h23.14.618,rtmindeye,2024.2.4,None,2025-02-06 12h23.39.940222 -0500,
all_stimuli/special515/special_61133.jpg,7,0,7,7,0,,,,,,0,0,1,5,1,"[9, 21, 31, 45, 56, 68, 69]",2,0,1.1153429580008378,0.4069617079949239,None,None,None,,,,,,,,,,,1,0,1,0,0,7,7,7,566.6737718750082,,,,,,,,,,,,,,,,,,,,,,,,,,,,,,,,,,,,,,566.5341895419988,566.5343488340004,566.6686535000044,566.6737718750082,566.6737718750082,566.6737718750082,566.6737718750082,569.6663805420103,569.6663805420103,570.5476965000125,2,0,1.1153429580008378,0.4069617079949239,None,570.5479414590081,570.547993375003,None,570.5480565420003,570.5480965000024,None,,,,,,,,,,,4,5,0,0,2025-02-06_12h23.14.618,rtmindeye,2024.2.4,None,2025-02-06 12h23.39.940222 -0500,
all_stimuli/shared1000_notspecial/notspecial_16635.png,8,0,8,8,0,,,,,,0,0,1,5,1,"[9, 21, 31, 45, 56, 68, 69]",2,0,1.5592484999942826,0.36499812500551343,None,None,None,,,,,,,,,,,1,0,1,0,0,8,8,8,570.8158358750079,,,,,,,,,,,,,,,,,,,,,,,,,,,,,,,,,,,,,,570.5486286670057,570.5489081670094,570.8102336250013,570.8158358750079,570.8158358750079,570.8158358750079,570.8158358750079,573.8124610000086,573.8124610000086,574.5491396670113,2,0,1.5592484999942826,0.36499812500551343,None,574.5493260840012,574.5493693340104,None,574.5494222500129,574.5494587499998,None,,,,,,,,,,,4,5,0,0,2025-02-06_12h23.14.618,rtmindeye,2024.2.4,None,2025-02-06 12h23.39.940222 -0500,
blank.jpg,9,1,9,9,0,,,,,,0,0,1,5,1,"[9, 21, 31, 45, 56, 68, 69]",None,0,,,None,None,None,,,,,,,,,,,1,0,1,0,0,9,9,9,574.6479627920053,,,,,,,,,,,,,,,,,,,,,,,,,,,,,,,,,,,,,,574.5498881250096,574.5500771670049,574.6427375000058,574.6479627920053,574.6479627920053,574.6479627920053,574.6479627920053,577.64581154201,577.64581154201,578.5626570840104,None,0,,,None,578.5629100000078,578.5629764170008,None,578.563115375,578.5631939590094,None,,,,,,,,,,,4,5,0,0,2025-02-06_12h23.14.618,rtmindeye,2024.2.4,None,2025-02-06 12h23.39.940222 -0500,
all_stimuli/MST_pairs1/pair_18_nsd_6_1_cocoid_13417.png,10,0,10,10,0,,,,,,0,0,1,5,1,"[9, 21, 31, 45, 56, 68, 69]",1,1,2.819041748996824,None,None,None,None,,,,,,,,,,,1,0,1,0,0,10,10,10,578.7871785000025,,,,,,,,,,,,,,,,,,,,,,,,,,,,,,,,,,,,,,578.5639162920124,578.5642035000055,578.7835360000026,578.7871785000025,578.7871785000025,578.7871785000025,578.7871785000025,581.7825067500089,581.7825067500089,582.5659502500057,1,1,2.819041748996824,None,None,582.5661397920048,582.5661918340047,None,582.5662425840128,582.5662815000105,None,,,,,,,,,,,4,5,0,0,2025-02-06_12h23.14.618,rtmindeye,2024.2.4,None,2025-02-06 12h23.39.940222 -0500,
all_stimuli/shared1000_notspecial/notspecial_21703.png,11,0,11,11,0,,,,,,0,0,1,5,1,"[9, 21, 31, 45, 56, 68, 69]",1,1,0.7401482909917831,0.461046249998617,None,None,None,,,,,,,,,,,1,0,1,0,0,11,11,11,582.7718940839986,,,,,,,,,,,,,,,,,,,,,,,,,,,,,,,,,,,,,,582.5667284590018,582.5669599170069,582.7663683749997,582.7718940839986,582.7718940839986,582.7718940839986,582.7718940839986,585.7662987090007,585.7662987090007,586.5795696670102,1,1,0.7401482909917831,0.461046249998617,None,586.57987395901,586.5799356250063,None,586.580002792005,586.580044375005,None,,,,,,,,,,,4,5,0,0,2025-02-06_12h23.14.618,rtmindeye,2024.2.4,None,2025-02-06 12h23.39.940222 -0500,
all_stimuli/special515/special_24530.jpg,12,0,12,12,0,,,,,,0,0,1,5,1,"[9, 21, 31, 45, 56, 68, 69]",1,1,1.3013977910013637,0.3379407500033267,None,None,None,,,,,,,,,,,1,0,1,0,0,12,12,12,586.7307550000114,,,,,,,,,,,,,,,,,,,,,,,,,,,,,,,,,,,,,,586.5805744170066,586.5807909170107,586.7256157920056,586.7307550000114,586.7307550000114,586.7307550000114,586.7307550000114,589.729061667007,589.729061667007,590.5975254170044,1,1,1.3013977910013637,0.3379407500033267,None,590.5978162500105,590.597872667,None,590.5979396250041,590.5979833750025,None,,,,,,,,,,,4,5,0,0,2025-02-06_12h23.14.618,rtmindeye,2024.2.4,None,2025-02-06 12h23.39.940222 -0500,
all_stimuli/shared1000_notspecial/notspecial_6222.png,13,0,13,13,0,,,,,,0,0,1,5,1,"[9, 21, 31, 45, 56, 68, 69]",1,1,0.6972450410103193,0.4290496659959899,None,None,None,,,,,,,,,,,1,0,1,0,0,13,13,13,590.7797895840049,,,,,,,,,,,,,,,,,,,,,,,,,,,,,,,,,,,,,,590.5986023340083,590.5989152090042,590.7735894170037,590.7797895840049,590.7797895840049,590.7797895840049,590.7797895840049,593.7792470840068,593.7792470840068,594.6013313340081,1,1,0.6972450410103193,0.4290496659959899,None,594.6015625420114,594.6016114170052,None,594.6016573340021,594.6016904590069,None,,,,,,,,,,,4,5,0,0,2025-02-06_12h23.14.618,rtmindeye,2024.2.4,None,2025-02-06 12h23.39.940222 -0500,
all_stimuli/MST_pairs1/pair_44_w_log_cabin2.jpg,14,0,14,14,0,,,,,,0,0,1,5,1,"[9, 21, 31, 45, 56, 68, 69]",1,1,0.693363208003575,0.5710540830041282,None,None,None,,,,,,,,,,,1,0,1,0,0,14,14,14,594.7507429590041,,,,,,,,,,,,,,,,,,,,,,,,,,,,,,,,,,,,,,594.6021611250035,594.6023960840103,594.745622625007,594.7507429590041,594.7507429590041,594.7507429590041,594.7507429590041,597.749859500007,597.749859500007,598.6125722500001,1,1,0.693363208003575,0.5710540830041282,None,598.612787459002,598.6128510000126,None,598.612925584006,598.6129672500101,None,,,,,,,,,,,4,5,0,0,2025-02-06_12h23.14.618,rtmindeye,2024.2.4,None,2025-02-06 12h23.39.940222 -0500,
all_stimuli/special515/special_28068.jpg,15,0,15,15,0,,,,,,0,0,1,5,1,"[9, 21, 31, 45, 56, 68, 69]",1,1,0.7685846249951283,0.43996537500061095,None,None,None,,,,,,,,,,,1,0,1,0,0,15,15,15,598.7536042499996,,,,,,,,,,,,,,,,,,,,,,,,,,,,,,,,,,,,,,598.6135400000057,598.6137250840111,598.7494564590015,598.7536042499996,598.7536042499996,598.7536042499996,598.7536042499996,601.7491198339994,601.7491198339994,602.6162038340117,1,1,0.7685846249951283,0.43996537500061095,None,602.6163385420077,602.6163786250108,None,602.616419834012,602.6164507089998,None,,,,,,,,,,,4,5,0,0,2025-02-06_12h23.14.618,rtmindeye,2024.2.4,None,2025-02-06 12h23.39.940222 -0500,
all_stimuli/shared1000_notspecial/notspecial_60978.png,16,0,16,16,0,,,,,,0,0,1,5,1,"[9, 21, 31, 45, 56, 68, 69]",1,1,1.8033212070004083,0.808959625006537,None,None,None,,,,,,,,,,,1,0,1,0,0,16,16,16,602.8948483340064,,,,,,,,,,,,,,,,,,,,,,,,,,,,,,,,,,,,,,602.6168457090098,602.6169782920042,602.8841311670112,602.8948483340064,602.8948483340064,602.8948483340064,602.8948483340064,605.8965964170056,605.8965964170056,606.6296758750104,1,1,1.8033212070004083,0.808959625006537,None,606.6299855840043,606.6300445000088,None,606.6301126250037,606.6301631250099,None,,,,,,,,,,,4,5,0,0,2025-02-06_12h23.14.618,rtmindeye,2024.2.4,None,2025-02-06 12h23.39.940222 -0500,
all_stimuli/MST_pairs1/pair_2_4_22.png,17,0,17,17,0,,,,,,0,0,1,5,1,"[9, 21, 31, 45, 56, 68, 69]",1,1,2.125936748998356,0.6199312920070952,None,None,None,,,,,,,,,,,1,0,1,0,0,17,17,17,606.8172748340003,,,,,,,,,,,,,,,,,,,,,,,,,,,,,,,,,,,,,,606.6307095420052,606.6309704170126,606.8131400420098,606.8172748340003,606.8172748340003,606.8172748340003,606.8172748340003,609.8124438340019,609.8124438340019,610.6472308340017,1,1,2.125936748998356,0.6199312920070952,None,610.6476109590003,610.6476865420118,None,610.6477796670079,610.6478418750048,None,,,,,,,,,,,4,5,0,0,2025-02-06_12h23.14.618,rtmindeye,2024.2.4,None,2025-02-06 12h23.39.940222 -0500,
all_stimuli/shared1000_notspecial/notspecial_46160.png,18,0,18,18,0,,,,,,0,0,1,5,1,"[9, 21, 31, 45, 56, 68, 69]",1,1,1.2805025830020895,0.45290437499352265,None,None,None,,,,,,,,,,,1,0,1,0,0,18,18,18,610.8176254999998,,,,,,,,,,,,,,,,,,,,,,,,,,,,,,,,,,,,,,610.6487951669988,610.6492128750106,610.8121507920005,610.8176254999998,610.8176254999998,610.8176254999998,610.8176254999998,613.8126791250106,613.8126791250106,614.6510680840001,1,1,1.2805025830020895,0.45290437499352265,None,614.6512675840058,614.651307667009,None,614.6513692500012,614.6514055420121,None,,,,,,,,,,,4,5,0,0,2025-02-06_12h23.14.618,rtmindeye,2024.2.4,None,2025-02-06 12h23.39.940222 -0500,
all_stimuli/special515/special_64880.jpg,19,0,19,19,0,,,,,,0,0,1,5,1,"[9, 21, 31, 45, 56, 68, 69]",1,1,1.2850229579926236,0.2539871660119388,None,None,None,,,,,,,,,,,1,0,1,0,0,19,19,19,614.7961537920055,,,,,,,,,,,,,,,,,,,,,,,,,,,,,,,,,,,,,,614.6519162920013,614.6521567500022,614.7912558750104,614.7961537920055,614.7961537920055,614.7961537920055,614.7961537920055,617.7830217920127,617.7830217920127,618.6625414170121,1,1,1.2850229579926236,0.2539871660119388,None,618.6626665420044,618.6627022500033,None,618.6627441669989,618.6627751670021,None,,,,,,,,,,,4,5,0,0,2025-02-06_12h23.14.618,rtmindeye,2024.2.4,None,2025-02-06 12h23.39.940222 -0500,
all_stimuli/MST_pairs1/pair_36_nsd_949_1_cocoid_43196.png,20,0,20,20,0,,,,,,0,0,1,5,1,"[9, 21, 31, 45, 56, 68, 69]",1,1,1.7710551659984048,0.3839886670029955,None,None,None,,,,,,,,,,,1,0,1,0,0,20,20,20,618.8841149590007,,,,,,,,,,,,,,,,,,,,,,,,,,,,,,,,,,,,,,618.6631068749994,618.6632082090073,618.8803730420041,618.8841149590007,618.8841149590007,618.8841149590007,618.8841149590007,621.8836819590069,621.8836819590069,622.6661902090127,1,1,1.7710551659984048,0.3839886670029955,None,622.6664210000017,622.6664662920084,None,622.6665286670031,622.6665692500101,None,,,,,,,,,,,4,5,0,0,2025-02-06_12h23.14.618,rtmindeye,2024.2.4,None,2025-02-06 12h23.39.940222 -0500,
blank.jpg,21,1,21,21,0,,,,,,0,0,1,5,1,"[9, 21, 31, 45, 56, 68, 69]",None,0,,,None,None,None,,,,,,,,,,,1,0,1,0,0,21,21,21,622.7679066249984,,,,,,,,,,,,,,,,,,,,,,,,,,,,,,,,,,,,,,622.6670778340049,622.6673284170101,622.762210084009,622.7679066249984,622.7679066249984,622.7679066249984,622.7679066249984,625.7669385420013,625.7669385420013,626.6793835420103,None,0,,,None,626.6796381250024,626.6797506250005,None,626.6798292500025,626.6798847500031,None,,,,,,,,,,,4,5,0,0,2025-02-06_12h23.14.618,rtmindeye,2024.2.4,None,2025-02-06 12h23.39.940222 -0500,
all_stimuli/special515/special_30632.jpg,22,0,22,22,0,,,,,,1,0,1,5,1,"[9, 21, 31, 45, 56, 68, 69]",1,0,0.7286715829977766,0.3680717910028761,None,None,None,,,,,,,,,,,1,0,1,0,0,22,22,22,626.7864433750074,,,,,,,,,,,,,,,,,,,,,,,,,,,,,,,,,,,,,,626.6804391250043,626.6806328340026,626.7813238750095,626.7864433750074,626.7864433750074,626.7864433750074,626.7864433750074,629.7844124590047,629.7844124590047,630.6837998340052,1,0,0.7286715829977766,0.3680717910028761,None,630.6839867500094,630.6840292920097,None,630.6840843340033,630.6841261670052,None,,,,,,,,,,,4,5,0,0,2025-02-06_12h23.14.618,rtmindeye,2024.2.4,None,2025-02-06 12h23.39.940222 -0500,
all_stimuli/MST_pairs1/pair_20_nsd_41_2_cocoid_63715.png,23,0,23,23,0,,,,,,1,0,1,5,1,"[9, 21, 31, 45, 56, 68, 69]",2,1,0.9267336659977445,0.5250076249940321,None,None,None,,,,,,,,,,,1,0,1,0,0,23,23,23,630.7884635840019,,,,,,,,,,,,,,,,,,,,,,,,,,,,,,,,,,,,,,630.684551667,630.6848120420036,630.7861595840077,630.7884635840019,630.7884635840019,630.7884635840019,630.7884635840019,633.7815492500085,633.7815492500085,634.6954865840089,2,1,0.9267336659977445,0.5250076249940321,None,634.6957127920032,634.6957800000091,None,634.6959170000046,634.6960444170109,None,,,,,,,,,,,4,5,0,0,2025-02-06_12h23.14.618,rtmindeye,2024.2.4,None,2025-02-06 12h23.39.940222 -0500,
all_stimuli/MST_pairs1/pair_22_nsd_115_2_cocoid_65194.png,24,0,24,24,0,,,,,,0,0,1,5,1,"[9, 21, 31, 45, 56, 68, 69]",2,0,1.9219579569908092,0.48398641700623557,None,None,None,,,,,,,,,,,1,0,1,0,0,24,24,24,635.225195542007,,,,,,,,,,,,,,,,,,,,,,,,,,,,,,,,,,,,,,634.6966208340018,634.6968305420014,635.2217437090003,635.225195542007,635.225195542007,635.225195542007,635.225195542007,638.2163839999994,638.2163839999994,638.6998725000012,2,0,1.9219579569908092,0.48398641700623557,None,638.700039000003,638.7000919590064,None,638.7001453340054,638.7001867090003,None,,,,,,,,,,,4,5,0,0,2025-02-06_12h23.14.618,rtmindeye,2024.2.4,None,2025-02-06 12h23.39.940222 -0500,
all_stimuli/shared1000_notspecial/notspecial_26292.png,25,0,25,25,0,,,,,,0,0,1,5,1,"[9, 21, 31, 45, 56, 68, 69]",1,1,1.0086620000074618,0.5739857909939019,None,None,None,,,,,,,,,,,1,0,1,0,0,25,25,25,638.9045413340064,,,,,,,,,,,,,,,,,,,,,,,,,,,,,,,,,,,,,,638.700624709003,638.7007948750106,638.8983473750122,638.9045413340064,638.9045413340064,638.9045413340064,638.9045413340064,641.8980755000084,641.8980755000084,642.7128392500017,1,1,1.0086620000074618,0.5739857909939019,None,642.7131985840097,642.7132916670089,None,642.7133888750104,642.7134790000127,None,,,,,,,,,,,4,5,0,0,2025-02-06_12h23.14.618,rtmindeye,2024.2.4,None,2025-02-06 12h23.39.940222 -0500,
all_stimuli/special515/special_6489.jpg,26,0,26,26,0,,,,,,1,0,1,5,1,"[9, 21, 31, 45, 56, 68, 69]",2,1,1.0905032499867957,0.7120206250110641,None,None,None,,,,,,,,,,,1,0,1,0,0,26,26,26,642.8076502500044,,,,,,,,,,,,,,,,,,,,,,,,,,,,,,,,,,,,,,642.7142702499987,642.7145845420018,642.8042107090005,642.8076502500044,642.8076502500044,642.8076502500044,642.8076502500044,645.7996409590123,645.7996409590123,646.7168898750097,2,1,1.0905032499867957,0.7120206250110641,None,646.7170743340102,646.7171213340043,None,646.7171753750008,646.7172159590118,None,,,,,,,,,,,4,5,0,0,2025-02-06_12h23.14.618,rtmindeye,2024.2.4,None,2025-02-06 12h23.39.940222 -0500,
all_stimuli/special515/special_55678.jpg,27,0,27,27,0,,,,,,0,0,1,5,1,"[9, 21, 31, 45, 56, 68, 69]",1,1,0.9224930409982335,0.6450288750056643,None,None,None,,,,,,,,,,,1,0,1,0,0,27,27,27,646.9676422090124,,,,,,,,,,,,,,,,,,,,,,,,,,,,,,,,,,,,,,646.7176330000075,646.7178086670028,646.964357542005,646.9676422090124,646.9676422090124,646.9676422090124,646.9676422090124,649.9649814170116,649.9649814170116,650.7289930840052,1,1,0.9224930409982335,0.6450288750056643,None,650.7292344170128,650.7293127090088,None,650.7294640420005,650.7295385000034,None,,,,,,,,,,,4,5,0,0,2025-02-06_12h23.14.618,rtmindeye,2024.2.4,None,2025-02-06 12h23.39.940222 -0500,
all_stimuli/special515/special_40909.jpg,28,0,28,28,0,,,,,,0,0,1,5,1,"[9, 21, 31, 45, 56, 68, 69]",1,1,1.2157901659957133,0.3920132920029573,None,None,None,,,,,,,,,,,1,0,1,0,0,28,28,28,651.1104243750015,,,,,,,,,,,,,,,,,,,,,,,,,,,,,,,,,,,,,,650.7301135419984,650.7303511250066,651.1037855000031,651.1104243750015,651.1104243750015,651.1104243750015,651.1104243750015,654.0994754170097,654.0994754170097,654.733188875005,1,1,1.2157901659957133,0.3920132920029573,None,654.7333619590063,654.7334080840083,None,654.7334670420096,654.7335077919997,None,,,,,,,,,,,4,5,0,0,2025-02-06_12h23.14.618,rtmindeye,2024.2.4,None,2025-02-06 12h23.39.940222 -0500,
all_stimuli/special515/special_70360.jpg,29,0,29,29,0,,,,,,0,0,1,5,1,"[9, 21, 31, 45, 56, 68, 69]",1,1,2.486091499988106,None,None,None,None,,,,,,,,,,,1,0,1,0,0,29,29,29,654.9341011250071,,,,,,,,,,,,,,,,,,,,,,,,,,,,,,,,,,,,,,654.7339474590117,654.7341200420051,654.9305032500124,654.9341011250071,654.9341011250071,654.9341011250071,654.9341011250071,657.934357917009,657.934357917009,658.7458512090088,1,1,2.486091499988106,None,None,658.7461675000086,658.7462383750099,None,658.7463086670032,658.7463505420019,None,,,,,,,,,,,4,5,0,0,2025-02-06_12h23.14.618,rtmindeye,2024.2.4,None,2025-02-06 12h23.39.940222 -0500,
all_stimuli/MST_pairs1/pair_42_w_icerink1.jpg,30,0,30,30,0,,,,,,0,0,1,5,1,"[9, 21, 31, 45, 56, 68, 69]",2,0,2.190493832997163,0.585997000001953,None,None,None,,,,,,,,,,,1,0,1,0,0,30,30,30,658.9686839170026,,,,,,,,,,,,,,,,,,,,,,,,,,,,,,,,,,,,,,658.7468013340113,658.7469890840002,658.9651539590122,658.9686839170026,658.9686839170026,658.9686839170026,658.9686839170026,661.965614042012,661.965614042012,662.748678584001,2,0,2.190493832997163,0.585997000001953,None,662.7488271670009,662.7488640420052,None,662.7489069170115,662.7489395000011,None,,,,,,,,,,,4,5,0,0,2025-02-06_12h23.14.618,rtmindeye,2024.2.4,None,2025-02-06 12h23.39.940222 -0500,
blank.jpg,31,1,31,31,0,,,,,,0,0,1,5,1,"[9, 21, 31, 45, 56, 68, 69]",None,0,,,None,None,None,,,,,,,,,,,1,0,1,0,0,31,31,31,662.94396504201,,,,,,,,,,,,,,,,,,,,,,,,,,,,,,,,,,,,,,662.7493050839985,662.7494439590082,662.9367058339994,662.94396504201,662.94396504201,662.94396504201,662.94396504201,665.9317412920063,665.9317412920063,666.7628602500045,None,0,,,None,666.7632042920013,666.7632975840097,None,666.7634054590017,666.7634867090092,None,,,,,,,,,,,4,5,0,0,2025-02-06_12h23.14.618,rtmindeye,2024.2.4,None,2025-02-06 12h23.39.940222 -0500,
all_stimuli/special515/special_30430.jpg,32,0,32,32,0,,,,,,1,0,1,5,1,"[9, 21, 31, 45, 56, 68, 69]",2,1,1.2424076659954153,0.7419778750045225,None,None,None,,,,,,,,,,,1,0,1,0,0,32,32,32,666.9508026250114,,,,,,,,,,,,,,,,,,,,,,,,,,,,,,,,,,,,,,666.7642707920022,666.764514792012,666.9473150000122,666.9508026250114,666.9508026250114,666.9508026250114,666.9508026250114,669.9484226670029,669.9484226670029,670.7662429170014,2,1,1.2424076659954153,0.7419778750045225,None,670.7664203750028,670.7664656250126,None,670.7665187500097,670.7665590420074,None,,,,,,,,,,,4,5,0,0,2025-02-06_12h23.14.618,rtmindeye,2024.2.4,None,2025-02-06 12h23.39.940222 -0500,
all_stimuli/shared1000_notspecial/notspecial_43746.png,33,0,33,33,0,,,,,,0,0,1,5,1,"[9, 21, 31, 45, 56, 68, 69]",1,1,0.809286500007147,0.44397804100299254,None,None,None,,,,,,,,,,,1,0,1,0,0,33,33,33,670.9579307500098,,,,,,,,,,,,,,,,,,,,,,,,,,,,,,,,,,,,,,670.7669957920007,670.7671601670008,670.9542409999995,670.9579307500098,670.9579307500098,670.9579307500098,670.9579307500098,673.9498244999995,673.9498244999995,674.7791071250103,1,1,0.809286500007147,0.44397804100299254,None,674.779413042008,674.7795344590122,None,674.779623334005,674.7796805420076,None,,,,,,,,,,,4,5,0,0,2025-02-06_12h23.14.618,rtmindeye,2024.2.4,None,2025-02-06 12h23.39.940222 -0500,
all_stimuli/MST_pairs1/pair_34_nsd_875_1_cocoid_67762.png,34,0,34,34,0,,,,,,0,0,1,5,1,"[9, 21, 31, 45, 56, 68, 69]",1,1,0.7102039160090499,0.3879907919908874,None,None,None,,,,,,,,,,,1,0,1,0,0,34,34,34,675.0510807920073,,,,,,,,,,,,,,,,,,,,,,,,,,,,,,,,,,,,,,674.7802607090125,674.7804830840032,675.047038625009,675.0510807920073,675.0510807920073,675.0510807920073,675.0510807920073,678.0486562500009,678.0486562500009,678.7838842920028,1,1,0.7102039160090499,0.3879907919908874,None,678.7840705420094,678.7841184999997,None,678.7841731250082,678.7842150420038,None,,,,,,,,,,,4,5,0,0,2025-02-06_12h23.14.618,rtmindeye,2024.2.4,None,2025-02-06 12h23.39.940222 -0500,
all_stimuli/MST_pairs1/pair_12_16_78.png,35,0,35,35,0,,,,,,1,0,1,5,1,"[9, 21, 31, 45, 56, 68, 69]",2,1,0.911240291010472,0.4079944579862058,None,None,None,,,,,,,,,,,1,0,1,0,0,35,35,35,678.8789733750018,,,,,,,,,,,,,,,,,,,,,,,,,,,,,,,,,,,,,,678.7846760000102,678.7848447920114,678.8754999170051,678.8789733750018,678.8789733750018,678.8789733750018,678.8789733750018,681.8660809590074,681.8660809590074,682.7954784169997,2,1,0.911240291010472,0.4079944579862058,None,682.7957062500063,682.7957723340078,None,682.7959187500092,682.796004333999,None,,,,,,,,,,,4,5,0,0,2025-02-06_12h23.14.618,rtmindeye,2024.2.4,None,2025-02-06 12h23.39.940222 -0500,
all_stimuli/special515/special_4249.jpg,36,0,36,36,0,,,,,,1,0,1,5,1,"[9, 21, 31, 45, 56, 68, 69]",2,1,1.0023187909973785,0.5689787500014063,None,None,None,,,,,,,,,,,1,0,1,0,0,36,36,36,682.8759038749995,,,,,,,,,,,,,,,,,,,,,,,,,,,,,,,,,,,,,,682.7966357500118,682.7968635420111,682.8725088339997,682.8759038749995,682.8759038749995,682.8759038749995,682.8759038749995,685.8659272500081,685.8659272500081,686.8000632500043,2,1,1.0023187909973785,0.5689787500014063,None,686.8002326249989,686.8002812090126,None,686.8003380000009,686.8003853750124,None,,,,,,,,,,,4,5,0,0,2025-02-06_12h23.14.618,rtmindeye,2024.2.4,None,2025-02-06 12h23.39.940222 -0500,
all_stimuli/MST_pairs1/pair_42_w_icerink2.jpg,37,0,37,37,0,,,,,,1,0,1,5,1,"[9, 21, 31, 45, 56, 68, 69]",2,1,1.4961399990133941,0.40500220899411943,None,None,None,,,,,,,,,,,1,0,1,0,0,37,37,37,686.895145167,,,,,,,,,,,,,,,,,,,,,,,,,,,,,,,,,,,,,,686.8008338750078,686.8010029590077,686.8886388750107,686.895145167,686.895145167,686.895145167,686.895145167,689.8819541670091,689.8819541670091,690.8122665840056,2,1,1.4961399990133941,0.40500220899411943,None,690.8124863750127,690.8125755000074,None,690.8126493340096,690.8127647920046,None,,,,,,,,,,,4,5,0,0,2025-02-06_12h23.14.618,rtmindeye,2024.2.4,None,2025-02-06 12h23.39.940222 -0500,
all_stimuli/shared1000_notspecial/notspecial_70038.png,38,0,38,38,0,,,,,,0,0,1,5,1,"[9, 21, 31, 45, 56, 68, 69]",1,1,1.7579098749993136,0.4719880829943577,None,None,None,,,,,,,,,,,1,0,1,0,0,38,38,38,690.9733116670104,,,,,,,,,,,,,,,,,,,,,,,,,,,,,,,,,,,,,,690.8133312920108,690.8135337090062,690.9698977500084,690.9733116670104,690.9733116670104,690.9733116670104,690.9733116670104,693.9664152090118,693.9664152090118,694.8154748750094,1,1,1.7579098749993136,0.4719880829943577,None,694.8156443340122,694.8156849170045,None,694.8157380000048,694.8157788750104,None,,,,,,,,,,,4,5,0,0,2025-02-06_12h23.14.618,rtmindeye,2024.2.4,None,2025-02-06 12h23.39.940222 -0500,
all_stimuli/special515/special_53155.jpg,39,0,39,39,0,,,,,,0,0,1,5,1,"[9, 21, 31, 45, 56, 68, 69]",1,1,1.6625334989948897,0.4580045830080053,None,None,None,,,,,,,,,,,1,0,1,0,0,39,39,39,694.961695792008,,,,,,,,,,,,,,,,,,,,,,,,,,,,,,,,,,,,,,694.8161764170072,694.8163278749998,694.9581377090071,694.961695792008,694.961695792008,694.961695792008,694.961695792008,697.949242542003,697.949242542003,698.8168310000037,1,1,1.6625334989948897,0.4580045830080053,None,698.8170092500077,698.8170557920093,None,698.8171152090072,698.817155584009,None,,,,,,,,,,,4,5,0,0,2025-02-06_12h23.14.618,rtmindeye,2024.2.4,None,2025-02-06 12h23.39.940222 -0500,
all_stimuli/special515/special_24530.jpg,40,0,40,40,0,,,,,,1,0,1,5,1,"[9, 21, 31, 45, 56, 68, 69]",2,1,1.4908084990020143,0.38002079199941363,None,None,None,,,,,,,,,,,1,0,1,0,0,40,40,40,698.9814960840013,,,,,,,,,,,,,,,,,,,,,,,,,,,,,,,,,,,,,,698.8175935420004,698.8177607920079,698.975143750009,698.9814960840013,698.9814960840013,698.9814960840013,698.9814960840013,701.9791305420076,701.9791305420076,702.8293752500031,2,1,1.4908084990020143,0.38002079199941363,None,702.8297862090112,702.829878125005,None,702.8299855000078,702.8300626670098,None,,,,,,,,,,,4,5,0,0,2025-02-06_12h23.14.618,rtmindeye,2024.2.4,None,2025-02-06 12h23.39.940222 -0500,
all_stimuli/special515/special_32232.jpg,41,0,41,41,0,,,,,,0,0,1,5,1,"[9, 21, 31, 45, 56, 68, 69]",1,1,1.456133375002537,0.5540312499942956,None,None,None,,,,,,,,,,,1,0,1,0,0,41,41,41,702.9830965840083,,,,,,,,,,,,,,,,,,,,,,,,,,,,,,,,,,,,,,702.830860209011,702.8311313750019,702.9794355420017,702.9830965840083,702.9830965840083,702.9830965840083,702.9830965840083,705.9787547919987,705.9787547919987,706.8333425000019,1,1,1.456133375002537,0.5540312499942956,None,706.8335197500128,706.8335680000018,None,706.8336310000013,706.833675834001,None,,,,,,,,,,,4,5,0,0,2025-02-06_12h23.14.618,rtmindeye,2024.2.4,None,2025-02-06 12h23.39.940222 -0500,
all_stimuli/special515/special_41814.jpg,42,0,42,42,0,,,,,,0,0,1,5,1,"[9, 21, 31, 45, 56, 68, 69]",1,1,0.9287850000109756,0.5629972079914296,None,None,None,,,,,,,,,,,1,0,1,0,0,42,42,42,706.9525146670057,,,,,,,,,,,,,,,,,,,,,,,,,,,,,,,,,,,,,,706.8341084590065,706.834284084005,706.94898783401,706.9525146670057,706.9525146670057,706.9525146670057,706.9525146670057,709.9504235839995,709.9504235839995,710.8369240419997,1,1,0.9287850000109756,0.5629972079914296,None,710.8370628340053,710.8371026670065,None,710.8371475000022,710.8371776249987,None,,,,,,,,,,,4,5,0,0,2025-02-06_12h23.14.618,rtmindeye,2024.2.4,None,2025-02-06 12h23.39.940222 -0500,
all_stimuli/shared1000_notspecial/notspecial_23883.png,43,0,43,43,0,,,,,,0,0,1,5,1,"[9, 21, 31, 45, 56, 68, 69]",1,1,2.117714249994606,0.39602141600335017,None,None,None,,,,,,,,,,,1,0,1,0,0,43,43,43,711.0166017920128,,,,,,,,,,,,,,,,,,,,,,,,,,,,,,,,,,,,,,710.8375134590024,710.8376532090042,711.0113289590081,711.0166017920128,711.0166017920128,711.0166017920128,711.0166017920128,714.0120474170108,714.0120474170108,714.8458586670022,1,1,2.117714249994606,0.39602141600335017,None,714.8461421250104,714.8462405000028,None,714.8463464590022,714.8465246250125,None,,,,,,,,,,,4,5,0,0,2025-02-06_12h23.14.618,rtmindeye,2024.2.4,None,2025-02-06 12h23.39.940222 -0500,
all_stimuli/shared1000_notspecial/notspecial_4436.png,44,0,44,44,0,,,,,,0,0,1,5,1,"[9, 21, 31, 45, 56, 68, 69]",1,1,0.8069121659937082,0.6029730000009295,None,None,None,,,,,,,,,,,1,0,1,0,0,44,44,44,715.0103895420034,,,,,,,,,,,,,,,,,,,,,,,,,,,,,,,,,,,,,,714.8473228750081,714.8476318340108,715.0070205420052,715.0103895420034,715.0103895420034,715.0103895420034,715.0103895420034,717.998988959007,717.998988959007,718.8501075420063,1,1,0.8069121659937082,0.6029730000009295,None,718.8503091669991,718.85036029201,None,718.8504175840062,718.8504579170112,None,,,,,,,,,,,4,5,0,0,2025-02-06_12h23.14.618,rtmindeye,2024.2.4,None,2025-02-06 12h23.39.940222 -0500,
blank.jpg,45,1,45,45,0,,,,,,0,0,1,5,1,"[9, 21, 31, 45, 56, 68, 69]",None,0,,,None,None,None,,,,,,,,,,,1,0,1,0,0,45,45,45,718.9397361250012,,,,,,,,,,,,,,,,,,,,,,,,,,,,,,,,,,,,,,718.8508993340074,718.8510704170039,718.9362018750107,718.9397361250012,718.9397361250012,718.9397361250012,718.9397361250012,721.9338048339996,721.9338048339996,722.8620250840031,None,0,,,None,722.8621696670016,722.8622114590107,None,722.8622612920008,722.8622992500023,None,,,,,,,,,,,4,5,0,0,2025-02-06_12h23.14.618,rtmindeye,2024.2.4,None,2025-02-06 12h23.39.940222 -0500,
all_stimuli/special515/special_61133.jpg,46,0,46,46,0,,,,,,1,0,1,5,1,"[9, 21, 31, 45, 56, 68, 69]",2,1,1.495777748990804,0.48999879200709984,None,None,None,,,,,,,,,,,1,0,1,0,0,46,46,46,722.9384980000032,,,,,,,,,,,,,,,,,,,,,,,,,,,,,,,,,,,,,,722.8627368750022,722.8628870000102,722.9352285420027,722.9384980000032,722.9384980000032,722.9384980000032,722.9384980000032,725.9325511250063,725.9325511250063,726.865498625004,2,1,1.495777748990804,0.48999879200709984,None,726.8656522090023,726.8656933340098,None,726.8657412090106,726.8657769590063,None,,,,,,,,,,,4,5,0,0,2025-02-06_12h23.14.618,rtmindeye,2024.2.4,None,2025-02-06 12h23.39.940222 -0500,
all_stimuli/MST_pairs1/pair_24_nsd_158_2_cocoid_3673.png,47,0,47,47,0,,,,,,0,0,1,5,1,"[9, 21, 31, 45, 56, 68, 69]",1,1,2.2003902909928,0.6560124160023406,['2'],None,None,,,,,[3.059375665994594],[0.3030457499990007],,,,,1,0,1,0,0,47,47,47,727.2839518750116,,,,,,,,,,,,,,,,,,,,,,,,,,,,,,,,,,,,,,726.8661826250027,726.8663405000116,727.2805587090115,727.2839518750116,727.2839518750116,727.2839518750116,727.2839518750116,730.2827133340033,730.2827133340033,730.8794117920042,1,1,2.2003902909928,0.6560124160023406,['2'],730.8799048750079,730.8799940419995,None,730.8800920000067,730.8801769999991,None,,,,,,,,,[3.059375665994594],[0.3030457499990007],4,5,0,0,2025-02-06_12h23.14.618,rtmindeye,2024.2.4,None,2025-02-06 12h23.39.940222 -0500,
all_stimuli/MST_pairs1/pair_34_nsd_875_2_cocoid_72398.png,48,0,48,48,0,,,,,,0,0,1,5,1,"[9, 21, 31, 45, 56, 68, 69]",1,1,2.347190165994107,0.4150361670035636,None,None,None,,,,,,,,,,,1,0,1,0,0,48,48,48,731.247170542003,,,,,,,,,,,,,,,,,,,,,,,,,,,,,,,,,,,,,,730.8809873340069,730.8813164169987,731.2444174590055,731.247170542003,731.247170542003,731.247170542003,731.247170542003,734.2462267500086,734.2462267500086,734.8822963340062,1,1,2.347190165994107,0.4150361670035636,None,734.8824712920032,734.8825153340003,None,734.882565500011,734.8826078340062,None,,,,,,,,,,,4,5,0,0,2025-02-06_12h23.14.618,rtmindeye,2024.2.4,None,2025-02-06 12h23.39.940222 -0500,
all_stimuli/shared1000_notspecial/notspecial_51965.png,49,0,49,49,0,,,,,,0,0,1,5,1,"[9, 21, 31, 45, 56, 68, 69]",1,1,1.8919261660048505,0.42599033399892505,None,None,None,,,,,,,,,,,1,0,1,0,0,49,49,49,735.0703706670029,,,,,,,,,,,,,,,,,,,,,,,,,,,,,,,,,,,,,,734.8830048340023,734.8831693750108,735.0668426250049,735.0703706670029,735.0703706670029,735.0703706670029,735.0703706670029,738.0654148340109,738.0654148340109,738.8956571669987,1,1,1.8919261660048505,0.42599033399892505,None,738.8958752500039,738.8959408750088,None,738.8960613750096,738.8961391670018,None,,,,,,,,,,,4,5,0,0,2025-02-06_12h23.14.618,rtmindeye,2024.2.4,None,2025-02-06 12h23.39.940222 -0500,
all_stimuli/MST_pairs1/pair_30_nsd_676_1_cocoid_48729.png,50,0,50,50,0,,,,,,0,0,1,5,1,"[9, 21, 31, 45, 56, 68, 69]",2,0,2.284522457004641,0.25700229199719615,None,None,None,,,,,,,,,,,1,0,1,0,0,50,50,50,739.170805709,,,,,,,,,,,,,,,,,,,,,,,,,,,,,,,,,,,,,,738.8966612920049,738.8968162500096,739.1674241670116,739.170805709,739.170805709,739.170805709,739.170805709,742.1662324170029,742.1662324170029,742.8986789590126,2,0,2.284522457004641,0.25700229199719615,None,742.8988630420063,742.8989100420004,None,742.898969959002,742.8990154170024,None,,,,,,,,,,,4,5,0,0,2025-02-06_12h23.14.618,rtmindeye,2024.2.4,None,2025-02-06 12h23.39.940222 -0500,
all_stimuli/shared1000_notspecial/notspecial_52328.png,51,0,51,51,0,,,,,,0,0,1,5,1,"[9, 21, 31, 45, 56, 68, 69]",1,1,1.0132573330047308,0.4429980830027489,None,None,None,,,,,,,,,,,1,0,1,0,0,51,51,51,743.0790601250046,,,,,,,,,,,,,,,,,,,,,,,,,,,,,,,,,,,,,,742.8994520000124,742.8996227500029,743.0754680840037,743.0790601250046,743.0790601250046,743.0790601250046,743.0790601250046,746.0653997500049,746.0653997500049,746.9141565840109,1,1,1.0132573330047308,0.4429980830027489,None,746.9143662090064,746.9144155420072,None,746.9144667090004,746.9145046670019,None,,,,,,,,,,,4,5,0,0,2025-02-06_12h23.14.618,rtmindeye,2024.2.4,None,2025-02-06 12h23.39.940222 -0500,
all_stimuli/MST_pairs1/pair_4_6_44.png,52,0,52,52,0,,,,,,0,0,1,5,1,"[9, 21, 31, 45, 56, 68, 69]",1,1,1.068267166003352,0.44402125000488013,None,None,None,,,,,,,,,,,1,0,1,0,0,52,52,52,747.1041039590054,,,,,,,,,,,,,,,,,,,,,,,,,,,,,,,,,,,,,,746.9150309590041,746.9153297500015,747.0997004590026,747.1041039590054,747.1041039590054,747.1041039590054,747.1041039590054,750.1000811670092,750.1000811670092,750.9174895000033,1,1,1.068267166003352,0.44402125000488013,None,750.9176707090082,750.9177115839993,None,750.9177606250014,750.9178043749998,None,,,,,,,,,,,4,5,0,0,2025-02-06_12h23.14.618,rtmindeye,2024.2.4,None,2025-02-06 12h23.39.940222 -0500,
all_stimuli/MST_pairs1/pair_48_w_runway1.jpg,53,0,53,53,0,,,,,,0,0,1,5,1,"[9, 21, 31, 45, 56, 68, 69]",1,1,0.6507025409955531,0.591993124995497,None,None,None,,,,,,,,,,,1,0,1,0,0,53,53,53,751.071745084002,,,,,,,,,,,,,,,,,,,,,,,,,,,,,,,,,,,,,,750.9182570000121,750.918437750006,751.067984334004,751.071745084002,751.071745084002,751.071745084002,751.071745084002,754.0670702920033,754.0670702920033,754.9296121250081,1,1,0.6507025409955531,0.591993124995497,None,754.9298678340128,754.9299212920014,None,754.9299980420037,754.930091000002,None,,,,,,,,,,,4,5,0,0,2025-02-06_12h23.14.618,rtmindeye,2024.2.4,None,2025-02-06 12h23.39.940222 -0500,
all_stimuli/special515/special_40840.jpg,54,0,54,54,0,,,,,,1,0,1,5,1,"[9, 21, 31, 45, 56, 68, 69]",2,1,0.8675032489991281,0.4199669579975307,None,None,None,,,,,,,,,,,1,0,1,0,0,54,54,54,755.0379983340099,,,,,,,,,,,,,,,,,,,,,,,,,,,,,,,,,,,,,,754.9306110000034,754.9308019590098,755.0341201250121,755.0379983340099,755.0379983340099,755.0379983340099,755.0379983340099,758.0335602090054,758.0335602090054,758.93400066701,2,1,0.8675032489991281,0.4199669579975307,None,758.9342288750049,758.9342690000049,None,758.9343387500121,758.9343726250081,None,,,,,,,,,,,4,5,0,0,2025-02-06_12h23.14.618,rtmindeye,2024.2.4,None,2025-02-06 12h23.39.940222 -0500,
all_stimuli/shared1000_notspecial/notspecial_12487.png,55,0,55,55,0,,,,,,0,0,1,5,1,"[9, 21, 31, 45, 56, 68, 69]",1,1,1.2975622079975437,0.5490136250009527,None,None,None,,,,,,,,,,,1,0,1,0,0,55,55,55,759.0878199170111,,,,,,,,,,,,,,,,,,,,,,,,,,,,,,,,,,,,,,758.9348782500019,758.9351521670033,759.083802292007,759.0878199170111,759.0878199170111,759.0878199170111,759.0878199170111,762.0832718340098,762.0832718340098,762.9464636670018,1,1,1.2975622079975437,0.5490136250009527,None,762.9467967500095,762.9468812920095,None,762.947035834004,762.9471052500012,None,,,,,,,,,,,4,5,0,0,2025-02-06_12h23.14.618,rtmindeye,2024.2.4,None,2025-02-06 12h23.39.940222 -0500,
blank.jpg,56,1,56,56,0,,,,,,0,0,1,5,1,"[9, 21, 31, 45, 56, 68, 69]",None,0,,,None,None,None,,,,,,,,,,,1,0,1,0,0,56,56,56,763.081649084008,,,,,,,,,,,,,,,,,,,,,,,,,,,,,,,,,,,,,,762.9477890840062,762.9481212090031,763.07631170901,763.081649084008,763.081649084008,763.081649084008,763.081649084008,766.0796407090093,766.0796407090093,766.9498532920115,None,0,,,None,766.950046834012,766.9500964170002,None,766.9501529590052,766.9501906670048,None,,,,,,,,,,,4,5,0,0,2025-02-06_12h23.14.618,rtmindeye,2024.2.4,None,2025-02-06 12h23.39.940222 -0500,
all_stimuli/MST_pairs1/pair_16_20_0.png,57,0,57,57,0,,,,,,1,0,1,5,1,"[9, 21, 31, 45, 56, 68, 69]",2,1,1.3873020829923917,0.3640131249994738,None,None,None,,,,,,,,,,,1,0,1,0,0,57,57,57,767.0641491670103,,,,,,,,,,,,,,,,,,,,,,,,,,,,,,,,,,,,,,766.9507147500117,766.9510009170044,767.0601122090011,767.0641491670103,767.0641491670103,767.0641491670103,767.0641491670103,770.0626803750056,770.0626803750056,770.963168250004,2,1,1.3873020829923917,0.3640131249994738,None,770.9635131670075,770.9635973340046,None,770.9637763339997,770.9638583339984,None,,,,,,,,,,,4,5,0,0,2025-02-06_12h23.14.618,rtmindeye,2024.2.4,None,2025-02-06 12h23.39.940222 -0500,
all_stimuli/shared1000_notspecial/notspecial_12685.png,58,0,58,58,0,,,,,,0,0,1,5,1,"[9, 21, 31, 45, 56, 68, 69]",1,1,2.1361550820001867,0.7540454170084558,None,None,None,,,,,,,,,,,1,0,1,0,0,58,58,58,771.1992827500071,,,,,,,,,,,,,,,,,,,,,,,,,,,,,,,,,,,,,,770.9645276670053,770.9648384169996,771.1955643340043,771.1992827500071,771.1992827500071,771.1992827500071,771.1992827500071,774.1960636250005,774.1960636250005,774.9666376250098,1,1,2.1361550820001867,0.7540454170084558,None,774.966780458999,774.9668199170119,None,774.9668645000056,774.9669002500013,None,,,,,,,,,,,4,5,0,0,2025-02-06_12h23.14.618,rtmindeye,2024.2.4,None,2025-02-06 12h23.39.940222 -0500,
all_stimuli/MST_pairs1/pair_36_nsd_949_2_cocoid_60031.png,59,0,59,59,0,,,,,,0,0,1,5,1,"[9, 21, 31, 45, 56, 68, 69]",2,0,0.9295398329995805,0.39600274999975227,None,None,None,,,,,,,,,,,1,0,1,0,0,59,59,59,775.1878697089996,,,,,,,,,,,,,,,,,,,,,,,,,,,,,,,,,,,,,,774.9672694590117,774.9674248750089,775.184055500009,775.1878697089996,775.1878697089996,775.1878697089996,775.1878697089996,778.1848373340035,778.1848373340035,778.9806691670092,2,0,0.9295398329995805,0.39600274999975227,None,778.9808859590121,778.9809397920035,None,778.9809992920054,778.981036000012,None,,,,,,,,,,,4,5,0,0,2025-02-06_12h23.14.618,rtmindeye,2024.2.4,None,2025-02-06 12h23.39.940222 -0500,
all_stimuli/shared1000_notspecial/notspecial_34068.png,60,0,60,60,0,,,,,,0,0,1,5,1,"[9, 21, 31, 45, 56, 68, 69]",1,1,1.8333418740076013,0.38601733298855834,None,None,None,,,,,,,,,,,1,0,1,0,0,60,60,60,779.1630164590024,,,,,,,,,,,,,,,,,,,,,,,,,,,,,,,,,,,,,,778.9814801250031,778.9816903340106,779.1571554170077,779.1630164590024,779.1630164590024,779.1630164590024,779.1630164590024,782.1496953340102,782.1496953340102,782.9839389170083,1,1,1.8333418740076013,0.38601733298855834,None,782.9841310839984,782.9841820420115,None,782.9842403750081,782.9842779590108,None,,,,,,,,,,,4,5,0,0,2025-02-06_12h23.14.618,rtmindeye,2024.2.4,None,2025-02-06 12h23.39.940222 -0500,
all_stimuli/special515/special_11159.jpg,61,0,61,61,0,,,,,,0,0,1,5,1,"[9, 21, 31, 45, 56, 68, 69]",1,1,1.8229728320002323,0.8739612089993898,None,None,None,,,,,,,,,,,1,0,1,0,0,61,61,61,783.143435334001,,,,,,,,,,,,,,,,,,,,,,,,,,,,,,,,,,,,,,782.9847089590039,782.9848960420059,783.1383217920084,783.143435334001,783.143435334001,783.143435334001,783.143435334001,786.1330980839994,786.1330980839994,786.9962584590103,1,1,1.8229728320002323,0.8739612089993898,None,786.9964636670047,786.9965341670031,None,786.9966089590016,786.9966521250026,None,,,,,,,,,,,4,5,0,0,2025-02-06_12h23.14.618,rtmindeye,2024.2.4,None,2025-02-06 12h23.39.940222 -0500,
all_stimuli/MST_pairs1/pair_34_nsd_875_2_cocoid_72398.png,62,0,62,62,0,,,,,,1,0,1,5,1,"[9, 21, 31, 45, 56, 68, 69]",2,1,1.7744897909869906,0.44695225000032224,None,None,None,,,,,,,,,,,1,0,1,0,0,62,62,62,787.09604170901,,,,,,,,,,,,,,,,,,,,,,,,,,,,,,,,,,,,,,786.9972122500039,786.9973980420036,787.0925684590038,787.09604170901,787.09604170901,787.09604170901,787.09604170901,790.0834097090119,790.0834097090119,791.0010705840104,2,1,1.7744897909869906,0.44695225000032224,None,791.0012764999992,791.0013204590068,None,791.0013763340103,791.001416375002,None,,,,,,,,,,,4,5,0,0,2025-02-06_12h23.14.618,rtmindeye,2024.2.4,None,2025-02-06 12h23.39.940222 -0500,
all_stimuli/special515/special_67742.jpg,63,0,63,63,0,,,,,,0,0,1,5,1,"[9, 21, 31, 45, 56, 68, 69]",1,1,1.9289271239977097,0.7069617920060409,None,None,None,,,,,,,,,,,1,0,1,0,0,63,63,63,791.1875502920011,,,,,,,,,,,,,,,,,,,,,,,,,,,,,,,,,,,,,,791.0018736250058,791.0021541250026,791.183405333999,791.1875502920011,791.1875502920011,791.1875502920011,791.1875502920011,794.184949750008,794.184949750008,795.0137383750116,1,1,1.9289271239977097,0.7069617920060409,None,795.0139538340009,795.0139983750123,None,795.0140623750049,795.0140972500085,None,,,,,,,,,,,4,5,0,0,2025-02-06_12h23.14.618,rtmindeye,2024.2.4,None,2025-02-06 12h23.39.940222 -0500,
all_stimuli/MST_pairs1/pair_48_w_runway2.jpg,64,0,64,64,0,,,,,,0,0,1,5,1,"[9, 21, 31, 45, 56, 68, 69]",1,1,2.7054952079924988,None,None,None,None,,,,,,,,,,,1,0,1,0,0,64,64,64,795.2249310000043,,,,,,,,,,,,,,,,,,,,,,,,,,,,,,,,,,,,,,795.0145827090018,795.0148844170035,795.2207360419998,795.2249310000043,795.2249310000043,795.2249310000043,795.2249310000043,798.2162862920086,798.2162862920086,799.0179185419984,1,1,2.7054952079924988,None,None,799.0180447919993,799.0180848340096,None,799.0181280420074,799.0181575419992,None,,,,,,,,,,,4,5,0,0,2025-02-06_12h23.14.618,rtmindeye,2024.2.4,None,2025-02-06 12h23.39.940222 -0500,
all_stimuli/MST_pairs1/pair_40_w_escalator1.jpg,65,0,65,65,0,,,,,,0,0,1,5,1,"[9, 21, 31, 45, 56, 68, 69]",None,0,,,['2'],None,None,,,,,[3.247281374002341],[0.0840136250044452],,,,,1,0,1,0,0,65,65,65,799.1880936670059,,,,,,,,,,,,,,,,,,,,,,,,,,,,,,,,,,,,,,799.0185386670055,799.0186521249998,799.1823717500083,799.1880936670059,799.1880936670059,799.1880936670059,799.1880936670059,802.1841989170061,802.1841989170061,803.0296366250113,None,0,,,['2'],803.0300010000065,803.0300908750069,None,803.0301749589999,803.0302486670116,None,,,,,,,,,[3.247281374002341],[0.0840136250044452],4,5,0,0,2025-02-06_12h23.14.618,rtmindeye,2024.2.4,None,2025-02-06 12h23.39.940222 -0500,
all_stimuli/special515/special_62228.jpg,66,0,66,66,0,,,,,,1,0,1,5,1,"[9, 21, 31, 45, 56, 68, 69]",1,0,0.955499540999881,0.3079957080044551,None,None,None,,,,,,,,,,,1,0,1,0,0,66,66,66,803.4599116669997,,,,,,,,,,,,,,,,,,,,,,,,,,,,,,,,,,,,,,803.0309182920028,803.0311623750022,803.4542099590035,803.4599116669997,803.4599116669997,803.4599116669997,803.4599116669997,806.4488843340077,806.4488843340077,807.0321251249989,1,0,0.955499540999881,0.3079957080044551,None,807.032305959001,807.0323630420025,None,807.0324167920044,807.0324584590126,None,,,,,,,,,,,4,5,0,0,2025-02-06_12h23.14.618,rtmindeye,2024.2.4,None,2025-02-06 12h23.39.940222 -0500,
all_stimuli/MST_pairs1/pair_26_nsd_483_2_cocoid_8054.png,67,0,67,67,0,,,,,,0,0,1,5,1,"[9, 21, 31, 45, 56, 68, 69]",1,1,1.2254377489880426,0.46098470900324173,None,None,None,,,,,,,,,,,1,0,1,0,0,67,67,67,807.3169610000041,,,,,,,,,,,,,,,,,,,,,,,,,,,,,,,,,,,,,,807.0329053340101,807.033075542,807.3132985840057,807.3169610000041,807.3169610000041,807.3169610000041,807.3169610000041,810.3157090419991,810.3157090419991,811.0332129590097,1,1,1.2254377489880426,0.46098470900324173,None,811.0334035420092,811.03345716701,None,811.0335137090005,811.0335550419986,None,,,,,,,,,,,4,5,0,0,2025-02-06_12h23.14.618,rtmindeye,2024.2.4,None,2025-02-06 12h23.39.940222 -0500,
blank.jpg,68,1,68,68,0,,,,,,0,0,1,5,1,"[9, 21, 31, 45, 56, 68, 69]",None,0,,,None,None,None,,,,,,,,,,,1,0,1,0,0,68,68,68,811.1090718340129,,,,,,,,,,,,,,,,,,,,,,,,,,,,,,,,,,,,,,811.0340066250064,811.0341655000084,811.1056977920089,811.1090718340129,811.1090718340129,811.1090718340129,811.1090718340129,814.0989161670004,814.0989161670004,815.045792667006,None,0,,,None,815.0460012090043,815.0460667090083,None,815.0462217090098,815.0464027920098,None,,,,,,,,,,,4,5,0,0,2025-02-06_12h23.14.618,rtmindeye,2024.2.4,None,2025-02-06 12h23.39.940222 -0500,
blank.jpg,69,1,69,69,0,,,,,,0,1,1,5,0,"[9, 21, 31, 45, 56, 68, 69]",None,0,,,None,1,equal,34.72974675000296,None,22.570598956997856,None,,,,,,,1,0,1,0,0,69,69,69,815.107148125011,,,,,,,,,,,,,,,,,,,,,,,,,,,,,,,,,,,,,,815.0469857920107,815.0472147500113,815.1024094590102,815.107148125011,815.107148125011,815.107148125011,815.107148125011,818.0993496250012,818.0993496250012,819.0484904170007,None,0,,,None,819.0570917920122,853.7986190000083,1,853.798791209003,876.3817268340063,equal,819.0619027920038,819.0619027920038,34.72974675000296,None,853.8050760840124,853.8050760840124,22.570598956997856,None,,,4,5,0,0,2025-02-06_12h23.14.618,rtmindeye,2024.2.4,None,2025-02-06 12h23.39.940222 -0500,
,,,1,0,1,,,,,,,,,,,,,,,,,,,,,,,,,,,,,1,0,1,0,,,,,,,,,,,,,,,,,,,,,,,,,,,,,,,,,,,,,,,,,,,,,,,,,,,,,,,,,,,,,,,,,,,,,,,,,,4,5,0,0,2025-02-06_12h23.14.618,rtmindeye,2024.2.4,None,2025-02-06 12h23.39.940222 -0500,
all_stimuli/shared1000_notspecial/notspecial_19672.png,0,0,0,0,0,,,,,,0,0,2,5,1,"[9, 21, 31, 45, 56, 68, 69]",1,1,0.9174795830040239,0.37499349999416154,None,None,None,,,,,,,,,,,2,0,2,0,0,0,0,0,876.7511219170119,,,,,,,,,,,,,,,,,,,,,,,,,,,,,,,,,,,,,,876.542753709,876.5431106250035,876.7448135000013,876.7511219170119,876.7511219170119,876.7511219170119,876.7511219170119,879.748432834007,879.748432834007,880.5465445000009,1,1,0.9174795830040239,0.37499349999416154,None,880.5467442500085,880.5468062090076,None,880.5468672499992,880.5469100840128,None,,,,,,,,,,,4,5,0,0,2025-02-06_12h23.14.618,rtmindeye,2024.2.4,None,2025-02-06 12h23.39.940222 -0500,
