current_image,trial_index,is_blank_trial,thisN,thisTrialN,thisRepN,press_if_repeat_2.keys,press_if_repeat_2.corr,all_keys_pressed_2.keys,is_repeat,is_new_run,run_num,sess_num,is_not_last_trial,all_blanks_list,press_if_repeat.keys,press_if_repeat.corr,press_if_repeat.rt,press_if_repeat.duration,all_keys_pressed.keys,key_resp_5.keys,key_resp_4.keys,key_resp_5.rt,key_resp_5.duration,key_resp_4.rt,key_resp_4.duration,all_keys_pressed.rt,all_keys_pressed.duration,practice.thisRepN,practice.thisTrialN,practice.thisN,practice.thisIndex,loop_runs.thisRepN,loop_runs.thisTrialN,loop_runs.thisN,loop_runs.thisIndex,loop_all_images.thisRepN,loop_all_images.thisTrialN,loop_all_images.thisN,loop_all_images.thisIndex,thisRow.t,notes,set_up.started,set_up.stopped,practice_continue.started,practice_continue.stopped,key_resp_6.keys,practice_trial.started,practice_trial.stopped,practice.press_if_repeat_2.keys,practice.press_if_repeat_2.corr,practice.all_keys_pressed_2.keys,testing_continue.started,testing_continue.stopped,key_resp_7.keys,waiting_fmri.started,key_resp_2.started,text_3.started,waiting_fmri.stopped,key_resp_2.keys,key_resp_2.rt,key_resp_2.duration,set_skips_and_correct_key.started,set_skips_and_correct_key.stopped,trial.started,image.started,press_if_repeat.started,polygon.started,all_keys_pressed.started,image.stopped,press_if_repeat.stopped,trial.stopped,loop_all_images.press_if_repeat.keys,loop_all_images.press_if_repeat.corr,loop_all_images.press_if_repeat.rt,loop_all_images.press_if_repeat.duration,loop_all_images.all_keys_pressed.keys,run_wait2_2.started,run_wait2_2.stopped,loop_all_images.key_resp_5.keys,waiting_fmri_2.started,waiting_fmri_2.stopped,loop_all_images.key_resp_4.keys,polygon.stopped,all_keys_pressed.stopped,key_resp_5.started,text_5.started,loop_all_images.key_resp_5.rt,loop_all_images.key_resp_5.duration,key_resp_4.started,text_4.started,loop_all_images.key_resp_4.rt,loop_all_images.key_resp_4.duration,loop_all_images.all_keys_pressed.rt,loop_all_images.all_keys_pressed.duration,participant,session (1 2 or 3),starting_run,skip_practice,date,expName,psychopyVersion,frameRate,expStart,
,,,,,,,,,,,,,,,,,,,,,,,,,,,,,,,,,,,,,,,,,,0.0016182000108528882,0.0016818000003695488,,,,,,,,,,,,,,,,,,,,,,,,,,,,,,,,,,,,,,,,,,,,,,,,,,,,8,3,0,1,2025-06-12_14h34.12.097,rtmindeye,2024.2.4,60.00279612714228,2025-06-12 14h34.22.260633 -0400,
,,,,,,,,,,,,,,,,,,,,,,,,,,,,,,,,,,,,,,,,,,,,0.005916599999181926,0.005944500007899478,None,,,,,,,,,,,,,,,,,,,,,,,,,,,,,,,,,,,,,,,,,,,,,,,,,8,3,0,1,2025-06-12_14h34.12.097,rtmindeye,2024.2.4,60.00279612714228,2025-06-12 14h34.22.260633 -0400,
practice_images/w_kitchen2.jpg,0,0,0,0,0,None,0,None,,,,,,,,,,,,,,,,,,,,0,0,0,0,,,,,,,,,0.08036399999400601,,,,,,,0.022907900012796745,0.022947799996472895,None,0,None,,,,,,,,,,,,,,,,,,,,,,,,,,,,,,,,,,,,,,,,,,,,8,3,0,1,2025-06-12_14h34.12.097,rtmindeye,2024.2.4,60.00279612714228,2025-06-12 14h34.22.260633 -0400,
practice_images/w_boardwalk2.jpg,1,0,1,1,0,None,0,None,,,,,,,,,,,,,,,,,,,,0,1,1,1,,,,,,,,,0.08036399999400601,,,,,,,0.029437699995469302,0.029471699992427602,None,0,None,,,,,,,,,,,,,,,,,,,,,,,,,,,,,,,,,,,,,,,,,,,,8,3,0,1,2025-06-12_14h34.12.097,rtmindeye,2024.2.4,60.00279612714228,2025-06-12 14h34.22.260633 -0400,
practice_images/w_monument2.jpg,2,0,2,2,0,None,0,None,,,,,,,,,,,,,,,,,,,,0,2,2,2,,,,,,,,,0.08036399999400601,,,,,,,0.034862700005760416,0.03489660000195727,None,0,None,,,,,,,,,,,,,,,,,,,,,,,,,,,,,,,,,,,,,,,,,,,,8,3,0,1,2025-06-12_14h34.12.097,rtmindeye,2024.2.4,60.00279612714228,2025-06-12 14h34.22.260633 -0400,
practice_images/w_auditorium2.jpg,3,0,3,3,0,None,0,None,,,,,,,,,,,,,,,,,,,,0,3,3,3,,,,,,,,,0.08036399999400601,,,,,,,0.04061100000399165,0.0406418000056874,None,0,None,,,,,,,,,,,,,,,,,,,,,,,,,,,,,,,,,,,,,,,,,,,,8,3,0,1,2025-06-12_14h34.12.097,rtmindeye,2024.2.4,60.00279612714228,2025-06-12 14h34.22.260633 -0400,
practice_images/w_kitchen2.jpg,4,0,4,4,0,None,0,None,,,,,,,,,,,,,,,,,,,,0,4,4,4,,,,,,,,,0.08036399999400601,,,,,,,0.04448179999599233,0.04451289999997243,None,0,None,,,,,,,,,,,,,,,,,,,,,,,,,,,,,,,,,,,,,,,,,,,,8,3,0,1,2025-06-12_14h34.12.097,rtmindeye,2024.2.4,60.00279612714228,2025-06-12 14h34.22.260633 -0400,
practice_images/w_auditorium1.jpg,5,0,5,5,0,None,0,None,,,,,,,,,,,,,,,,,,,,0,5,5,5,,,,,,,,,0.08036399999400601,,,,,,,0.05055070001981221,0.05058179999468848,None,0,None,,,,,,,,,,,,,,,,,,,,,,,,,,,,,,,,,,,,,,,,,,,,8,3,0,1,2025-06-12_14h34.12.097,rtmindeye,2024.2.4,60.00279612714228,2025-06-12 14h34.22.260633 -0400,
practice_images/w_bedroom2.jpg,6,0,6,6,0,None,0,None,,,,,,,,,,,,,,,,,,,,0,6,6,6,,,,,,,,,0.08036399999400601,,,,,,,0.05658150001545437,0.05661260001943447,None,0,None,,,,,,,,,,,,,,,,,,,,,,,,,,,,,,,,,,,,,,,,,,,,8,3,0,1,2025-06-12_14h34.12.097,rtmindeye,2024.2.4,60.00279612714228,2025-06-12 14h34.22.260633 -0400,
practice_images/w_kitchen1.jpg,7,0,7,7,0,None,0,None,,,,,,,,,,,,,,,,,,,,0,7,7,7,,,,,,,,,0.08036399999400601,,,,,,,0.06242780000320636,0.06246449999161996,None,0,None,,,,,,,,,,,,,,,,,,,,,,,,,,,,,,,,,,,,,,,,,,,,8,3,0,1,2025-06-12_14h34.12.097,rtmindeye,2024.2.4,60.00279612714228,2025-06-12 14h34.22.260633 -0400,
practice_images/w_bedroom1.jpg,8,0,8,8,0,None,0,None,,,,,,,,,,,,,,,,,,,,0,8,8,8,,,,,,,,,0.08036399999400601,,,,,,,0.06846219999715686,0.06850650001433678,None,0,None,,,,,,,,,,,,,,,,,,,,,,,,,,,,,,,,,,,,,,,,,,,,8,3,0,1,2025-06-12_14h34.12.097,rtmindeye,2024.2.4,60.00279612714228,2025-06-12 14h34.22.260633 -0400,
practice_images/w_monument2.jpg,9,0,9,9,0,None,0,None,,,,,,,,,,,,,,,,,,,,0,9,9,9,,,,,,,,,0.08036399999400601,,,,,,,0.07207190000917763,0.07211710000410676,None,0,None,,,,,,,,,,,,,,,,,,,,,,,,,,,,,,,,,,,,,,,,,,,,8,3,0,1,2025-06-12_14h34.12.097,rtmindeye,2024.2.4,60.00279612714228,2025-06-12 14h34.22.260633 -0400,
,,,,,,,,,,,,,,,,,,,,,,,,,,,,,,,,,,,,,,,,,,,,,,,,,,,,0.07797169999685138,0.07799760001944378,None,,,,,,,,,,,,,,,,,,,,,,,,,,,,,,,,,,,,,,,,,8,3,0,1,2025-06-12_14h34.12.097,rtmindeye,2024.2.4,60.00279612714228,2025-06-12 14h34.22.260633 -0400,
,,,,,,,,,,,,,,,,,,,,,,,,,,,,,,,,,,,,,,,,,,,,,,,,,,,,,,,0.07802119999541901,0.08036399999400601,0.08036399999400601,99.64301420000265,equal,99.54043700001785,None,,,,,,,,,,,,,,,,,,,,,,,,,,,,,,,,,,8,3,0,1,2025-06-12_14h34.12.097,rtmindeye,2024.2.4,60.00279612714228,2025-06-12 14h34.22.260633 -0400,
all_stimuli/special515/special_13613.jpg,0,0,0,0,0,,,,0,0,0,3,1,"[9, 21, 31, 45, 56, 68, 69]",1,1,0.9655831000127364,0.3329504999855999,None,None,None,,,,,,,,,,,0,0,0,0,0,0,0,0,99.69015300000319,,,,,,,,,,,,,,,,,,,,,,99.67752990001463,99.67757870000787,99.68635609999183,99.69015300000319,99.69015300000319,99.69015300000319,99.69015300000319,102.69949749999796,102.69949749999796,103.6828393000178,1,1,0.9655831000127364,0.3329504999855999,None,103.68290960000013,103.68293440001435,None,103.6829582999926,103.68297680001706,None,,,,,,,,,,,,,8,3,0,1,2025-06-12_14h34.12.097,rtmindeye,2024.2.4,60.00279612714228,2025-06-12 14h34.22.260633 -0400,
all_stimuli/shared1000_notspecial/notspecial_31049.png,1,0,1,1,0,,,,0,0,0,3,1,"[9, 21, 31, 45, 56, 68, 69]",1,1,1.0284624000196345,0.2839664999919478,None,None,None,,,,,,,,,,,0,0,0,0,0,1,1,1,103.6993594999949,,,,,,,,,,,,,,,,,,,,,,103.68312500001048,103.6831683999917,103.69237090001116,103.6993594999949,103.6993594999949,103.6993594999949,103.6993594999949,106.69916300001205,106.69916300001205,107.68280169999343,1,1,1.0284624000196345,0.2839664999919478,None,107.68286460000672,107.6828846000135,None,107.68290810001781,107.68292500000098,None,107.69973200000823,107.69973200000823,,,,,,,,,,,8,3,0,1,2025-06-12_14h34.12.097,rtmindeye,2024.2.4,60.00279612714228,2025-06-12 14h34.22.260633 -0400,
all_stimuli/special515/special_28096.jpg,2,0,2,2,0,,,,0,0,0,3,1,"[9, 21, 31, 45, 56, 68, 69]",1,1,0.8650259999849368,0.3008624000067357,None,None,None,,,,,,,,,,,0,0,0,0,0,2,2,2,107.69973200000823,,,,,,,,,,,,,,,,,,,,,,107.6830683000153,107.68310829999973,107.69136920000892,107.69973200000823,107.69973200000823,107.69973200000823,107.69973200000823,110.69940129999304,110.69940129999304,111.68304750000243,1,1,0.8650259999849368,0.3008624000067357,None,111.68311220000032,111.68313429999398,None,111.68315799999982,111.68317520001438,None,111.69919869999285,111.69919869999285,,,,,,,,,,,8,3,0,1,2025-06-12_14h34.12.097,rtmindeye,2024.2.4,60.00279612714228,2025-06-12 14h34.22.260633 -0400,
all_stimuli/shared1000_notspecial/notspecial_68471.png,3,0,3,3,0,,,,0,0,0,3,1,"[9, 21, 31, 45, 56, 68, 69]",1,1,0.8684661999868695,0.3910706000169739,None,None,None,,,,,,,,,,,0,0,0,0,0,3,3,3,111.69919869999285,,,,,,,,,,,,,,,,,,,,,,111.68332609999925,111.68336490000365,111.6935410000151,111.69919869999285,111.69919869999285,111.69919869999285,111.69919869999285,114.69949749999796,114.69949749999796,115.68293559999438,1,1,0.8684661999868695,0.3910706000169739,None,115.68300119999913,115.68302090000361,None,115.68304520001402,115.68306219999795,None,115.69968180000433,115.69968180000433,,,,,,,,,,,8,3,0,1,2025-06-12_14h34.12.097,rtmindeye,2024.2.4,60.00279612714228,2025-06-12 14h34.22.260633 -0400,
all_stimuli/special515/special_15506.jpg,4,0,4,4,0,,,,0,0,0,3,1,"[9, 21, 31, 45, 56, 68, 69]",1,1,1.0019858999876305,0.48820930000511,None,None,None,,,,,,,,,,,0,0,0,0,0,4,4,4,115.69968180000433,,,,,,,,,,,,,,,,,,,,,,115.68321149999974,115.68324969999958,115.6915765000158,115.69968180000433,115.69968180000433,115.69968180000433,115.69968180000433,118.6993877000059,118.6993877000059,119.682404399995,1,1,1.0019858999876305,0.48820930000511,None,119.68246820001514,119.68248920000042,None,119.68251300000702,119.68253000002005,None,119.7002238999994,119.7002238999994,,,,,,,,,,,8,3,0,1,2025-06-12_14h34.12.097,rtmindeye,2024.2.4,60.00279612714228,2025-06-12 14h34.22.260633 -0400,
all_stimuli/MST_pairs1/pair_24_nsd_158_1_cocoid_2285.png,5,0,5,5,0,,,,0,0,0,3,1,"[9, 21, 31, 45, 56, 68, 69]",1,1,0.8625414999842178,0.3789896000234876,None,None,None,,,,,,,,,,,0,0,0,0,0,5,5,5,119.7002238999994,,,,,,,,,,,,,,,,,,,,,,119.6826745000144,119.68271290001576,119.69826750000357,119.7002238999994,119.7002238999994,119.7002238999994,119.7002238999994,122.69922430001316,122.69922430001316,123.68287640000926,1,1,0.8625414999842178,0.3789896000234876,None,123.6829476999992,123.68296870001359,None,123.68299269999261,123.68301010000869,None,,,,,,,,,,,,,8,3,0,1,2025-06-12_14h34.12.097,rtmindeye,2024.2.4,60.00279612714228,2025-06-12 14h34.22.260633 -0400,
all_stimuli/MST_pairs1/pair_10_14_89.png,6,0,6,6,0,,,,0,0,0,3,1,"[9, 21, 31, 45, 56, 68, 69]",1,1,0.8542682999977842,0.3160269999934826,None,None,None,,,,,,,,,,,0,0,0,0,0,6,6,6,123.69939640001394,,,,,,,,,,,,,,,,,,,,,,123.68315840000287,123.68320160001167,123.69347410000046,123.69939640001394,123.69939640001394,123.69939640001394,123.69939640001394,126.69938249999541,126.69938249999541,127.68274780001957,1,1,0.8542682999977842,0.3160269999934826,None,127.6828111000068,127.68283140001586,None,127.68285589999869,127.68287290001172,None,127.69970399999875,127.69970399999875,,,,,,,,,,,8,3,0,1,2025-06-12_14h34.12.097,rtmindeye,2024.2.4,60.00279612714228,2025-06-12 14h34.22.260633 -0400,
all_stimuli/special515/special_62015.jpg,7,0,7,7,0,,,,0,0,0,3,1,"[9, 21, 31, 45, 56, 68, 69]",1,1,0.7539611000102013,0.4711560999858193,None,None,None,,,,,,,,,,,0,0,0,0,0,7,7,7,127.69970399999875,,,,,,,,,,,,,,,,,,,,,,127.68301639999845,127.6830556000059,127.69039580001845,127.69970399999875,127.69970399999875,127.69970399999875,127.69970399999875,130.69933840000886,130.69933840000886,131.68279240000993,1,1,0.7539611000102013,0.4711560999858193,None,131.68285630000173,131.68287789999158,None,131.6829018999997,131.6829190000135,None,131.69962349999696,131.69962349999696,,,,,,,,,,,8,3,0,1,2025-06-12_14h34.12.097,rtmindeye,2024.2.4,60.00279612714228,2025-06-12 14h34.22.260633 -0400,
all_stimuli/special515/special_47687.jpg,8,0,8,8,0,,,,0,0,0,3,1,"[9, 21, 31, 45, 56, 68, 69]",1,1,0.7911996000038926,0.435995300009381,None,None,None,,,,,,,,,,,0,0,0,0,0,8,8,8,131.69962349999696,,,,,,,,,,,,,,,,,,,,,,131.68306430001394,131.68310600001132,131.69052609999198,131.69962349999696,131.69962349999696,131.69962349999696,131.69962349999696,134.69926860000123,134.69926860000123,135.68245749999187,1,1,0.7911996000038926,0.435995300009381,None,135.68252010000288,135.68254130001878,None,135.68256459999247,135.68258230001084,None,135.6995281999989,135.6995281999989,,,,,,,,,,,8,3,0,1,2025-06-12_14h34.12.097,rtmindeye,2024.2.4,60.00279612714228,2025-06-12 14h34.22.260633 -0400,
blank.jpg,9,1,9,9,0,,,,0,0,0,3,1,"[9, 21, 31, 45, 56, 68, 69]",None,0,,,None,None,None,,,,,,,,,,,0,0,0,0,0,9,9,9,135.6995281999989,,,,,,,,,,,,,,,,,,,,,,135.68272480001906,135.68276359999436,135.68897439999273,135.6995281999989,135.6995281999989,135.6995281999989,135.6995281999989,138.6989889999968,138.6989889999968,139.68251680000685,None,0,,,None,139.68257520001498,139.68259589999798,None,139.6826199000061,139.6826367000176,None,139.69984240000485,139.69984240000485,,,,,,,,,,,8,3,0,1,2025-06-12_14h34.12.097,rtmindeye,2024.2.4,60.00279612714228,2025-06-12 14h34.22.260633 -0400,
all_stimuli/special515/special_4249.jpg,10,0,10,10,0,,,,0,0,0,3,1,"[9, 21, 31, 45, 56, 68, 69]",1,1,0.8008219999901485,0.4410736999998335,None,None,None,,,,,,,,,,,0,0,0,0,0,10,10,10,139.69984240000485,,,,,,,,,,,,,,,,,,,,,,139.6827798000013,139.6828175999981,139.69017919999897,139.69984240000485,139.69984240000485,139.69984240000485,139.69984240000485,142.69944250001572,142.69944250001572,143.68264350001118,1,1,0.8008219999901485,0.4410736999998335,None,143.68283860001247,143.68286040000385,None,143.68288470001426,143.68290179999894,None,143.69966230000136,143.69966230000136,,,,,,,,,,,8,3,0,1,2025-06-12_14h34.12.097,rtmindeye,2024.2.4,60.00279612714228,2025-06-12 14h34.22.260633 -0400,
all_stimuli/special515/special_54361.jpg,11,0,11,11,0,,,,0,0,0,3,1,"[9, 21, 31, 45, 56, 68, 69]",1,1,0.8910733000084292,0.44590819999575615,None,None,None,,,,,,,,,,,0,0,0,0,0,11,11,11,143.69966230000136,,,,,,,,,,,,,,,,,,,,,,143.68304440000793,143.68308439999237,143.690875100001,143.69966230000136,143.69966230000136,143.69966230000136,143.69966230000136,146.6993691000098,146.6993691000098,147.68268060000264,1,1,0.8910733000084292,0.44590819999575615,None,147.6827459000051,147.6827669000195,None,147.68279069999699,147.68280760000926,None,147.69964820001042,147.69964820001042,,,,,,,,,,,8,3,0,1,2025-06-12_14h34.12.097,rtmindeye,2024.2.4,60.00279612714228,2025-06-12 14h34.22.260633 -0400,
all_stimuli/special515/special_6489.jpg,12,0,12,12,0,,,,0,0,0,3,1,"[9, 21, 31, 45, 56, 68, 69]",1,1,1.1869861999875866,0.4030833000142593,None,None,None,,,,,,,,,,,0,0,0,0,0,12,12,12,147.69964820001042,,,,,,,,,,,,,,,,,,,,,,147.68295479999506,147.68299329999718,147.6909843000176,147.69964820001042,147.69964820001042,147.69964820001042,147.69964820001042,150.6993952000048,150.6993952000048,151.6829115000146,1,1,1.1869861999875866,0.4030833000142593,None,151.68297580000944,151.6829973999993,None,151.6830217000097,151.68303899999592,None,151.6995939000044,151.6995939000044,,,,,,,,,,,8,3,0,1,2025-06-12_14h34.12.097,rtmindeye,2024.2.4,60.00279612714228,2025-06-12 14h34.22.260633 -0400,
all_stimuli/special515/special_38641.jpg,13,0,13,13,0,,,,0,0,0,3,1,"[9, 21, 31, 45, 56, 68, 69]",1,1,0.9040982000005897,0.3829895000089891,None,None,None,,,,,,,,,,,0,0,0,0,0,13,13,13,151.6995939000044,,,,,,,,,,,,,,,,,,,,,,151.68318769999314,151.6832265999983,151.69084009999642,151.6995939000044,151.6995939000044,151.6995939000044,151.6995939000044,154.69931540000835,154.69931540000835,155.68266240000958,1,1,0.9040982000005897,0.3829895000089891,None,155.68272589999833,155.68274760001805,None,155.68277210000088,155.6827896000177,None,155.6995269000181,155.6995269000181,,,,,,,,,,,8,3,0,1,2025-06-12_14h34.12.097,rtmindeye,2024.2.4,60.00279612714228,2025-06-12 14h34.22.260633 -0400,
all_stimuli/shared1000_notspecial/notspecial_67168.png,14,0,14,14,0,,,,0,0,0,3,1,"[9, 21, 31, 45, 56, 68, 69]",1,1,0.7820686999766622,0.4220715000119526,None,None,None,,,,,,,,,,,0,0,0,0,0,14,14,14,155.6995269000181,,,,,,,,,,,,,,,,,,,,,,155.68293460001587,155.68297250001342,155.69174639999983,155.6995269000181,155.6995269000181,155.6995269000181,155.6995269000181,158.69923540001037,158.69923540001037,159.68264310000814,1,1,0.7820686999766622,0.4220715000119526,None,159.68270730000222,159.68272840001737,None,159.68275229999563,159.68276980001247,None,159.69925200002035,159.69925200002035,,,,,,,,,,,8,3,0,1,2025-06-12_14h34.12.097,rtmindeye,2024.2.4,60.00279612714228,2025-06-12 14h34.22.260633 -0400,
all_stimuli/shared1000_notspecial/notspecial_59079.png,15,0,15,15,0,,,,0,0,0,3,1,"[9, 21, 31, 45, 56, 68, 69]",1,1,0.8094270000001416,0.43607329999213107,None,None,None,,,,,,,,,,,0,0,0,0,0,15,15,15,159.69925200002035,,,,,,,,,,,,,,,,,,,,,,159.68291289999615,159.68295529999887,159.69359810001333,159.69925200002035,159.69925200002035,159.69925200002035,159.69925200002035,162.69927030001418,162.69927030001418,163.68265960001736,1,1,0.8094270000001416,0.43607329999213107,None,163.68272300000535,163.68274300001212,None,163.68276680001873,163.68278440000722,None,163.6996511000034,163.6996511000034,,,,,,,,,,,8,3,0,1,2025-06-12_14h34.12.097,rtmindeye,2024.2.4,60.00279612714228,2025-06-12 14h34.22.260633 -0400,
all_stimuli/MST_pairs1/pair_2_4_89.png,16,0,16,16,0,,,,0,0,0,3,1,"[9, 21, 31, 45, 56, 68, 69]",1,1,1.0451204999990296,0.44990940002026036,None,None,None,,,,,,,,,,,0,0,0,0,0,16,16,16,163.6996511000034,,,,,,,,,,,,,,,,,,,,,,163.68292660001316,163.68296930001816,163.692435200006,163.6996511000034,163.6996511000034,163.6996511000034,163.6996511000034,166.69930860001477,166.69930860001477,167.68255329999374,1,1,1.0451204999990296,0.44990940002026036,None,167.68261750001693,167.68263769999612,None,167.68266270001186,167.68267979999655,None,167.6992622000107,167.6992622000107,,,,,,,,,,,8,3,0,1,2025-06-12_14h34.12.097,rtmindeye,2024.2.4,60.00279612714228,2025-06-12 14h34.22.260633 -0400,
all_stimuli/shared1000_notspecial/notspecial_26127.png,17,0,17,17,0,,,,0,0,0,3,1,"[9, 21, 31, 45, 56, 68, 69]",1,1,0.96141789999092,0.4291416000050958,None,None,None,,,,,,,,,,,0,0,0,0,0,17,17,17,167.6992622000107,,,,,,,,,,,,,,,,,,,,,,167.68282360001467,167.68286200001603,167.6918163000082,167.6992622000107,167.6992622000107,167.6992622000107,167.6992622000107,170.6992850000097,170.6992850000097,171.68262410000898,1,1,0.96141789999092,0.4291416000050958,None,171.68268670001999,171.68270689999918,None,171.68273050000425,171.68274790002033,None,171.69901030001347,171.69901030001347,,,,,,,,,,,8,3,0,1,2025-06-12_14h34.12.097,rtmindeye,2024.2.4,60.00279612714228,2025-06-12 14h34.22.260633 -0400,
all_stimuli/shared1000_notspecial/notspecial_20223.png,18,0,18,18,0,,,,0,0,0,3,1,"[9, 21, 31, 45, 56, 68, 69]",1,1,0.7766985000052955,0.3929578999814112,None,None,None,,,,,,,,,,,0,0,0,0,0,18,18,18,171.69901030001347,,,,,,,,,,,,,,,,,,,,,,171.68289120000554,171.68293310000445,171.69247539999196,171.69901030001347,171.69901030001347,171.69901030001347,171.69901030001347,174.6993405999965,174.6993405999965,175.6824411000125,1,1,0.7766985000052955,0.3929578999814112,None,175.68250460000127,175.68252540001413,None,175.6825506000023,175.68256780001684,None,175.69968180000433,175.69968180000433,,,,,,,,,,,8,3,0,1,2025-06-12_14h34.12.097,rtmindeye,2024.2.4,60.00279612714228,2025-06-12 14h34.22.260633 -0400,
all_stimuli/special515/special_62015.jpg,19,0,19,19,0,,,,1,0,0,3,1,"[9, 21, 31, 45, 56, 68, 69]",2,1,0.7679695000115316,0.43497410000418313,None,None,None,,,,,,,,,,,0,0,0,0,0,19,19,19,175.69968180000433,,,,,,,,,,,,,,,,,,,,,,175.68271270001424,175.68275460001314,175.69035980000626,175.69968180000433,175.69968180000433,175.69968180000433,175.69968180000433,178.69931130000623,178.69931130000623,179.68241360000684,2,1,0.7679695000115316,0.43497410000418313,None,179.68247850000625,179.68249989999458,None,179.68252400000347,179.68254090001574,None,179.69922670000233,179.69922670000233,,,,,,,,,,,8,3,0,1,2025-06-12_14h34.12.097,rtmindeye,2024.2.4,60.00279612714228,2025-06-12 14h34.22.260633 -0400,
all_stimuli/special515/special_10244.jpg,20,0,20,20,0,,,,0,0,0,3,1,"[9, 21, 31, 45, 56, 68, 69]",1,1,0.8915670999849681,0.4087710000167135,None,None,None,,,,,,,,,,,0,0,0,0,0,20,20,20,179.69922670000233,,,,,,,,,,,,,,,,,,,,,,179.68268790000002,179.6827259999991,179.69011399999727,179.69922670000233,179.69922670000233,179.69922670000233,179.69922670000233,182.69912500001374,182.69912500001374,183.68262080001296,1,1,0.8915670999849681,0.4087710000167135,None,183.682684600004,183.68270560001838,None,183.68272919999436,183.68274600000586,None,183.6993005000113,183.6993005000113,,,,,,,,,,,8,3,0,1,2025-06-12_14h34.12.097,rtmindeye,2024.2.4,60.00279612714228,2025-06-12 14h34.22.260633 -0400,
blank.jpg,21,1,21,21,0,,,,0,0,0,3,1,"[9, 21, 31, 45, 56, 68, 69]",None,0,,,None,None,None,,,,,,,,,,,0,0,0,0,0,21,21,21,183.6993005000113,,,,,,,,,,,,,,,,,,,,,,183.68289300001925,183.68293179999455,183.68912759999512,183.6993005000113,183.6993005000113,183.6993005000113,183.6993005000113,186.69922140002018,186.69922140002018,187.68240089999745,None,0,,,None,187.6824590000033,187.68248000001768,None,187.6825034999929,187.68252120001125,None,187.69961440001498,187.69961440001498,,,,,,,,,,,8,3,0,1,2025-06-12_14h34.12.097,rtmindeye,2024.2.4,60.00279612714228,2025-06-12 14h34.22.260633 -0400,
all_stimuli/special515/special_28524.jpg,22,0,22,22,0,,,,0,0,0,3,1,"[9, 21, 31, 45, 56, 68, 69]",1,1,0.7280426000070293,0.5069163999869488,None,None,None,,,,,,,,,,,0,0,0,0,0,22,22,22,187.69961440001498,,,,,,,,,,,,,,,,,,,,,,187.6826634000172,187.68270120001398,187.69016600001487,187.69961440001498,187.69961440001498,187.69961440001498,187.69961440001498,190.69917030000943,190.69917030000943,191.6826504000055,1,1,0.7280426000070293,0.5069163999869488,None,191.68272050001542,191.6827423000068,None,191.68276620001416,191.6827833999996,None,191.69928980001714,191.69928980001714,,,,,,,,,,,8,3,0,1,2025-06-12_14h34.12.097,rtmindeye,2024.2.4,60.00279612714228,2025-06-12 14h34.22.260633 -0400,
all_stimuli/special515/special_30430.jpg,23,0,23,23,0,,,,0,0,0,3,1,"[9, 21, 31, 45, 56, 68, 69]",1,1,0.8523896000115201,0.5710520000138786,None,None,None,,,,,,,,,,,0,0,0,0,0,23,23,23,191.69928980001714,,,,,,,,,,,,,,,,,,,,,,191.68293470001663,191.68297419999726,191.69095750001725,191.69928980001714,191.69928980001714,191.69928980001714,191.69928980001714,194.69885970000178,194.69885970000178,195.68271170000662,1,1,0.8523896000115201,0.5710520000138786,None,195.6827746000199,195.68279550000443,None,195.68281850000494,195.68283530001645,None,195.69918399999733,195.69918399999733,,,,,,,,,,,8,3,0,1,2025-06-12_14h34.12.097,rtmindeye,2024.2.4,60.00279612714228,2025-06-12 14h34.22.260633 -0400,
all_stimuli/MST_pairs1/pair_10_14_33.png,24,0,24,24,0,,,,0,0,0,3,1,"[9, 21, 31, 45, 56, 68, 69]",2,0,1.0414617999922484,0.4841430000087712,None,None,None,,,,,,,,,,,0,0,0,0,0,24,24,24,195.69918399999733,,,,,,,,,,,,,,,,,,,,,,195.68297910000547,195.6830209000036,195.69331349999993,195.69918399999733,195.69918399999733,195.69918399999733,195.69918399999733,198.69919370001298,198.69919370001298,199.68280300000333,2,0,1.0414617999922484,0.4841430000087712,None,199.6828680000035,199.6828899999964,None,199.68291550001595,199.68293470001663,None,199.699234300002,199.699234300002,,,,,,,,,,,8,3,0,1,2025-06-12_14h34.12.097,rtmindeye,2024.2.4,60.00279612714228,2025-06-12 14h34.22.260633 -0400,
all_stimuli/shared1000_notspecial/notspecial_10907.png,25,0,25,25,0,,,,0,0,0,3,1,"[9, 21, 31, 45, 56, 68, 69]",2,0,0.8823524000181351,0.38320199999725446,None,None,None,,,,,,,,,,,0,0,0,0,0,25,25,25,199.699234300002,,,,,,,,,,,,,,,,,,,,,,199.6830922999943,199.6831322000071,199.69244640000397,199.699234300002,199.699234300002,199.699234300002,199.699234300002,202.69917550001992,202.69917550001992,203.68258439999772,2,0,0.8823524000181351,0.38320199999725446,None,203.68264780001482,203.6826677999925,None,203.68269240000518,203.68270950001897,None,203.6997721999942,203.6997721999942,,,,,,,,,,,8,3,0,1,2025-06-12_14h34.12.097,rtmindeye,2024.2.4,60.00279612714228,2025-06-12 14h34.22.260633 -0400,
all_stimuli/special515/special_22587.jpg,26,0,26,26,0,,,,0,0,0,3,1,"[9, 21, 31, 45, 56, 68, 69]",1,1,0.8818127999838907,0.46799890001420863,None,None,None,,,,,,,,,,,0,0,0,0,0,26,26,26,203.6997721999942,,,,,,,,,,,,,,,,,,,,,,203.682853300008,203.68289540000842,203.69008369999938,203.6997721999942,203.6997721999942,203.6997721999942,203.6997721999942,206.69908869999927,206.69908869999927,207.68252950001624,1,1,0.8818127999838907,0.46799890001420863,None,207.6825935000088,207.68261509999866,None,207.68263900000602,207.6826561000198,None,207.69943470001454,207.69943470001454,,,,,,,,,,,8,3,0,1,2025-06-12_14h34.12.097,rtmindeye,2024.2.4,60.00279612714228,2025-06-12 14h34.22.260633 -0400,
all_stimuli/special515/special_3687.jpg,27,0,27,27,0,,,,0,0,0,3,1,"[9, 21, 31, 45, 56, 68, 69]",1,1,0.9401703999901656,0.35995919999550097,None,None,None,,,,,,,,,,,0,0,0,0,0,27,27,27,207.69943470001454,,,,,,,,,,,,,,,,,,,,,,207.68280529999174,207.68284359999234,207.6914708999975,207.69943470001454,207.69943470001454,207.69943470001454,207.69943470001454,210.6991321000096,210.6991321000096,211.68267360000755,1,1,0.9401703999901656,0.35995919999550097,None,211.68273620001855,211.68275710000307,None,211.68278020000434,211.68279750001966,None,211.69922710000537,211.69922710000537,,,,,,,,,,,8,3,0,1,2025-06-12_14h34.12.097,rtmindeye,2024.2.4,60.00279612714228,2025-06-12 14h34.22.260633 -0400,
all_stimuli/shared1000_notspecial/notspecial_58164.png,28,0,28,28,0,,,,0,0,0,3,1,"[9, 21, 31, 45, 56, 68, 69]",1,1,0.8935066999983974,0.3737904000154231,None,None,None,,,,,,,,,,,0,0,0,0,0,28,28,28,211.69922710000537,,,,,,,,,,,,,,,,,,,,,,211.68294130000868,211.68297970001004,211.69216910001705,211.69922710000537,211.69922710000537,211.69922710000537,211.69922710000537,214.69884699999238,214.69884699999238,215.6827656000096,1,1,0.8935066999983974,0.3737904000154231,None,215.68282760001603,215.68284819999826,None,215.68287230000715,215.68288969999412,None,215.6996951000183,215.6996951000183,,,,,,,,,,,8,3,0,1,2025-06-12_14h34.12.097,rtmindeye,2024.2.4,60.00279612714228,2025-06-12 14h34.22.260633 -0400,
all_stimuli/special515/special_38494.jpg,29,0,29,29,0,,,,0,0,0,3,1,"[9, 21, 31, 45, 56, 68, 69]",1,1,0.8529361999826506,0.44500589999370277,None,None,None,,,,,,,,,,,0,0,0,0,0,29,29,29,215.6996951000183,,,,,,,,,,,,,,,,,,,,,,215.6830387999944,215.68307780000032,215.69073430000572,215.6996951000183,215.6996951000183,215.6996951000183,215.6996951000183,218.69929270001012,218.69929270001012,219.68285230000038,1,1,0.8529361999826506,0.44500589999370277,None,219.68291570001747,219.68293680000352,None,219.68296060001012,219.68297809999785,None,219.69901519999257,219.69901519999257,,,,,,,,,,,8,3,0,1,2025-06-12_14h34.12.097,rtmindeye,2024.2.4,60.00279612714228,2025-06-12 14h34.22.260633 -0400,
all_stimuli/MST_pairs1/pair_12_16_22.png,30,0,30,30,0,,,,0,0,0,3,1,"[9, 21, 31, 45, 56, 68, 69]",1,1,1.0146601000160445,0.4820315999968443,None,None,None,,,,,,,,,,,0,0,0,0,0,30,30,30,219.69901519999257,,,,,,,,,,,,,,,,,,,,,,219.68312689999584,219.68316539999796,219.69356320000952,219.69901519999257,219.69901519999257,219.69901519999257,219.69901519999257,222.6990027000138,222.6990027000138,223.68255040000076,1,1,1.0146601000160445,0.4820315999968443,None,223.6826144999941,223.68263470000238,None,223.68265830000746,223.6826757999952,None,223.6992270000046,223.6992270000046,,,,,,,,,,,8,3,0,1,2025-06-12_14h34.12.097,rtmindeye,2024.2.4,60.00279612714228,2025-06-12 14h34.22.260633 -0400,
blank.jpg,31,1,31,31,0,,,,0,0,0,3,1,"[9, 21, 31, 45, 56, 68, 69]",None,0,,,None,None,None,,,,,,,,,,,0,0,0,0,0,31,31,31,223.6992270000046,,,,,,,,,,,,,,,,,,,,,,223.68282059999183,223.6828591999947,223.68913859999157,223.6992270000046,223.6992270000046,223.6992270000046,223.6992270000046,226.69915669999318,226.69915669999318,227.6825410000165,None,0,,,None,227.68259929999476,227.68262130001676,None,227.68264470002032,227.6826621000073,None,227.6994776999927,227.6994776999927,,,,,,,,,,,8,3,0,1,2025-06-12_14h34.12.097,rtmindeye,2024.2.4,60.00279612714228,2025-06-12 14h34.22.260633 -0400,
all_stimuli/special515/special_66489.jpg,32,0,32,32,0,,,,0,0,0,3,1,"[9, 21, 31, 45, 56, 68, 69]",1,1,1.7481812000041828,0.37793660000897944,None,None,None,,,,,,,,,,,0,0,0,0,0,32,32,32,227.6994776999927,,,,,,,,,,,,,,,,,,,,,,227.68281040000147,227.68284910000511,227.6904707000067,227.6994776999927,227.6994776999927,227.6994776999927,227.6994776999927,230.69926700001815,230.69926700001815,231.682440900011,1,1,1.7481812000041828,0.37793660000897944,None,231.68250409999746,231.68252540001413,None,231.68254910001997,231.68256590000237,None,231.70231580000836,231.70231580000836,,,,,,,,,,,8,3,0,1,2025-06-12_14h34.12.097,rtmindeye,2024.2.4,60.00279612714228,2025-06-12 14h34.22.260633 -0400,
all_stimuli/MST_pairs1/pair_28_nsd_547_1_cocoid_60932.png,33,0,33,33,0,,,,0,0,0,3,1,"[9, 21, 31, 45, 56, 68, 69]",1,1,1.0093098999932408,0.4480790999950841,None,None,None,,,,,,,,,,,0,0,0,0,0,33,33,33,231.70231580000836,,,,,,,,,,,,,,,,,,,,,,231.68270999999368,231.68274829999427,231.70037920001778,231.70231580000836,231.70231580000836,231.70231580000836,231.70231580000836,234.71572760000709,234.71572760000709,235.69911350001348,1,1,1.0093098999932408,0.4480790999950841,None,235.69918160000816,235.69920289999573,None,235.6992270000046,235.6992448999954,None,,,,,,,,,,,,,8,3,0,1,2025-06-12_14h34.12.097,rtmindeye,2024.2.4,60.00279612714228,2025-06-12 14h34.22.260633 -0400,
all_stimuli/shared1000_notspecial/notspecial_46002.png,34,0,34,34,0,,,,0,0,0,3,1,"[9, 21, 31, 45, 56, 68, 69]",1,1,1.4253105999960098,0.3970197000016924,None,None,None,,,,,,,,,,,0,0,0,0,0,34,34,34,235.7153602000035,,,,,,,,,,,,,,,,,,,,,,235.69939250001335,235.69943619999685,235.7118657999963,235.7153602000035,235.7153602000035,235.7153602000035,235.7153602000035,238.715643500007,238.715643500007,239.69945690000895,1,1,1.4253105999960098,0.3970197000016924,None,239.69951969999238,239.69953969999915,None,239.69956300000194,239.69958000001498,None,239.71591699999408,239.71591699999408,,,,,,,,,,,8,3,0,1,2025-06-12_14h34.12.097,rtmindeye,2024.2.4,60.00279612714228,2025-06-12 14h34.22.260633 -0400,
all_stimuli/special515/special_30632.jpg,35,0,35,35,0,,,,0,0,0,3,1,"[9, 21, 31, 45, 56, 68, 69]",1,1,0.7287476999917999,0.396984600025462,None,None,None,,,,,,,,,,,0,0,0,0,0,35,35,35,239.71591699999408,,,,,,,,,,,,,,,,,,,,,,239.69972360000247,239.6997621000046,239.70806580001954,239.71591699999408,239.71591699999408,239.71591699999408,239.71591699999408,242.71584200000507,242.71584200000507,243.69927209999878,1,1,0.7287476999917999,0.396984600025462,None,243.69933530001435,243.69935629999964,None,243.69938040000852,243.69939789999626,None,243.7159485000011,243.7159485000011,,,,,,,,,,,8,3,0,1,2025-06-12_14h34.12.097,rtmindeye,2024.2.4,60.00279612714228,2025-06-12 14h34.22.260633 -0400,
all_stimuli/special515/special_31936.jpg,36,0,36,36,0,,,,0,0,0,3,1,"[9, 21, 31, 45, 56, 68, 69]",1,1,1.2706315999967046,0.36119000002508983,None,None,None,,,,,,,,,,,0,0,0,0,0,36,36,36,243.7159485000011,,,,,,,,,,,,,,,,,,,,,,243.69954279999365,243.69958489999408,243.70806370000355,243.7159485000011,243.7159485000011,243.7159485000011,243.7159485000011,246.71544420000282,246.71544420000282,247.6991101000167,1,1,1.2706315999967046,0.36119000002508983,None,247.6991765999992,247.69919760001358,None,247.69922070001485,247.69923779999954,None,247.71541910001542,247.71541910001542,,,,,,,,,,,8,3,0,1,2025-06-12_14h34.12.097,rtmindeye,2024.2.4,60.00279612714228,2025-06-12 14h34.22.260633 -0400,
all_stimuli/MST_pairs1/pair_8_12_56.png,37,0,37,37,0,,,,0,0,0,3,1,"[9, 21, 31, 45, 56, 68, 69]",1,1,0.9001496999990195,0.2980968999909237,None,None,None,,,,,,,,,,,0,0,0,0,0,37,37,37,247.71541910001542,,,,,,,,,,,,,,,,,,,,,,247.69938110001385,247.6994195000152,247.71233370000846,247.71541910001542,247.71541910001542,247.71541910001542,247.71541910001542,250.7155604000145,250.7155604000145,251.69937770001707,1,1,0.9001496999990195,0.2980968999909237,None,251.6994405000005,251.6994604000065,None,251.6994842000131,251.69950119999703,None,251.7158114000049,251.7158114000049,,,,,,,,,,,8,3,0,1,2025-06-12_14h34.12.097,rtmindeye,2024.2.4,60.00279612714228,2025-06-12 14h34.22.260633 -0400,
all_stimuli/special515/special_19074.jpg,38,0,38,38,0,,,,0,0,0,3,1,"[9, 21, 31, 45, 56, 68, 69]",1,1,0.7697858999890741,0.372103400004562,None,None,None,,,,,,,,,,,0,0,0,0,0,38,38,38,251.7158114000049,,,,,,,,,,,,,,,,,,,,,,251.6996454000182,251.6996943000122,251.70851210001274,251.7158114000049,251.7158114000049,251.7158114000049,251.7158114000049,254.7157785000163,254.7157785000163,255.69941470000776,1,1,0.7697858999890741,0.372103400004562,None,255.6994790000026,255.69950030001928,None,255.69952399999602,255.6995409000083,None,255.71537779999198,255.71537779999198,,,,,,,,,,,8,3,0,1,2025-06-12_14h34.12.097,rtmindeye,2024.2.4,60.00279612714228,2025-06-12 14h34.22.260633 -0400,
all_stimuli/shared1000_notspecial/notspecial_42648.png,39,0,39,39,0,,,,0,0,0,3,1,"[9, 21, 31, 45, 56, 68, 69]",1,1,0.734193399985088,0.3669307999953162,None,None,None,,,,,,,,,,,0,0,0,0,0,39,39,39,255.71537779999198,,,,,,,,,,,,,,,,,,,,,,255.69969760000822,255.69973640001263,255.71013789999415,255.71537779999198,255.71537779999198,255.71537779999198,255.71537779999198,258.7155265000183,258.7155265000183,259.6993056999927,1,1,0.734193399985088,0.3669307999953162,None,259.6993693000113,259.69938940001884,None,259.6994132999971,259.6994307000132,None,259.7156343999959,259.7156343999959,,,,,,,,,,,8,3,0,1,2025-06-12_14h34.12.097,rtmindeye,2024.2.4,60.00279612714228,2025-06-12 14h34.22.260633 -0400,
all_stimuli/MST_pairs1/pair_12_16_22.png,40,0,40,40,0,,,,1,0,0,3,1,"[9, 21, 31, 45, 56, 68, 69]",2,1,0.88375680000172,0.34311849999357946,None,None,None,,,,,,,,,,,0,0,0,0,0,40,40,40,259.7156343999959,,,,,,,,,,,,,,,,,,,,,,259.6995792000089,259.6996182000148,259.7095042000001,259.7156343999959,259.7156343999959,259.7156343999959,259.7156343999959,262.71561310000834,262.71561310000834,263.6991095000121,2,1,0.88375680000172,0.34311849999357946,None,263.6991743000108,263.6991946999915,None,263.69921890000114,263.6992361000157,None,263.7155272999953,263.7155272999953,,,,,,,,,,,8,3,0,1,2025-06-12_14h34.12.097,rtmindeye,2024.2.4,60.00279612714228,2025-06-12 14h34.22.260633 -0400,
all_stimuli/shared1000_notspecial/notspecial_3951.png,41,0,41,41,0,,,,0,0,0,3,1,"[9, 21, 31, 45, 56, 68, 69]",1,1,1.0332704999891575,0.3268838000076357,None,None,None,,,,,,,,,,,0,0,0,0,0,41,41,41,263.7155272999953,,,,,,,,,,,,,,,,,,,,,,263.69937980000395,263.6994216000021,263.70871979999356,263.7155272999953,263.7155272999953,263.7155272999953,263.7155272999953,266.71559880001587,266.71559880001587,267.699194899993,1,1,1.0332704999891575,0.3268838000076357,None,267.6992588000139,267.69927919999463,None,267.6993029000005,267.69931980001274,None,267.71556110001984,267.71556110001984,,,,,,,,,,,8,3,0,1,2025-06-12_14h34.12.097,rtmindeye,2024.2.4,60.00279612714228,2025-06-12 14h34.22.260633 -0400,
all_stimuli/MST_pairs1/pair_12_16_78.png,42,0,42,42,0,,,,0,0,0,3,1,"[9, 21, 31, 45, 56, 68, 69]",1,1,1.9130924999772105,0.37901200001942925,None,None,None,,,,,,,,,,,0,0,0,0,0,42,42,42,267.71556110001984,,,,,,,,,,,,,,,,,,,,,,267.69946340000024,267.69950560000143,267.70980539999437,267.71556110001984,267.71556110001984,267.71556110001984,267.71556110001984,270.7158160000108,270.7158160000108,271.6990069000167,1,1,1.9130924999772105,0.37901200001942925,None,271.69907040000544,271.6990907000145,None,271.6991146999935,271.6991313000035,None,271.7159030000039,271.7159030000039,,,,,,,,,,,8,3,0,1,2025-06-12_14h34.12.097,rtmindeye,2024.2.4,60.00279612714228,2025-06-12 14h34.22.260633 -0400,
all_stimuli/special515/special_11952.jpg,43,0,43,43,0,,,,0,0,0,3,1,"[9, 21, 31, 45, 56, 68, 69]",1,1,0.8127990000066347,0.3868732000119053,None,None,None,,,,,,,,,,,0,0,0,0,0,43,43,43,271.7159030000039,,,,,,,,,,,,,,,,,,,,,,271.6992749000201,271.6993134999939,271.7071154000005,271.7159030000039,271.7159030000039,271.7159030000039,271.7159030000039,274.7155757000146,274.7155757000146,275.6988435999956,1,1,0.8127990000066347,0.3868732000119053,None,275.69890690001193,275.69892860000255,None,275.6989535000175,275.69897080000374,None,275.71583070000634,275.71583070000634,,,,,,,,,,,8,3,0,1,2025-06-12_14h34.12.097,rtmindeye,2024.2.4,60.00279612714228,2025-06-12 14h34.22.260633 -0400,
all_stimuli/MST_pairs1/pair_14_18_22.png,44,0,44,44,0,,,,0,0,0,3,1,"[9, 21, 31, 45, 56, 68, 69]",1,1,1.1728086000075564,0.3849989000009373,None,None,None,,,,,,,,,,,0,0,0,0,0,44,44,44,275.71583070000634,,,,,,,,,,,,,,,,,,,,,,275.69911770001636,275.69915570001467,275.7095375999925,275.71583070000634,275.71583070000634,275.71583070000634,275.71583070000634,278.7158057000197,278.7158057000197,279.69918940000935,1,1,1.1728086000075564,0.3849989000009373,None,279.699250900012,279.6992712999927,None,279.6992963000084,279.6993133999931,None,279.7157392000081,279.7157392000081,,,,,,,,,,,8,3,0,1,2025-06-12_14h34.12.097,rtmindeye,2024.2.4,60.00279612714228,2025-06-12 14h34.22.260633 -0400,
blank.jpg,45,1,45,45,0,,,,0,0,0,3,1,"[9, 21, 31, 45, 56, 68, 69]",None,0,,,None,None,None,,,,,,,,,,,0,0,0,0,0,45,45,45,279.7157392000081,,,,,,,,,,,,,,,,,,,,,,279.6994570000097,279.6994989000086,279.70618120001745,279.7157392000081,279.7157392000081,279.7157392000081,279.7157392000081,282.71587879999424,282.71587879999424,283.6992594000185,None,0,,,None,283.69931690001977,283.6993383000081,None,283.69936200001393,283.6993794000009,None,283.71578230001614,283.71578230001614,,,,,,,,,,,8,3,0,1,2025-06-12_14h34.12.097,rtmindeye,2024.2.4,60.00279612714228,2025-06-12 14h34.22.260633 -0400,
all_stimuli/MST_pairs1/pair_16_20_56.png,46,0,46,46,0,,,,0,0,0,3,1,"[9, 21, 31, 45, 56, 68, 69]",1,1,0.9718416999967303,0.3618220000062138,None,None,None,,,,,,,,,,,0,0,0,0,0,46,46,46,283.71578230001614,,,,,,,,,,,,,,,,,,,,,,283.6995244999998,283.6995628000004,283.70917730001383,283.71578230001614,283.71578230001614,283.71578230001614,283.71578230001614,286.7157270000025,286.7157270000025,287.69937980000395,1,1,0.9718416999967303,0.3618220000062138,None,287.69944550000946,287.699465600017,None,287.69948929999373,287.6995065000083,None,287.71608889999334,287.71608889999334,,,,,,,,,,,8,3,0,1,2025-06-12_14h34.12.097,rtmindeye,2024.2.4,60.00279612714228,2025-06-12 14h34.22.260633 -0400,
all_stimuli/special515/special_8933.jpg,47,0,47,47,0,,,,0,0,0,3,1,"[9, 21, 31, 45, 56, 68, 69]",1,1,0.9364531000028364,0.47993630002019927,None,None,None,,,,,,,,,,,0,0,0,0,0,47,47,47,287.71608889999334,,,,,,,,,,,,,,,,,,,,,,287.69965330002015,287.6996924999985,287.7082015000051,287.71608889999334,287.71608889999334,287.71608889999334,287.71608889999334,290.71557530001155,290.71557530001155,291.69924010001705,1,1,0.9364531000028364,0.47993630002019927,None,291.6993044000119,291.6993258000002,None,291.69935010001063,291.69936790000065,None,291.71575510001276,291.71575510001276,,,,,,,,,,,8,3,0,1,2025-06-12_14h34.12.097,rtmindeye,2024.2.4,60.00279612714228,2025-06-12 14h34.22.260633 -0400,
all_stimuli/MST_pairs1/pair_16_20_56.png,48,0,48,48,0,,,,1,0,0,3,1,"[9, 21, 31, 45, 56, 68, 69]",2,1,0.71396629998344,0.35273650000453927,None,None,None,,,,,,,,,,,0,0,0,0,0,48,48,48,291.71575510001276,,,,,,,,,,,,,,,,,,,,,,291.6995183000108,291.69955760001903,291.7065550000116,291.71575510001276,291.71575510001276,291.71575510001276,291.71575510001276,294.71549279999454,294.71549279999454,295.6993166000175,2,1,0.71396629998344,0.35273650000453927,None,295.69938090001233,295.6994011999923,None,295.69942509999964,295.69944220001344,None,295.7159895999939,295.7159895999939,,,,,,,,,,,8,3,0,1,2025-06-12_14h34.12.097,rtmindeye,2024.2.4,60.00279612714228,2025-06-12 14h34.22.260633 -0400,
all_stimuli/special515/special_5034.jpg,49,0,49,49,0,,,,0,0,0,3,1,"[9, 21, 31, 45, 56, 68, 69]",1,1,0.8637162999948487,0.299942599987844,None,None,None,,,,,,,,,,,0,0,0,0,0,49,49,49,295.7159895999939,,,,,,,,,,,,,,,,,,,,,,295.6995869000093,295.6996255000122,295.7071557000163,295.7159895999939,295.7159895999939,295.7159895999939,295.7159895999939,298.7156280000054,298.7156280000054,299.69919250000385,1,1,0.8637162999948487,0.299942599987844,None,299.6992559999926,299.6992775000108,None,299.69930480001494,299.6993220000004,None,299.7156637000153,299.7156637000153,,,,,,,,,,,8,3,0,1,2025-06-12_14h34.12.097,rtmindeye,2024.2.4,60.00279612714228,2025-06-12 14h34.22.260633 -0400,
all_stimuli/MST_pairs1/pair_16_20_0.png,50,0,50,50,0,,,,0,0,0,3,1,"[9, 21, 31, 45, 56, 68, 69]",2,0,0.678943300008541,0.45694139998522587,None,None,None,,,,,,,,,,,0,0,0,0,0,50,50,50,299.7156637000153,,,,,,,,,,,,,,,,,,,,,,299.69946520001395,299.6995038000168,299.7095903000154,299.7156637000153,299.7156637000153,299.7156637000153,299.7156637000153,302.71579059999203,302.71579059999203,303.6988745999988,2,0,0.678943300008541,0.45694139998522587,None,303.69893660000525,303.69895630000974,None,303.69897980001406,303.69899639999494,None,303.7158054000174,303.7158054000174,,,,,,,,,,,8,3,0,1,2025-06-12_14h34.12.097,rtmindeye,2024.2.4,60.00279612714228,2025-06-12 14h34.22.260633 -0400,
all_stimuli/MST_pairs1/pair_46_w_pool2.jpg,51,0,51,51,0,,,,0,0,0,3,1,"[9, 21, 31, 45, 56, 68, 69]",1,1,0.7988267999899108,0.37194650000310503,None,None,None,,,,,,,,,,,0,0,0,0,0,51,51,51,303.7158054000174,,,,,,,,,,,,,,,,,,,,,,303.69913950000773,303.6991773000045,303.70728780000354,303.7158054000174,303.7158054000174,303.7158054000174,303.7158054000174,306.7154700999963,306.7154700999963,307.6990728999954,1,1,0.7988267999899108,0.37194650000310503,None,307.69913890000316,307.699160499993,None,307.6991844000004,307.69920180001645,None,307.7158275000111,307.7158275000111,,,,,,,,,,,8,3,0,1,2025-06-12_14h34.12.097,rtmindeye,2024.2.4,60.00279612714228,2025-06-12 14h34.22.260633 -0400,
all_stimuli/special515/special_62228.jpg,52,0,52,52,0,,,,0,0,0,3,1,"[9, 21, 31, 45, 56, 68, 69]",1,1,0.8928467000077944,0.7398388999863528,None,None,None,,,,,,,,,,,0,0,0,0,0,52,52,52,307.7158275000111,,,,,,,,,,,,,,,,,,,,,,307.6993489000015,307.69938710000133,307.70647309999913,307.7158275000111,307.7158275000111,307.7158275000111,307.7158275000111,310.71579210000345,310.71579210000345,311.6989830000093,1,1,0.8928467000077944,0.7398388999863528,None,311.6990463999973,311.699067700014,None,311.6990912000183,311.6991086000053,None,311.715789400012,311.715789400012,,,,,,,,,,,8,3,0,1,2025-06-12_14h34.12.097,rtmindeye,2024.2.4,60.00279612714228,2025-06-12 14h34.22.260633 -0400,
all_stimuli/MST_pairs1/pair_40_w_escalator2.jpg,53,0,53,53,0,,,,0,0,0,3,1,"[9, 21, 31, 45, 56, 68, 69]",1,1,0.8527669999748468,0.42405570001574233,None,None,None,,,,,,,,,,,0,0,0,0,0,53,53,53,311.715789400012,,,,,,,,,,,,,,,,,,,,,,311.69927320000716,311.69931310001994,311.7064673000132,311.715789400012,311.715789400012,311.715789400012,311.715789400012,314.7156808,314.7156808,315.6990630000073,1,1,0.8527669999748468,0.42405570001574233,None,315.69912649999605,315.6991478000127,None,315.69917360000545,315.6991909999924,None,315.7197223000112,315.7197223000112,,,,,,,,,,,8,3,0,1,2025-06-12_14h34.12.097,rtmindeye,2024.2.4,60.00279612714228,2025-06-12 14h34.22.260633 -0400,
all_stimuli/MST_pairs1/pair_20_nsd_41_2_cocoid_63715.png,54,0,54,54,0,,,,0,0,0,3,1,"[9, 21, 31, 45, 56, 68, 69]",1,1,0.8588647999858949,0.33892320000450127,None,None,None,,,,,,,,,,,0,0,0,0,0,54,54,54,315.7197223000112,,,,,,,,,,,,,,,,,,,,,,315.6993360000197,315.6993743000203,315.7178194000153,315.7197223000112,315.7197223000112,315.7197223000112,315.7197223000112,318.7321797000186,318.7321797000186,319.7156108999916,1,1,0.8588647999858949,0.33892320000450127,None,319.71567960001994,319.7157006000052,None,319.7157242000103,319.71574220000184,None,,,,,,,,,,,,,8,3,0,1,2025-06-12_14h34.12.097,rtmindeye,2024.2.4,60.00279612714228,2025-06-12 14h34.22.260633 -0400,
all_stimuli/shared1000_notspecial/notspecial_22155.png,55,0,55,55,0,,,,0,0,0,3,1,"[9, 21, 31, 45, 56, 68, 69]",1,1,0.801004400011152,0.35410219998448156,None,None,None,,,,,,,,,,,0,0,0,0,0,55,55,55,319.73248180001974,,,,,,,,,,,,,,,,,,,,,,319.7158895000175,319.71593310000026,319.7252766000165,319.73248180001974,319.73248180001974,319.73248180001974,319.73248180001974,322.7323600999953,322.7323600999953,323.71579859999474,1,1,0.801004400011152,0.35410219998448156,None,323.7158613000065,323.71588110001176,None,323.71590470001684,323.7159219000023,None,323.732699300017,323.732699300017,,,,,,,,,,,8,3,0,1,2025-06-12_14h34.12.097,rtmindeye,2024.2.4,60.00279612714228,2025-06-12 14h34.22.260633 -0400,
blank.jpg,56,1,56,56,0,,,,0,0,0,3,1,"[9, 21, 31, 45, 56, 68, 69]",None,0,,,None,None,None,,,,,,,,,,,0,0,0,0,0,56,56,56,323.732699300017,,,,,,,,,,,,,,,,,,,,,,323.71606790000806,323.7161095000047,323.72206289999303,323.732699300017,323.732699300017,323.732699300017,323.732699300017,326.73207070000353,326.73207070000353,327.71577010001056,None,0,,,None,327.7158272000088,327.7158480999933,None,327.7158716999984,327.7158888000122,None,327.7324516999943,327.7324516999943,,,,,,,,,,,8,3,0,1,2025-06-12_14h34.12.097,rtmindeye,2024.2.4,60.00279612714228,2025-06-12 14h34.22.260633 -0400,
all_stimuli/special515/special_11617.jpg,57,0,57,57,0,,,,0,0,0,3,1,"[9, 21, 31, 45, 56, 68, 69]",1,1,0.9999994999961928,0.36320639998302795,None,None,None,,,,,,,,,,,0,0,0,0,0,57,57,57,327.7324516999943,,,,,,,,,,,,,,,,,,,,,,327.7160416000115,327.71608060001745,327.72395730001153,327.7324516999943,327.7324516999943,327.7324516999943,327.7324516999943,330.73173530001077,330.73173530001077,331.7158507000131,1,1,0.9999994999961928,0.36320639998302795,None,331.71591400000034,331.71593490001396,None,331.7159596999991,331.71597660001134,None,331.7321515000076,331.7321515000076,,,,,,,,,,,8,3,0,1,2025-06-12_14h34.12.097,rtmindeye,2024.2.4,60.00279612714228,2025-06-12 14h34.22.260633 -0400,
all_stimuli/MST_pairs1/pair_14_18_22.png,58,0,58,58,0,,,,1,0,0,3,1,"[9, 21, 31, 45, 56, 68, 69]",2,1,1.1744304999883752,0.4379987000138499,None,None,None,,,,,,,,,,,0,0,0,0,0,58,58,58,331.7321515000076,,,,,,,,,,,,,,,,,,,,,,331.71612070000265,331.7161628000031,331.72614790001535,331.7321515000076,331.7321515000076,331.7321515000076,331.7321515000076,334.73216350001167,334.73216350001167,335.71552299999166,2,1,1.1744304999883752,0.4379987000138499,None,335.71558570000343,335.7156060000125,None,335.7156298000191,335.715646800003,None,335.7322596000158,335.7322596000158,,,,,,,,,,,8,3,0,1,2025-06-12_14h34.12.097,rtmindeye,2024.2.4,60.00279612714228,2025-06-12 14h34.22.260633 -0400,
all_stimuli/shared1000_notspecial/notspecial_63081.png,59,0,59,59,0,,,,0,0,0,3,1,"[9, 21, 31, 45, 56, 68, 69]",1,1,0.9803455999935977,0.33795159999863245,None,None,None,,,,,,,,,,,0,0,0,0,0,59,59,59,335.7322596000158,,,,,,,,,,,,,,,,,,,,,,335.7157920000027,335.7158308000071,335.7251043000142,335.7322596000158,335.7322596000158,335.7322596000158,335.7322596000158,338.7322702000092,338.7322702000092,339.7154131999996,1,1,0.9803455999935977,0.33795159999863245,None,339.7154764000152,339.7154960000189,None,339.7155197999964,339.7155366000079,None,339.73253660000046,339.73253660000046,,,,,,,,,,,8,3,0,1,2025-06-12_14h34.12.097,rtmindeye,2024.2.4,60.00279612714228,2025-06-12 14h34.22.260633 -0400,
all_stimuli/MST_pairs1/pair_42_w_icerink2.jpg,60,0,60,60,0,,,,0,0,0,3,1,"[9, 21, 31, 45, 56, 68, 69]",1,1,1.2519348000059836,0.38403699998161756,None,None,None,,,,,,,,,,,0,0,0,0,0,60,60,60,339.73253660000046,,,,,,,,,,,,,,,,,,,,,,339.7156854000059,339.71572360000573,339.7234880000178,339.73253660000046,339.73253660000046,339.73253660000046,339.73253660000046,342.7321205000044,342.7321205000044,343.7155438000045,1,1,1.2519348000059836,0.38403699998161756,None,343.71560709999176,343.71562830000767,None,343.71565240001655,343.7156699000043,None,343.7323905999947,343.7323905999947,,,,,,,,,,,8,3,0,1,2025-06-12_14h34.12.097,rtmindeye,2024.2.4,60.00279612714228,2025-06-12 14h34.22.260633 -0400,
all_stimuli/MST_pairs1/pair_46_w_pool1.jpg,61,0,61,61,0,,,,0,0,0,3,1,"[9, 21, 31, 45, 56, 68, 69]",1,1,1.7262953999743331,0.31082640000386164,None,None,None,,,,,,,,,,,0,0,0,0,0,61,61,61,343.7323905999947,,,,,,,,,,,,,,,,,,,,,,343.71581819999847,343.71585569999297,343.72307969999383,343.7323905999947,343.7323905999947,343.7323905999947,343.7323905999947,346.7322528999939,346.7322528999939,347.71542650001356,1,1,1.7262953999743331,0.31082640000386164,None,347.71548970000003,347.71551040001214,None,347.7155347999942,347.71555200000876,None,347.7328519000148,347.7328519000148,,,,,,,,,,,8,3,0,1,2025-06-12_14h34.12.097,rtmindeye,2024.2.4,60.00279612714228,2025-06-12 14h34.22.260633 -0400,
all_stimuli/special515/special_40840.jpg,62,0,62,62,0,,,,0,0,0,3,1,"[9, 21, 31, 45, 56, 68, 69]",1,1,1.2147504000167828,0.4110198999987915,None,None,None,,,,,,,,,,,0,0,0,0,0,62,62,62,347.7328519000148,,,,,,,,,,,,,,,,,,,,,,347.7157045000058,347.71574290000717,347.7240254000062,347.7328519000148,347.7328519000148,347.7328519000148,347.7328519000148,350.7320918000187,350.7320918000187,351.715525800013,1,1,1.2147504000167828,0.4110198999987915,None,351.7157319000107,351.7157537000021,None,351.71577740000794,351.71579469999415,None,351.73256609999225,351.73256609999225,,,,,,,,,,,8,3,0,1,2025-06-12_14h34.12.097,rtmindeye,2024.2.4,60.00279612714228,2025-06-12 14h34.22.260633 -0400,
all_stimuli/special515/special_29837.jpg,63,0,63,63,0,,,,0,0,0,3,1,"[9, 21, 31, 45, 56, 68, 69]",1,1,1.657170299993595,0.27977250001276843,None,None,None,,,,,,,,,,,0,0,0,0,0,63,63,63,351.73256609999225,,,,,,,,,,,,,,,,,,,,,,351.7159509000194,351.71599080000306,351.72467190001043,351.73256609999225,351.73256609999225,351.73256609999225,351.73256609999225,354.7321711000113,354.7321711000113,355.71572639999795,1,1,1.657170299993595,0.27977250001276843,None,355.7157904000196,355.7158116000064,None,355.7158352000115,355.7158519999939,None,355.73207510000793,355.73207510000793,,,,,,,,,,,8,3,0,1,2025-06-12_14h34.12.097,rtmindeye,2024.2.4,60.00279612714228,2025-06-12 14h34.22.260633 -0400,
all_stimuli/shared1000_notspecial/notspecial_4768.png,64,0,64,64,0,,,,0,0,0,3,1,"[9, 21, 31, 45, 56, 68, 69]",2,0,1.4925929000019096,0.35878320000483654,None,None,None,,,,,,,,,,,0,0,0,0,0,64,64,64,355.73207510000793,,,,,,,,,,,,,,,,,,,,,,355.7159984000027,355.7160368000041,355.72608550000587,355.73207510000793,355.73207510000793,355.73207510000793,355.73207510000793,358.7318718000024,358.7318718000024,359.71567229999346,2,0,1.4925929000019096,0.35878320000483654,None,359.71573570001055,359.71575590001885,None,359.71578050000244,359.7157980000193,None,359.73341600000276,359.73341600000276,,,,,,,,,,,8,3,0,1,2025-06-12_14h34.12.097,rtmindeye,2024.2.4,60.00279612714228,2025-06-12 14h34.22.260633 -0400,
all_stimuli/MST_pairs1/pair_20_nsd_41_1_cocoid_15472.png,65,0,65,65,0,,,,0,0,0,3,1,"[9, 21, 31, 45, 56, 68, 69]",1,1,0.9521271999983583,0.3080175000068266,None,None,None,,,,,,,,,,,0,0,0,0,0,65,65,65,359.73341600000276,,,,,,,,,,,,,,,,,,,,,,359.71594710001955,359.7159856999933,359.7314772999962,359.73341600000276,359.73341600000276,359.73341600000276,359.73341600000276,362.74873730001855,362.74873730001855,363.7323556000192,1,1,0.9521271999983583,0.3080175000068266,None,363.73242380001466,363.7324446999992,None,363.7324682000035,363.7324852000165,None,,,,,,,,,,,,,8,3,0,1,2025-06-12_14h34.12.097,rtmindeye,2024.2.4,60.00279612714228,2025-06-12 14h34.22.260633 -0400,
all_stimuli/shared1000_notspecial/notspecial_53157.png,66,0,66,66,0,,,,0,0,0,3,1,"[9, 21, 31, 45, 56, 68, 69]",1,1,0.7729448000027332,0.3579043000063393,None,None,None,,,,,,,,,,,0,0,0,0,0,66,66,66,363.74866149999434,,,,,,,,,,,,,,,,,,,,,,363.7326343000168,363.73267789999954,363.74318290001247,363.74866149999434,363.74866149999434,363.74866149999434,363.74866149999434,366.7486717000138,366.7486717000138,367.73220160001074,1,1,0.7729448000027332,0.3579043000063393,None,367.73226570000406,367.7322855000093,None,367.73231049999595,367.7323274000082,None,367.74906020000344,367.74906020000344,,,,,,,,,,,8,3,0,1,2025-06-12_14h34.12.097,rtmindeye,2024.2.4,60.00279612714228,2025-06-12 14h34.22.260633 -0400,
all_stimuli/special515/special_38641.jpg,67,0,67,67,0,,,,1,0,0,3,1,"[9, 21, 31, 45, 56, 68, 69]",1,0,1.3164027000020724,0.2829791000112891,None,None,None,,,,,,,,,,,0,0,0,0,0,67,67,67,367.74906020000344,,,,,,,,,,,,,,,,,,,,,,367.7324754000001,367.732517299999,367.7404591999948,367.74906020000344,367.74906020000344,367.74906020000344,367.74906020000344,370.74879780001356,370.74879780001356,371.7324035000056,1,0,1.3164027000020724,0.2829791000112891,None,371.7324659000151,371.7324876000057,None,371.7325109000085,371.7325279999932,None,371.74876449999283,371.74876449999283,,,,,,,,,,,8,3,0,1,2025-06-12_14h34.12.097,rtmindeye,2024.2.4,60.00279612714228,2025-06-12 14h34.22.260633 -0400,
blank.jpg,68,1,68,68,0,,,,0,0,0,3,1,"[9, 21, 31, 45, 56, 68, 69]",None,0,,,None,None,None,,,,,,,,,,,0,0,0,0,0,68,68,68,371.74876449999283,,,,,,,,,,,,,,,,,,,,,,371.73267270001816,371.73271080001723,371.7382699000009,371.74876449999283,371.74876449999283,371.74876449999283,371.74876449999283,374.74881570000434,374.74881570000434,375.7321346999961,None,0,,,None,375.7321923999989,375.73221420001937,None,375.7322376999946,375.73225490000914,None,375.7489472000161,375.7489472000161,,,,,,,,,,,8,3,0,1,2025-06-12_14h34.12.097,rtmindeye,2024.2.4,60.00279612714228,2025-06-12 14h34.22.260633 -0400,
blank.jpg,69,1,69,69,0,,,,0,1,0,3,0,"[9, 21, 31, 45, 56, 68, 69]",None,0,,,None,2,equal,7.067587500001537,None,28.47480560000986,None,,,,,,,0,0,0,0,0,69,69,69,375.7489472000161,,,,,,,,,,,,,,,,,,,,,,375.7323971000151,375.73243470001034,375.7376150999917,375.7489472000161,375.7489472000161,375.7489472000161,375.7489472000161,378.74881700001424,378.74881700001424,379.7323264000006,None,0,,,None,379.7387915000145,386.8323449000018,2,386.8324008999916,415.33227790001547,equal,379.7488774000085,379.7488774000085,379.7488774000085,379.7488774000085,7.067587500001537,None,386.84877410001354,386.84877410001354,28.47480560000986,None,,,8,3,0,1,2025-06-12_14h34.12.097,rtmindeye,2024.2.4,60.00279612714228,2025-06-12 14h34.22.260633 -0400,
,,,0,0,0,,,,,,,,,,,,,,,,,,,,,,,,,,,0,0,0,0,,,,,,,,,,,,,,,,,,,,,,,,,,,,,,,,,,,,,,,,,,,,,,,,,,,,,,,,,,,,8,3,0,1,2025-06-12_14h34.12.097,rtmindeye,2024.2.4,60.00279612714228,2025-06-12 14h34.22.260633 -0400,
all_stimuli/special515/special_71450.jpg,0,0,0,0,0,,,,0,0,1,3,1,"[9, 21, 31, 45, 56, 68, 69]",1,1,1.0481145000085235,0.3728333000035491,None,None,None,,,,,,,,,,,1,0,1,0,0,0,0,0,415.3775285000156,,,,,,,,,,,,,,,,,,,,,,415.3673609000107,415.36745980000705,415.37529900000663,415.3775285000156,415.3775285000156,415.3775285000156,415.3775285000156,418.3821753000084,418.3821753000084,419.36550929999794,1,1,1.0481145000085235,0.3728333000035491,None,419.36557500000345,419.36559669999406,None,419.3656217000098,419.3656392999983,None,419.38232520001475,419.38232520001475,,,,,,,,,,,8,3,0,1,2025-06-12_14h34.12.097,rtmindeye,2024.2.4,60.00279612714228,2025-06-12 14h34.22.260633 -0400,
all_stimuli/special515/special_38246.jpg,1,0,1,1,0,,,,0,0,1,3,1,"[9, 21, 31, 45, 56, 68, 69]",1,1,1.0211702000233345,0.4400325999886263,None,None,None,,,,,,,,,,,1,0,1,0,0,1,1,1,419.38232520001475,,,,,,,,,,,,,,,,,,,,,,419.36578870000085,419.36583809999865,419.37393390000216,419.38232520001475,419.38232520001475,419.38232520001475,419.38232520001475,422.3821050999977,422.3821050999977,423.36542980000377,1,1,1.0211702000233345,0.4400325999886263,None,423.3654938999971,423.36551520001376,None,423.365539099992,423.36555610000505,None,423.3819041000097,423.3819041000097,,,,,,,,,,,8,3,0,1,2025-06-12_14h34.12.097,rtmindeye,2024.2.4,60.00279612714228,2025-06-12 14h34.22.260633 -0400,
all_stimuli/special515/special_10046.jpg,2,0,2,2,0,,,,0,0,1,3,1,"[9, 21, 31, 45, 56, 68, 69]",2,0,0.9796437000040896,0.39599550000275485,None,None,None,,,,,,,,,,,1,0,1,0,0,2,2,2,423.3819041000097,,,,,,,,,,,,,,,,,,,,,,423.36570180000854,423.3657436000067,423.3733917000063,423.3819041000097,423.3819041000097,423.3819041000097,423.3819041000097,426.38151430001017,426.38151430001017,427.3652791000204,2,0,0.9796437000040896,0.39599550000275485,None,427.36534210000536,427.36536359999445,None,427.3653875000018,427.36540480001713,None,427.38229400001,427.38229400001,,,,,,,,,,,8,3,0,1,2025-06-12_14h34.12.097,rtmindeye,2024.2.4,60.00279612714228,2025-06-12 14h34.22.260633 -0400,
all_stimuli/MST_pairs1/pair_38_w_arch2.jpg,3,0,3,3,0,,,,0,0,1,3,1,"[9, 21, 31, 45, 56, 68, 69]",1,1,0.6943628000153694,0.34984919999260455,None,None,None,,,,,,,,,,,1,0,1,0,0,3,3,3,427.38229400001,,,,,,,,,,,,,,,,,,,,,,427.36555270000827,427.36559100000886,427.374008600018,427.38229400001,427.38229400001,427.38229400001,427.38229400001,430.3820539000153,430.3820539000153,431.3656406000082,1,1,0.6943628000153694,0.34984919999260455,None,431.3657104000158,431.3657329000125,None,431.3657568000199,431.3657744000084,None,,,,,,,,,,,,,8,3,0,1,2025-06-12_14h34.12.097,rtmindeye,2024.2.4,60.00279612714228,2025-06-12 14h34.22.260633 -0400,
all_stimuli/special515/special_30395.jpg,4,0,4,4,0,,,,0,0,1,3,1,"[9, 21, 31, 45, 56, 68, 69]",1,1,0.7951373999821953,0.37795769999502227,None,None,None,,,,,,,,,,,1,0,1,0,0,4,4,4,431.38239869999234,,,,,,,,,,,,,,,,,,,,,,431.365936599992,431.36598040000536,431.3737325000111,431.38239869999234,431.38239869999234,431.38239869999234,431.38239869999234,434.3821807000204,434.3821807000204,435.3655051999958,1,1,0.7951373999821953,0.37795769999502227,None,435.36556770000607,435.3655883000174,None,435.36561150001944,435.3656289000064,None,435.38227319999714,435.38227319999714,,,,,,,,,,,8,3,0,1,2025-06-12_14h34.12.097,rtmindeye,2024.2.4,60.00279612714228,2025-06-12 14h34.22.260633 -0400,
all_stimuli/special515/special_38494.jpg,5,0,5,5,0,,,,1,0,1,3,1,"[9, 21, 31, 45, 56, 68, 69]",2,1,1.3082246000121813,0.23602079998818226,None,None,None,,,,,,,,,,,1,0,1,0,0,5,5,5,435.38227319999714,,,,,,,,,,,,,,,,,,,,,,435.365775400016,435.3658182999934,435.3732521000202,435.38227319999714,435.38227319999714,435.38227319999714,435.38227319999714,438.3821553000016,438.3821553000016,439.3650840000191,2,1,1.3082246000121813,0.23602079998818226,None,439.3651491999917,439.3651697000023,None,439.36519280000357,439.3652096000151,None,439.3825070000021,439.3825070000021,,,,,,,,,,,8,3,0,1,2025-06-12_14h34.12.097,rtmindeye,2024.2.4,60.00279612714228,2025-06-12 14h34.22.260633 -0400,
all_stimuli/MST_pairs1/pair_28_nsd_547_1_cocoid_60932.png,6,0,6,6,0,,,,1,0,1,3,1,"[9, 21, 31, 45, 56, 68, 69]",2,1,0.9300356000021566,0.5109243000042625,None,None,None,,,,,,,,,,,1,0,1,0,0,6,6,6,439.3825070000021,,,,,,,,,,,,,,,,,,,,,,439.3653544000117,439.3653925000108,439.38065300000017,439.3825070000021,439.3825070000021,439.3825070000021,439.3825070000021,442.3821051999985,442.3821051999985,443.36526630001026,2,1,0.9300356000021566,0.5109243000042625,None,443.36532969999826,443.36534940000274,None,443.36537320000934,443.3653899000201,None,443.3824940000195,443.3824940000195,,,,,,,,,,,8,3,0,1,2025-06-12_14h34.12.097,rtmindeye,2024.2.4,60.00279612714228,2025-06-12 14h34.22.260633 -0400,
all_stimuli/special515/special_61133.jpg,7,0,7,7,0,,,,0,0,1,3,1,"[9, 21, 31, 45, 56, 68, 69]",2,0,1.7849898999847937,0.2848163000016939,None,None,None,,,,,,,,,,,1,0,1,0,0,7,7,7,443.3824940000195,,,,,,,,,,,,,,,,,,,,,,443.3655342000129,443.3655717000074,443.3745423000073,443.3824940000195,443.3824940000195,443.3824940000195,443.3824940000195,446.3820285999973,446.3820285999973,447.36531320001814,2,0,1.7849898999847937,0.2848163000016939,None,447.36537710000994,447.3653980999952,None,447.365421399998,447.3654387000133,None,447.3821263000136,447.3821263000136,,,,,,,,,,,8,3,0,1,2025-06-12_14h34.12.097,rtmindeye,2024.2.4,60.00279612714228,2025-06-12 14h34.22.260633 -0400,
all_stimuli/shared1000_notspecial/notspecial_16635.png,8,0,8,8,0,,,,0,0,1,3,1,"[9, 21, 31, 45, 56, 68, 69]",1,1,0.6955047999799717,0.3898341000021901,None,None,None,,,,,,,,,,,1,0,1,0,0,8,8,8,447.3821263000136,,,,,,,,,,,,,,,,,,,,,,447.3655856999976,447.3656268000195,447.3749945000163,447.3821263000136,447.3821263000136,447.3821263000136,447.3821263000136,450.3820087000204,450.3820087000204,451.3654572000087,1,1,0.6955047999799717,0.3898341000021901,None,451.3655211000005,451.36554110000725,None,451.3655645000108,451.3655812999932,None,451.38218960000086,451.38218960000086,,,,,,,,,,,8,3,0,1,2025-06-12_14h34.12.097,rtmindeye,2024.2.4,60.00279612714228,2025-06-12 14h34.22.260633 -0400,
blank.jpg,9,1,9,9,0,,,,0,0,1,3,1,"[9, 21, 31, 45, 56, 68, 69]",None,0,,,None,None,None,,,,,,,,,,,1,0,1,0,0,9,9,9,451.38218960000086,,,,,,,,,,,,,,,,,,,,,,451.3657296000165,451.3657681000186,451.3718526000157,451.38218960000086,451.38218960000086,451.38218960000086,451.38218960000086,454.3818664000137,454.3818664000137,455.36574910001946,None,0,,,None,455.36580600001616,455.36582700000145,None,455.36585080000805,455.3658677000203,None,455.38439399999334,455.38439399999334,,,,,,,,,,,8,3,0,1,2025-06-12_14h34.12.097,rtmindeye,2024.2.4,60.00279612714228,2025-06-12 14h34.22.260633 -0400,
all_stimuli/MST_pairs1/pair_18_nsd_6_1_cocoid_13417.png,10,0,10,10,0,,,,0,0,1,3,1,"[9, 21, 31, 45, 56, 68, 69]",1,1,0.7932505000208039,0.5178992000001017,None,None,None,,,,,,,,,,,1,0,1,0,0,10,10,10,455.38439399999334,,,,,,,,,,,,,,,,,,,,,,455.36601150000934,455.3660491000046,455.3822415000177,455.38439399999334,455.38439399999334,455.38439399999334,455.38439399999334,458.3988489000185,458.3988489000185,459.38200670000515,1,1,0.7932505000208039,0.5178992000001017,None,459.3820769000158,459.3820982000034,None,459.3821242999984,459.38214230001904,None,,,,,,,,,,,,,8,3,0,1,2025-06-12_14h34.12.097,rtmindeye,2024.2.4,60.00279612714228,2025-06-12 14h34.22.260633 -0400,
all_stimuli/shared1000_notspecial/notspecial_21703.png,11,0,11,11,0,,,,0,0,1,3,1,"[9, 21, 31, 45, 56, 68, 69]",1,1,0.8621570999966934,0.4938051000062842,None,None,None,,,,,,,,,,,1,0,1,0,0,11,11,11,459.3984561999969,,,,,,,,,,,,,,,,,,,,,,459.38229619999765,459.38233990001027,459.3915629000112,459.3984561999969,459.3984561999969,459.3984561999969,459.3984561999969,462.3986880000157,462.3986880000157,463.38222120000864,1,1,0.8621570999966934,0.4938051000062842,None,463.3822849999997,463.3823049000057,None,463.3823290000146,463.38234690000536,None,463.3988323000085,463.3988323000085,,,,,,,,,,,8,3,0,1,2025-06-12_14h34.12.097,rtmindeye,2024.2.4,60.00279612714228,2025-06-12 14h34.22.260633 -0400,
all_stimuli/special515/special_24530.jpg,12,0,12,12,0,,,,0,0,1,3,1,"[9, 21, 31, 45, 56, 68, 69]",1,1,0.8865639000141528,0.4170684999844525,None,None,None,,,,,,,,,,,1,0,1,0,0,12,12,12,463.3988323000085,,,,,,,,,,,,,,,,,,,,,,463.3824976000178,463.38253740000073,463.39140700001735,463.3988323000085,463.3988323000085,463.3988323000085,463.3988323000085,466.39847800001735,466.39847800001735,467.38204210001277,1,1,0.8865639000141528,0.4170684999844525,None,467.38210630000685,467.38212729999213,None,467.38215419999324,467.38217120000627,None,467.3986602000077,467.3986602000077,,,,,,,,,,,8,3,0,1,2025-06-12_14h34.12.097,rtmindeye,2024.2.4,60.00279612714228,2025-06-12 14h34.22.260633 -0400,
all_stimuli/shared1000_notspecial/notspecial_6222.png,13,0,13,13,0,,,,0,0,1,3,1,"[9, 21, 31, 45, 56, 68, 69]",1,1,0.7828150999848731,0.3789847000152804,None,None,None,,,,,,,,,,,1,0,1,0,0,13,13,13,467.3986602000077,,,,,,,,,,,,,,,,,,,,,,467.3823192999989,467.3823575999995,467.39134930001455,467.3986602000077,467.3986602000077,467.3986602000077,467.3986602000077,470.39857910000137,470.39857910000137,471.38190219999524,1,1,0.7828150999848731,0.3789847000152804,None,471.38196679999237,471.3819863999961,None,471.38201080000727,471.3820280999935,None,471.3983586000104,471.3983586000104,,,,,,,,,,,8,3,0,1,2025-06-12_14h34.12.097,rtmindeye,2024.2.4,60.00279612714228,2025-06-12 14h34.22.260633 -0400,
all_stimuli/MST_pairs1/pair_44_w_log_cabin2.jpg,14,0,14,14,0,,,,0,0,1,3,1,"[9, 21, 31, 45, 56, 68, 69]",1,1,1.0720246999990195,0.517064699990442,None,None,None,,,,,,,,,,,1,0,1,0,0,14,14,14,471.3983586000104,,,,,,,,,,,,,,,,,,,,,,471.3821734999947,471.3822116999945,471.38963079999667,471.3983586000104,471.3983586000104,471.3983586000104,471.3983586000104,474.3985016999941,474.3985016999941,475.3821954000159,1,1,1.0720246999990195,0.517064699990442,None,475.38225920000696,475.3822796000168,None,475.38230319999275,475.38232030000654,None,475.3988052000059,475.3988052000059,,,,,,,,,,,8,3,0,1,2025-06-12_14h34.12.097,rtmindeye,2024.2.4,60.00279612714228,2025-06-12 14h34.22.260633 -0400,
all_stimuli/special515/special_28068.jpg,15,0,15,15,0,,,,0,0,1,3,1,"[9, 21, 31, 45, 56, 68, 69]",1,1,1.431690700002946,0.3940932000114117,None,None,None,,,,,,,,,,,1,0,1,0,0,15,15,15,475.3988052000059,,,,,,,,,,,,,,,,,,,,,,475.3824712000205,475.38251039999886,475.39129470000626,475.3988052000059,475.3988052000059,475.3988052000059,475.3988052000059,478.3986545999942,478.3986545999942,479.38224840001203,1,1,1.431690700002946,0.3940932000114117,None,479.3823121000023,479.38233300001593,None,479.38235679999343,479.38237380000646,None,479.3981976000068,479.3981976000068,,,,,,,,,,,8,3,0,1,2025-06-12_14h34.12.097,rtmindeye,2024.2.4,60.00279612714228,2025-06-12 14h34.22.260633 -0400,
all_stimuli/shared1000_notspecial/notspecial_60978.png,16,0,16,16,0,,,,0,0,1,3,1,"[9, 21, 31, 45, 56, 68, 69]",1,1,0.8133275999862235,0.4429431000025943,None,None,None,,,,,,,,,,,1,0,1,0,0,16,16,16,479.3981976000068,,,,,,,,,,,,,,,,,,,,,,479.3825219999999,479.3825646000041,479.39237879999564,479.3981976000068,479.3981976000068,479.3981976000068,479.3981976000068,482.3984057000198,482.3984057000198,483.3821804000181,1,1,0.8133275999862235,0.4429431000025943,None,483.3822477000067,483.3822673000104,None,483.38229100001627,483.3823076999979,None,483.39854339999147,483.39854339999147,,,,,,,,,,,8,3,0,1,2025-06-12_14h34.12.097,rtmindeye,2024.2.4,60.00279612714228,2025-06-12 14h34.22.260633 -0400,
all_stimuli/MST_pairs1/pair_2_4_22.png,17,0,17,17,0,,,,0,0,1,3,1,"[9, 21, 31, 45, 56, 68, 69]",2,0,1.2539214999997057,0.4969150999968406,None,None,None,,,,,,,,,,,1,0,1,0,0,17,17,17,483.39854339999147,,,,,,,,,,,,,,,,,,,,,,483.38245740000275,483.3824968000117,483.392210799997,483.39854339999147,483.39854339999147,483.39854339999147,483.39854339999147,486.3985224000062,486.3985224000062,487.3818525999959,2,0,1.2539214999997057,0.4969150999968406,None,487.38191670001834,487.38193679999677,None,487.3819597999973,487.381976500008,None,487.3986603000085,487.3986603000085,,,,,,,,,,,8,3,0,1,2025-06-12_14h34.12.097,rtmindeye,2024.2.4,60.00279612714228,2025-06-12 14h34.22.260633 -0400,
all_stimuli/shared1000_notspecial/notspecial_46160.png,18,0,18,18,0,,,,0,0,1,3,1,"[9, 21, 31, 45, 56, 68, 69]",1,1,0.8358138000185136,0.4750151000043843,None,None,None,,,,,,,,,,,1,0,1,0,0,18,18,18,487.3986603000085,,,,,,,,,,,,,,,,,,,,,,487.3821230000176,487.3821613000182,487.3923042000097,487.3986603000085,487.3986603000085,487.3986603000085,487.3986603000085,490.398917500017,490.398917500017,491.38198450001073,1,1,0.8358138000185136,0.4750151000043843,None,491.3820490000071,491.3820684000093,None,491.3820927000197,491.38210990000516,None,491.3988118999987,491.3988118999987,,,,,,,,,,,8,3,0,1,2025-06-12_14h34.12.097,rtmindeye,2024.2.4,60.00279612714228,2025-06-12 14h34.22.260633 -0400,
all_stimuli/special515/special_64880.jpg,19,0,19,19,0,,,,0,0,1,3,1,"[9, 21, 31, 45, 56, 68, 69]",1,1,0.7748827000032179,0.5266750000009779,None,None,None,,,,,,,,,,,1,0,1,0,0,19,19,19,491.3988118999987,,,,,,,,,,,,,,,,,,,,,,491.3822599000123,491.3822989000182,491.39003189999494,491.3988118999987,491.3988118999987,491.3988118999987,491.3988118999987,494.3985809000151,494.3985809000151,495.38197360001504,1,1,0.7748827000032179,0.5266750000009779,None,495.3820369000023,495.3820578000159,None,495.38208219999797,495.3820997000148,None,495.39850510002,495.39850510002,,,,,,,,,,,8,3,0,1,2025-06-12_14h34.12.097,rtmindeye,2024.2.4,60.00279612714228,2025-06-12 14h34.22.260633 -0400,
all_stimuli/MST_pairs1/pair_36_nsd_949_1_cocoid_43196.png,20,0,20,20,0,,,,0,0,1,3,1,"[9, 21, 31, 45, 56, 68, 69]",1,1,0.9019489000202157,0.472996799973771,None,None,None,,,,,,,,,,,1,0,1,0,0,20,20,20,495.39850510002,,,,,,,,,,,,,,,,,,,,,,495.382251300005,495.3822904000117,495.39666850000503,495.39850510002,495.39850510002,495.39850510002,495.39850510002,498.39859170001,498.39859170001,499.3819496000069,1,1,0.9019489000202157,0.472996799973771,None,499.38201210001716,499.38203179999255,None,499.38205509999534,499.3820718000061,None,499.3987682000152,499.3987682000152,,,,,,,,,,,8,3,0,1,2025-06-12_14h34.12.097,rtmindeye,2024.2.4,60.00279612714228,2025-06-12 14h34.22.260633 -0400,
blank.jpg,21,1,21,21,0,,,,0,0,1,3,1,"[9, 21, 31, 45, 56, 68, 69]",None,0,,,None,None,None,,,,,,,,,,,1,0,1,0,0,21,21,21,499.3987682000152,,,,,,,,,,,,,,,,,,,,,,499.38221730000805,499.3822666000051,499.3889296000125,499.3987682000152,499.3987682000152,499.3987682000152,499.3987682000152,502.3985242000199,502.3985242000199,503.3819752999989,None,0,,,None,503.38203259999864,503.38205410001683,None,503.3820796000073,503.38209719999577,None,503.39886499999557,503.39886499999557,,,,,,,,,,,8,3,0,1,2025-06-12_14h34.12.097,rtmindeye,2024.2.4,60.00279612714228,2025-06-12 14h34.22.260633 -0400,
all_stimuli/special515/special_30632.jpg,22,0,22,22,0,,,,1,0,1,3,1,"[9, 21, 31, 45, 56, 68, 69]",2,1,0.8535642999922857,0.4231387000181712,None,None,None,,,,,,,,,,,1,0,1,0,0,22,22,22,503.39886499999557,,,,,,,,,,,,,,,,,,,,,,503.38224390000687,503.3822826000105,503.3901199999964,503.39886499999557,503.39886499999557,503.39886499999557,503.39886499999557,506.3985403999977,506.3985403999977,507.38220100000035,2,1,0.8535642999922857,0.4231387000181712,None,507.382265799999,507.3822870000149,None,507.38231020001695,507.38232730000163,None,507.3986186000111,507.3986186000111,,,,,,,,,,,8,3,0,1,2025-06-12_14h34.12.097,rtmindeye,2024.2.4,60.00279612714228,2025-06-12 14h34.22.260633 -0400,
all_stimuli/MST_pairs1/pair_20_nsd_41_2_cocoid_63715.png,23,0,23,23,0,,,,1,0,1,3,1,"[9, 21, 31, 45, 56, 68, 69]",2,1,1.2088768999965396,0.4529420000035316,None,None,None,,,,,,,,,,,1,0,1,0,0,23,23,23,507.3986186000111,,,,,,,,,,,,,,,,,,,,,,507.3824760999996,507.3825144000002,507.3968406000058,507.3986186000111,507.3986186000111,507.3986186000111,507.3986186000111,510.39869400000316,510.39869400000316,511.38193890001276,2,1,1.2088768999965396,0.4529420000035316,None,511.38200129999314,511.38202089999686,None,511.3820444000012,511.3820614000142,None,511.4011618999939,511.4011618999939,,,,,,,,,,,8,3,0,1,2025-06-12_14h34.12.097,rtmindeye,2024.2.4,60.00279612714228,2025-06-12 14h34.22.260633 -0400,
all_stimuli/MST_pairs1/pair_22_nsd_115_2_cocoid_65194.png,24,0,24,24,0,,,,0,0,1,3,1,"[9, 21, 31, 45, 56, 68, 69]",1,1,0.9384148999815807,0.589890600007493,None,None,None,,,,,,,,,,,1,0,1,0,0,24,24,24,511.4011618999939,,,,,,,,,,,,,,,,,,,,,,511.3822068000154,511.3822490000166,511.39925550000044,511.4011618999939,511.4011618999939,511.4011618999939,511.4011618999939,514.4150460000092,514.4150460000092,515.3981144000136,1,1,0.9384148999815807,0.589890600007493,None,515.3981835000159,515.3982040999981,None,515.39822860001,515.3982461999985,None,,,,,,,,,,,,,8,3,0,1,2025-06-12_14h34.12.097,rtmindeye,2024.2.4,60.00279612714228,2025-06-12 14h34.22.260633 -0400,
all_stimuli/shared1000_notspecial/notspecial_26292.png,25,0,25,25,0,,,,0,0,1,3,1,"[9, 21, 31, 45, 56, 68, 69]",1,1,1.0260555999993812,0.4768791999958921,None,None,None,,,,,,,,,,,1,0,1,0,0,25,25,25,515.4154269999999,,,,,,,,,,,,,,,,,,,,,,515.3983978000178,515.3984408999968,515.407738000009,515.4154269999999,515.4154269999999,515.4154269999999,515.4154269999999,518.4150305000076,518.4150305000076,519.3985255000007,1,1,1.0260555999993812,0.4768791999958921,None,519.3985943000007,519.3986147000105,None,519.3986383000156,519.3986558000033,None,,,,,,,,,,,,,8,3,0,1,2025-06-12_14h34.12.097,rtmindeye,2024.2.4,60.00279612714228,2025-06-12 14h34.22.260633 -0400,
all_stimuli/special515/special_6489.jpg,26,0,26,26,0,,,,1,0,1,3,1,"[9, 21, 31, 45, 56, 68, 69]",2,1,1.832083999994211,0.3359409999975469,None,None,None,,,,,,,,,,,1,0,1,0,0,26,26,26,519.41535570001,,,,,,,,,,,,,,,,,,,,,,519.3988065000158,519.3988496999955,519.406782200007,519.41535570001,519.41535570001,519.41535570001,519.41535570001,522.4150867999997,522.4150867999997,523.3987834000145,2,1,1.832083999994211,0.3359409999975469,None,523.3988469000033,523.3988680000184,None,523.3988917999959,523.3989090000105,None,523.4154116999998,523.4154116999998,,,,,,,,,,,8,3,0,1,2025-06-12_14h34.12.097,rtmindeye,2024.2.4,60.00279612714228,2025-06-12 14h34.22.260633 -0400,
all_stimuli/special515/special_55678.jpg,27,0,27,27,0,,,,0,0,1,3,1,"[9, 21, 31, 45, 56, 68, 69]",1,1,1.1580871999904048,0.4059447000036016,None,None,None,,,,,,,,,,,1,0,1,0,0,27,27,27,523.4154116999998,,,,,,,,,,,,,,,,,,,,,,523.3990593999915,523.3990983999975,523.4079739000008,523.4154116999998,523.4154116999998,523.4154116999998,523.4154116999998,526.4151659999916,526.4151659999916,527.3987011999998,1,1,1.1580871999904048,0.4059447000036016,None,527.3987689999922,527.3987901000073,None,527.3988142000162,527.3988312000001,None,527.4155204000126,527.4155204000126,,,,,,,,,,,8,3,0,1,2025-06-12_14h34.12.097,rtmindeye,2024.2.4,60.00279612714228,2025-06-12 14h34.22.260633 -0400,
all_stimuli/special515/special_40909.jpg,28,0,28,28,0,,,,0,0,1,3,1,"[9, 21, 31, 45, 56, 68, 69]",1,1,1.1328033999889158,0.5950889000087045,None,None,None,,,,,,,,,,,1,0,1,0,0,28,28,28,527.4155204000126,,,,,,,,,,,,,,,,,,,,,,527.3989791000204,527.3990180999972,527.40697370001,527.4155204000126,527.4155204000126,527.4155204000126,527.4155204000126,530.415167500003,530.415167500003,531.3984353000124,1,1,1.1328033999889158,0.5950889000087045,None,531.3984983999981,531.3985190000094,None,531.3985419000091,531.3985589999938,None,531.4154689999996,531.4154689999996,,,,,,,,,,,8,3,0,1,2025-06-12_14h34.12.097,rtmindeye,2024.2.4,60.00279612714228,2025-06-12 14h34.22.260633 -0400,
all_stimuli/special515/special_70360.jpg,29,0,29,29,0,,,,0,0,1,3,1,"[9, 21, 31, 45, 56, 68, 69]",1,1,1.234970899997279,0.3919893999991473,None,None,None,,,,,,,,,,,1,0,1,0,0,29,29,29,531.4154689999996,,,,,,,,,,,,,,,,,,,,,,531.3987067000126,531.3987487000122,531.4058444999973,531.4154689999996,531.4154689999996,531.4154689999996,531.4154689999996,534.4149765000038,534.4149765000038,535.3982476000092,1,1,1.234970899997279,0.3919893999991473,None,535.3983123000071,535.3983335999947,None,535.398357099999,535.3983739000105,None,535.4149804000044,535.4149804000044,,,,,,,,,,,8,3,0,1,2025-06-12_14h34.12.097,rtmindeye,2024.2.4,60.00279612714228,2025-06-12 14h34.22.260633 -0400,
all_stimuli/MST_pairs1/pair_42_w_icerink1.jpg,30,0,30,30,0,,,,0,0,1,3,1,"[9, 21, 31, 45, 56, 68, 69]",2,0,0.6785311000130605,0.4888459999929182,None,None,None,,,,,,,,,,,1,0,1,0,0,30,30,30,535.4149804000044,,,,,,,,,,,,,,,,,,,,,,535.398522500007,535.3985599000007,535.4063838000002,535.4149804000044,535.4149804000044,535.4149804000044,535.4149804000044,538.4150235000125,538.4150235000125,539.3984966000135,2,0,0.6785311000130605,0.4888459999929182,None,539.3985583000176,539.3985787999991,None,539.3986017999996,539.3986190000142,None,539.4154674000165,539.4154674000165,,,,,,,,,,,8,3,0,1,2025-06-12_14h34.12.097,rtmindeye,2024.2.4,60.00279612714228,2025-06-12 14h34.22.260633 -0400,
blank.jpg,31,1,31,31,0,,,,0,0,1,3,1,"[9, 21, 31, 45, 56, 68, 69]",None,0,,,None,None,None,,,,,,,,,,,1,0,1,0,0,31,31,31,539.4154674000165,,,,,,,,,,,,,,,,,,,,,,539.3987644000154,539.3988024000137,539.4044796999951,539.4154674000165,539.4154674000165,539.4154674000165,539.4154674000165,542.4151249999995,542.4151249999995,543.398460299999,None,0,,,None,543.3985172999965,543.3985384000116,None,543.3985626999929,543.3985796000052,None,543.4154928000062,543.4154928000062,,,,,,,,,,,8,3,0,1,2025-06-12_14h34.12.097,rtmindeye,2024.2.4,60.00279612714228,2025-06-12 14h34.22.260633 -0400,
all_stimuli/special515/special_30430.jpg,32,0,32,32,0,,,,1,0,1,3,1,"[9, 21, 31, 45, 56, 68, 69]",2,1,0.8379474999965169,0.4211021999944933,None,None,None,,,,,,,,,,,1,0,1,0,0,32,32,32,543.4154928000062,,,,,,,,,,,,,,,,,,,,,,543.3987384999928,543.3987774999987,543.4064196000108,543.4154928000062,543.4154928000062,543.4154928000062,543.4154928000062,546.4149863000202,546.4149863000202,547.3983927000081,2,1,0.8379474999965169,0.4211021999944933,None,547.3984588000167,547.3984793999989,None,547.3985033000063,547.3985202000185,None,547.4150024999981,547.4150024999981,,,,,,,,,,,8,3,0,1,2025-06-12_14h34.12.097,rtmindeye,2024.2.4,60.00279612714228,2025-06-12 14h34.22.260633 -0400,
all_stimuli/shared1000_notspecial/notspecial_43746.png,33,0,33,33,0,,,,0,0,1,3,1,"[9, 21, 31, 45, 56, 68, 69]",1,1,1.3013148999889381,0.3499768000037875,None,None,None,,,,,,,,,,,1,0,1,0,0,33,33,33,547.4150024999981,,,,,,,,,,,,,,,,,,,,,,547.3986685000127,547.3987066000118,547.4091262000147,547.4150024999981,547.4150024999981,547.4150024999981,547.4150024999981,550.4150993000076,550.4150993000076,551.3986934999994,1,1,1.3013148999889381,0.3499768000037875,None,551.3987605000148,551.398781099997,None,551.398809300008,551.3988262000203,None,551.418067999999,551.418067999999,,,,,,,,,,,8,3,0,1,2025-06-12_14h34.12.097,rtmindeye,2024.2.4,60.00279612714228,2025-06-12 14h34.22.260633 -0400,
all_stimuli/MST_pairs1/pair_34_nsd_875_1_cocoid_67762.png,34,0,34,34,0,,,,0,0,1,3,1,"[9, 21, 31, 45, 56, 68, 69]",1,1,1.2383861999842338,0.3768930000078399,None,None,None,,,,,,,,,,,1,0,1,0,0,34,34,34,551.418067999999,,,,,,,,,,,,,,,,,,,,,,551.3991421000101,551.3991826999991,551.4161371999944,551.418067999999,551.418067999999,551.418067999999,551.418067999999,554.4317441000021,554.4317441000021,555.415100400016,1,1,1.2383861999842338,0.3768930000078399,None,555.415169600019,555.4151897999982,None,555.4152146000124,555.4152324000024,None,,,,,,,,,,,,,8,3,0,1,2025-06-12_14h34.12.097,rtmindeye,2024.2.4,60.00279612714228,2025-06-12 14h34.22.260633 -0400,
all_stimuli/MST_pairs1/pair_12_16_78.png,35,0,35,35,0,,,,1,0,1,3,1,"[9, 21, 31, 45, 56, 68, 69]",2,1,1.0437472000194248,0.36711880000075325,None,None,None,,,,,,,,,,,1,0,1,0,0,35,35,35,555.4316154000117,,,,,,,,,,,,,,,,,,,,,,555.4153892000031,555.4154330000165,555.4253349000064,555.4316154000117,555.4316154000117,555.4316154000117,555.4316154000117,558.4318218000117,558.4318218000117,559.4151694000175,2,1,1.0437472000194248,0.36711880000075325,None,559.4152316999971,559.4152512000001,None,559.415275700012,559.4152931999997,None,559.432002400019,559.432002400019,,,,,,,,,,,8,3,0,1,2025-06-12_14h34.12.097,rtmindeye,2024.2.4,60.00279612714228,2025-06-12 14h34.22.260633 -0400,
all_stimuli/special515/special_4249.jpg,36,0,36,36,0,,,,1,0,1,3,1,"[9, 21, 31, 45, 56, 68, 69]",2,1,1.2934576999978162,0.39996789998258464,None,None,None,,,,,,,,,,,1,0,1,0,0,36,36,36,559.432002400019,,,,,,,,,,,,,,,,,,,,,,559.4154400000116,559.4154785000137,559.4240975000139,559.432002400019,559.432002400019,559.432002400019,559.432002400019,562.4319138000137,562.4319138000137,563.4153120999981,2,1,1.2934576999978162,0.39996789998258464,None,563.4153749000106,563.4153956999944,None,563.4154196000018,563.4154408000177,None,563.4318300000159,563.4318300000159,,,,,,,,,,,8,3,0,1,2025-06-12_14h34.12.097,rtmindeye,2024.2.4,60.00279612714228,2025-06-12 14h34.22.260633 -0400,
all_stimuli/MST_pairs1/pair_42_w_icerink2.jpg,37,0,37,37,0,,,,1,0,1,3,1,"[9, 21, 31, 45, 56, 68, 69]",2,1,0.8385472999943886,0.47610299999359995,None,None,None,,,,,,,,,,,1,0,1,0,0,37,37,37,563.4318300000159,,,,,,,,,,,,,,,,,,,,,,563.4155892000126,563.4156316000153,563.4229534000042,563.4318300000159,563.4318300000159,563.4318300000159,563.4318300000159,566.4317879000155,566.4317879000155,567.4151564000058,2,1,0.8385472999943886,0.47610299999359995,None,567.4152209000022,567.4152418000158,None,567.4152660999971,567.4152826000063,None,567.4315170000191,567.4315170000191,,,,,,,,,,,8,3,0,1,2025-06-12_14h34.12.097,rtmindeye,2024.2.4,60.00279612714228,2025-06-12 14h34.22.260633 -0400,
all_stimuli/shared1000_notspecial/notspecial_70038.png,38,0,38,38,0,,,,0,0,1,3,1,"[9, 21, 31, 45, 56, 68, 69]",2,0,1.5489330000127666,0.4348559999780264,None,None,None,,,,,,,,,,,1,0,1,0,0,38,38,38,567.4315170000191,,,,,,,,,,,,,,,,,,,,,,567.4154362000118,567.415485000005,567.4239856000058,567.4315170000191,567.4315170000191,567.4315170000191,567.4315170000191,570.4318695999973,570.4318695999973,571.4151409000042,2,0,1.5489330000127666,0.4348559999780264,None,571.4152038000175,571.4152240999974,None,571.4152481000056,571.4152652000193,None,571.4322180000017,571.4322180000017,,,,,,,,,,,8,3,0,1,2025-06-12_14h34.12.097,rtmindeye,2024.2.4,60.00279612714228,2025-06-12 14h34.22.260633 -0400,
all_stimuli/special515/special_53155.jpg,39,0,39,39,0,,,,0,0,1,3,1,"[9, 21, 31, 45, 56, 68, 69]",1,1,0.7892403000150807,0.4299440000031609,None,None,None,,,,,,,,,,,1,0,1,0,0,39,39,39,571.4322180000017,,,,,,,,,,,,,,,,,,,,,,571.4154161000042,571.4154552000109,571.4240993999992,571.4322180000017,571.4322180000017,571.4322180000017,571.4322180000017,574.4315466000116,574.4315466000116,575.4151928999927,1,1,0.7892403000150807,0.4299440000031609,None,575.4152572000166,575.4152780000004,None,575.4153019000078,575.4153190999932,None,575.4320909999951,575.4320909999951,,,,,,,,,,,8,3,0,1,2025-06-12_14h34.12.097,rtmindeye,2024.2.4,60.00279612714228,2025-06-12 14h34.22.260633 -0400,
all_stimuli/special515/special_24530.jpg,40,0,40,40,0,,,,1,0,1,3,1,"[9, 21, 31, 45, 56, 68, 69]",2,1,0.7784286999958567,0.4707788999949116,None,None,None,,,,,,,,,,,1,0,1,0,0,40,40,40,575.4320909999951,,,,,,,,,,,,,,,,,,,,,,575.4154649999982,575.4155029999965,575.4230521999998,575.4320909999951,575.4320909999951,575.4320909999951,575.4320909999951,578.4315271000087,578.4315271000087,579.414895599999,2,1,0.7784286999958567,0.4707788999949116,None,579.4149589000153,579.4149804000044,None,579.4150045000133,579.4150216999988,None,579.4319513000082,579.4319513000082,,,,,,,,,,,8,3,0,1,2025-06-12_14h34.12.097,rtmindeye,2024.2.4,60.00279612714228,2025-06-12 14h34.22.260633 -0400,
all_stimuli/special515/special_32232.jpg,41,0,41,41,0,,,,0,0,1,3,1,"[9, 21, 31, 45, 56, 68, 69]",2,0,0.9193891000177246,0.6030348000058439,None,None,None,,,,,,,,,,,1,0,1,0,0,41,41,41,579.4319513000082,,,,,,,,,,,,,,,,,,,,,,579.4151711000013,579.4152089999989,579.422642199992,579.4319513000082,579.4319513000082,579.4319513000082,579.4319513000082,582.431665400014,582.431665400014,583.4151792000048,2,0,0.9193891000177246,0.6030348000058439,None,583.4152429999958,583.4152633000049,None,583.4152868000092,583.4153037999931,None,583.4319055000087,583.4319055000087,,,,,,,,,,,8,3,0,1,2025-06-12_14h34.12.097,rtmindeye,2024.2.4,60.00279612714228,2025-06-12 14h34.22.260633 -0400,
all_stimuli/special515/special_41814.jpg,42,0,42,42,0,,,,0,0,1,3,1,"[9, 21, 31, 45, 56, 68, 69]",1,1,1.142506999982288,0.3010612000070978,None,None,None,,,,,,,,,,,1,0,1,0,0,42,42,42,583.4319055000087,,,,,,,,,,,,,,,,,,,,,,583.4154549000086,583.4154967000068,583.4246436000103,583.4319055000087,583.4319055000087,583.4319055000087,583.4319055000087,586.4317165999964,586.4317165999964,587.4150762000063,1,1,1.142506999982288,0.3010612000070978,None,587.4151399999973,587.4151614000148,None,587.4151854999945,587.4152027000091,None,587.4315973000193,587.4315973000193,,,,,,,,,,,8,3,0,1,2025-06-12_14h34.12.097,rtmindeye,2024.2.4,60.00279612714228,2025-06-12 14h34.22.260633 -0400,
all_stimuli/shared1000_notspecial/notspecial_23883.png,43,0,43,43,0,,,,0,0,1,3,1,"[9, 21, 31, 45, 56, 68, 69]",1,1,1.107824000006076,0.5909663999918848,None,None,None,,,,,,,,,,,1,0,1,0,0,43,43,43,587.4315973000193,,,,,,,,,,,,,,,,,,,,,,587.4153490000172,587.4153911000176,587.4248048000154,587.4315973000193,587.4315973000193,587.4315973000193,587.4315973000193,590.4316271000134,590.4316271000134,591.4150329999975,1,1,1.107824000006076,0.5909663999918848,None,591.4150960000115,591.4151159000176,None,591.4151400999981,591.4151569000096,None,591.431399699999,591.431399699999,,,,,,,,,,,8,3,0,1,2025-06-12_14h34.12.097,rtmindeye,2024.2.4,60.00279612714228,2025-06-12 14h34.22.260633 -0400,
all_stimuli/shared1000_notspecial/notspecial_4436.png,44,0,44,44,0,,,,0,0,1,3,1,"[9, 21, 31, 45, 56, 68, 69]",1,1,0.9981360999809112,0.3909011000068858,None,None,None,,,,,,,,,,,1,0,1,0,0,44,44,44,591.431399699999,,,,,,,,,,,,,,,,,,,,,,591.4153023000108,591.4153408000129,591.4244499000197,591.431399699999,591.431399699999,591.431399699999,591.431399699999,594.4315667000192,594.4315667000192,595.4152056000021,1,1,0.9981360999809112,0.3909011000068858,None,595.4152686000161,595.4152881000191,None,595.4153126000019,595.4153293000127,None,595.4319661000045,595.4319661000045,,,,,,,,,,,8,3,0,1,2025-06-12_14h34.12.097,rtmindeye,2024.2.4,60.00279612714228,2025-06-12 14h34.22.260633 -0400,
blank.jpg,45,1,45,45,0,,,,0,0,1,3,1,"[9, 21, 31, 45, 56, 68, 69]",None,0,,,None,None,None,,,,,,,,,,,1,0,1,0,0,45,45,45,595.4319661000045,,,,,,,,,,,,,,,,,,,,,,595.4154739000078,595.4155218999949,595.4228333999927,595.4319661000045,595.4319661000045,595.4319661000045,595.4319661000045,598.4316351000161,598.4316351000161,599.4151555999997,None,0,,,None,599.41521560002,599.4152367000061,None,599.415261200018,599.4152781000012,None,599.4319847000006,599.4319847000006,,,,,,,,,,,8,3,0,1,2025-06-12_14h34.12.097,rtmindeye,2024.2.4,60.00279612714228,2025-06-12 14h34.22.260633 -0400,
all_stimuli/special515/special_61133.jpg,46,0,46,46,0,,,,1,0,1,3,1,"[9, 21, 31, 45, 56, 68, 69]",2,1,1.1625239000131842,0.4139151999843307,None,None,None,,,,,,,,,,,1,0,1,0,0,46,46,46,599.4319847000006,,,,,,,,,,,,,,,,,,,,,,599.4154258999915,599.4154642999929,599.4233677000157,599.4319847000006,599.4319847000006,599.4319847000006,599.4319847000006,602.4315937999927,602.4315937999927,603.4150778000185,2,1,1.1625239000131842,0.4139151999843307,None,603.4151423000148,603.4151628999971,None,603.4151869000052,603.415203600016,None,603.4342217000085,603.4342217000085,,,,,,,,,,,8,3,0,1,2025-06-12_14h34.12.097,rtmindeye,2024.2.4,60.00279612714228,2025-06-12 14h34.22.260633 -0400,
all_stimuli/MST_pairs1/pair_24_nsd_158_2_cocoid_3673.png,47,0,47,47,0,,,,0,0,1,3,1,"[9, 21, 31, 45, 56, 68, 69]",2,0,1.4123320000071544,0.3838619999878574,None,None,None,,,,,,,,,,,1,0,1,0,0,47,47,47,603.4342217000085,,,,,,,,,,,,,,,,,,,,,,603.4153503999987,603.4153922999976,603.4320164000092,603.4342217000085,603.4342217000085,603.4342217000085,603.4342217000085,606.4483040000196,606.4483040000196,607.4318014000019,2,0,1.4123320000071544,0.3838619999878574,None,607.4318698999996,607.4318907000124,None,607.4319151999953,607.4319324000098,None,,,,,,,,,,,,,8,3,0,1,2025-06-12_14h34.12.097,rtmindeye,2024.2.4,60.00279612714228,2025-06-12 14h34.22.260633 -0400,
all_stimuli/MST_pairs1/pair_34_nsd_875_2_cocoid_72398.png,48,0,48,48,0,,,,0,0,1,3,1,"[9, 21, 31, 45, 56, 68, 69]",2,0,1.780438099987805,0.31901680000009947,None,None,None,,,,,,,,,,,1,0,1,0,0,48,48,48,607.450891799992,,,,,,,,,,,,,,,,,,,,,,607.4320889000082,607.4321325999917,607.4490211000084,607.450891799992,607.450891799992,607.450891799992,607.450891799992,610.4649669000064,610.4649669000064,611.4485507000063,2,0,1.780438099987805,0.31901680000009947,None,611.4486207000155,611.4486418000015,None,611.4486657000089,611.4486835999996,None,,,,,,,,,,,,,8,3,0,1,2025-06-12_14h34.12.097,rtmindeye,2024.2.4,60.00279612714228,2025-06-12 14h34.22.260633 -0400,
all_stimuli/shared1000_notspecial/notspecial_51965.png,49,0,49,49,0,,,,0,0,1,3,1,"[9, 21, 31, 45, 56, 68, 69]",1,1,0.9195192999904975,0.4901272999995854,None,None,None,,,,,,,,,,,1,0,1,0,0,49,49,49,611.4648039000167,,,,,,,,,,,,,,,,,,,,,,611.4488354000205,611.4488786000002,611.4583704000106,611.4648039000167,611.4648039000167,611.4648039000167,611.4648039000167,614.4649614999944,614.4649614999944,615.448387100012,1,1,0.9195192999904975,0.4901272999995854,None,615.4484524000145,615.4484718000167,None,615.4484953999927,615.448512300005,None,615.466118900018,615.466118900018,,,,,,,,,,,8,3,0,1,2025-06-12_14h34.12.097,rtmindeye,2024.2.4,60.00279612714228,2025-06-12 14h34.22.260633 -0400,
all_stimuli/MST_pairs1/pair_30_nsd_676_1_cocoid_48729.png,50,0,50,50,0,,,,0,0,1,3,1,"[9, 21, 31, 45, 56, 68, 69]",1,1,1.0501737000013236,0.534964399994351,None,None,None,,,,,,,,,,,1,0,1,0,0,50,50,50,615.466118900018,,,,,,,,,,,,,,,,,,,,,,615.4486593000183,615.4486972000159,615.4641520000005,615.466118900018,615.466118900018,615.466118900018,615.466118900018,618.4815225999919,618.4815225999919,619.465237700002,1,1,1.0501737000013236,0.534964399994351,None,619.4653064000013,619.4653271000134,None,619.4653514999954,619.4653689000115,None,,,,,,,,,,,,,8,3,0,1,2025-06-12_14h34.12.097,rtmindeye,2024.2.4,60.00279612714228,2025-06-12 14h34.22.260633 -0400,
all_stimuli/shared1000_notspecial/notspecial_52328.png,51,0,51,51,0,,,,0,0,1,3,1,"[9, 21, 31, 45, 56, 68, 69]",1,1,0.925711300020339,0.40789329999824986,None,None,None,,,,,,,,,,,1,0,1,0,0,51,51,51,619.4816488999932,,,,,,,,,,,,,,,,,,,,,,619.4655325000058,619.4655762000184,619.4758180000063,619.4816488999932,619.4816488999932,619.4816488999932,619.4816488999932,622.4814557000063,622.4814557000063,623.4651951999986,1,1,0.925711300020339,0.40789329999824986,None,623.4652602999995,623.4652806000086,None,623.4653048000182,623.4653217000014,None,623.4816468000063,623.4816468000063,,,,,,,,,,,8,3,0,1,2025-06-12_14h34.12.097,rtmindeye,2024.2.4,60.00279612714228,2025-06-12 14h34.22.260633 -0400,
all_stimuli/MST_pairs1/pair_4_6_44.png,52,0,52,52,0,,,,0,0,1,3,1,"[9, 21, 31, 45, 56, 68, 69]",1,1,0.8718223000178114,0.4090128999960143,None,None,None,,,,,,,,,,,1,0,1,0,0,52,52,52,623.4816468000063,,,,,,,,,,,,,,,,,,,,,,623.465468200011,623.4655066000123,623.4767234000028,623.4816468000063,623.4816468000063,623.4816468000063,623.4816468000063,626.481402800011,626.481402800011,627.4649892000016,1,1,0.8718223000178114,0.4090128999960143,None,627.4650535999972,627.4650733000017,None,627.4650971000083,627.4651137000183,None,627.4816843000008,627.4816843000008,,,,,,,,,,,8,3,0,1,2025-06-12_14h34.12.097,rtmindeye,2024.2.4,60.00279612714228,2025-06-12 14h34.22.260633 -0400,
all_stimuli/MST_pairs1/pair_48_w_runway1.jpg,53,0,53,53,0,,,,0,0,1,3,1,"[9, 21, 31, 45, 56, 68, 69]",1,1,1.1767342000093777,0.6028967000020202,None,None,None,,,,,,,,,,,1,0,1,0,0,53,53,53,627.4816843000008,,,,,,,,,,,,,,,,,,,,,,627.4652593999926,627.4653001000115,627.4719069999992,627.4816843000008,627.4816843000008,627.4816843000008,627.4816843000008,630.4815901000111,630.4815901000111,631.4651114000008,1,1,1.1767342000093777,0.6028967000020202,None,631.4651752999926,631.4651966000092,None,631.4652201000135,631.465236899996,None,631.4818717000016,631.4818717000016,,,,,,,,,,,8,3,0,1,2025-06-12_14h34.12.097,rtmindeye,2024.2.4,60.00279612714228,2025-06-12 14h34.22.260633 -0400,
all_stimuli/special515/special_40840.jpg,54,0,54,54,0,,,,1,0,1,3,1,"[9, 21, 31, 45, 56, 68, 69]",1,0,1.5884713999985252,0.30301350000081584,None,None,None,,,,,,,,,,,1,0,1,0,0,54,54,54,631.4818717000016,,,,,,,,,,,,,,,,,,,,,,631.4653867000015,631.4654253000044,631.4741066000133,631.4818717000016,631.4818717000016,631.4818717000016,631.4818717000016,634.4817075000028,634.4817075000028,635.4648914000136,1,0,1.5884713999985252,0.30301350000081584,None,635.4649575999938,635.4649782000051,None,635.4650012000056,635.4650181000179,None,635.481803600007,635.481803600007,,,,,,,,,,,8,3,0,1,2025-06-12_14h34.12.097,rtmindeye,2024.2.4,60.00279612714228,2025-06-12 14h34.22.260633 -0400,
all_stimuli/shared1000_notspecial/notspecial_12487.png,55,0,55,55,0,,,,0,0,1,3,1,"[9, 21, 31, 45, 56, 68, 69]",1,1,1.045671100000618,0.5227964999794494,None,None,None,,,,,,,,,,,1,0,1,0,0,55,55,55,635.481803600007,,,,,,,,,,,,,,,,,,,,,,635.4651663000113,635.4652043000096,635.4732067000004,635.481803600007,635.481803600007,635.481803600007,635.481803600007,638.4817383000045,638.4817383000045,639.4649810999981,1,1,1.045671100000618,0.5227964999794494,None,639.4650433000061,639.4650634000136,None,639.4650872000202,639.4651045000064,None,639.4817549000145,639.4817549000145,,,,,,,,,,,8,3,0,1,2025-06-12_14h34.12.097,rtmindeye,2024.2.4,60.00279612714228,2025-06-12 14h34.22.260633 -0400,
blank.jpg,56,1,56,56,0,,,,0,0,1,3,1,"[9, 21, 31, 45, 56, 68, 69]",None,0,,,None,None,None,,,,,,,,,,,1,0,1,0,0,56,56,56,639.4817549000145,,,,,,,,,,,,,,,,,,,,,,639.465251799993,639.4652898000204,639.4712345000007,639.4817549000145,639.4817549000145,639.4817549000145,639.4817549000145,642.4815132000076,642.4815132000076,643.465123300004,None,0,,,None,643.4651823000167,643.4652036000043,None,643.4652269000071,643.4652441999933,None,643.4812260000035,643.4812260000035,,,,,,,,,,,8,3,0,1,2025-06-12_14h34.12.097,rtmindeye,2024.2.4,60.00279612714228,2025-06-12 14h34.22.260633 -0400,
all_stimuli/MST_pairs1/pair_16_20_0.png,57,0,57,57,0,,,,1,0,1,3,1,"[9, 21, 31, 45, 56, 68, 69]",2,1,0.9891639999987092,0.3379803999850992,None,None,None,,,,,,,,,,,1,0,1,0,0,57,57,57,643.4812260000035,,,,,,,,,,,,,,,,,,,,,,643.4653859999962,643.4654233000183,643.4764747000008,643.4812260000035,643.4812260000035,643.4812260000035,643.4812260000035,646.481457100017,646.481457100017,647.4650489000196,2,1,0.9891639999987092,0.3379803999850992,None,647.4651132000145,647.4651330000197,None,647.4651562999934,647.4651730000041,None,647.4816576000012,647.4816576000012,,,,,,,,,,,8,3,0,1,2025-06-12_14h34.12.097,rtmindeye,2024.2.4,60.00279612714228,2025-06-12 14h34.22.260633 -0400,
all_stimuli/shared1000_notspecial/notspecial_12685.png,58,0,58,58,0,,,,0,0,1,3,1,"[9, 21, 31, 45, 56, 68, 69]",1,1,0.8398094000003766,0.3258114000200294,None,None,None,,,,,,,,,,,1,0,1,0,0,58,58,58,647.4816576000012,,,,,,,,,,,,,,,,,,,,,,647.4653174999985,647.465360000002,647.4748354000039,647.4816576000012,647.4816576000012,647.4816576000012,647.4816576000012,650.4813972999982,650.4813972999982,651.4649802000204,1,1,0.8398094000003766,0.3258114000200294,None,651.4650427000015,651.4650622000045,None,651.4650872999919,651.4651041000034,None,651.4814445000084,651.4814445000084,,,,,,,,,,,8,3,0,1,2025-06-12_14h34.12.097,rtmindeye,2024.2.4,60.00279612714228,2025-06-12 14h34.22.260633 -0400,
all_stimuli/MST_pairs1/pair_36_nsd_949_2_cocoid_60031.png,59,0,59,59,0,,,,0,0,1,3,1,"[9, 21, 31, 45, 56, 68, 69]",None,0,,,['2'],None,None,,,,,[1.5168578999873716],[0.32311050000134856],,,,,1,0,1,0,0,59,59,59,651.4814445000084,,,,,,,,,,,,,,,,,,,,,,651.4652522999968,651.4652908999997,651.4795319999976,651.4814445000084,651.4814445000084,651.4814445000084,651.4814445000084,654.4814308999921,654.4814308999921,655.4649892000016,None,0,,,['2'],655.465080199996,655.4651006000058,None,655.4651248000155,655.4651427000063,None,655.4813211000001,655.4813211000001,,,,,,,,,[1.5168578999873716],[0.32311050000134856],8,3,0,1,2025-06-12_14h34.12.097,rtmindeye,2024.2.4,60.00279612714228,2025-06-12 14h34.22.260633 -0400,
all_stimuli/shared1000_notspecial/notspecial_34068.png,60,0,60,60,0,,,,0,0,1,3,1,"[9, 21, 31, 45, 56, 68, 69]",1,1,1.3220242999959737,0.32998399998177774,None,None,None,,,,,,,,,,,1,0,1,0,0,60,60,60,655.4813211000001,,,,,,,,,,,,,,,,,,,,,,655.4652919000073,655.465331000014,655.4752115000156,655.4813211000001,655.4813211000001,655.4813211000001,655.4813211000001,658.4816617000033,658.4816617000033,659.465111700003,1,1,1.3220242999959737,0.32998399998177774,None,659.4651747000171,659.4651942999917,None,659.4652176999953,659.4652347000083,None,659.4816919000004,659.4816919000004,,,,,,,,,,,8,3,0,1,2025-06-12_14h34.12.097,rtmindeye,2024.2.4,60.00279612714228,2025-06-12 14h34.22.260633 -0400,
all_stimuli/special515/special_11159.jpg,61,0,61,61,0,,,,0,0,1,3,1,"[9, 21, 31, 45, 56, 68, 69]",2,0,1.8565403999818955,0.3661765000142623,None,None,None,,,,,,,,,,,1,0,1,0,0,61,61,61,659.4816919000004,,,,,,,,,,,,,,,,,,,,,,659.4653807000141,659.4654224000114,659.4743954000005,659.4816919000004,659.4816919000004,659.4816919000004,659.4816919000004,662.4813497000141,662.4813497000141,663.4647602000041,2,0,1.8565403999818955,0.3661765000142623,None,663.4648251000035,663.4648454000126,None,663.4648691000184,663.4648861000023,None,663.4827321000048,663.4827321000048,,,,,,,,,,,8,3,0,1,2025-06-12_14h34.12.097,rtmindeye,2024.2.4,60.00279612714228,2025-06-12 14h34.22.260633 -0400,
all_stimuli/MST_pairs1/pair_34_nsd_875_2_cocoid_72398.png,62,0,62,62,0,,,,1,0,1,3,1,"[9, 21, 31, 45, 56, 68, 69]",2,1,0.7866108999878634,0.3920747000083793,None,None,None,,,,,,,,,,,1,0,1,0,0,62,62,62,663.4827321000048,,,,,,,,,,,,,,,,,,,,,,663.4650407000154,663.465079400019,663.4807379000122,663.4827321000048,663.4827321000048,663.4827321000048,663.4827321000048,666.498132800014,666.498132800014,667.4815492000198,2,1,0.7866108999878634,0.3920747000083793,None,667.481618299993,667.4816391000059,None,667.4816639000201,667.4816808000032,None,,,,,,,,,,,,,8,3,0,1,2025-06-12_14h34.12.097,rtmindeye,2024.2.4,60.00279612714228,2025-06-12 14h34.22.260633 -0400,
all_stimuli/special515/special_67742.jpg,63,0,63,63,0,,,,0,0,1,3,1,"[9, 21, 31, 45, 56, 68, 69]",2,0,1.3618699999933597,0.33676310000009835,None,None,None,,,,,,,,,,,1,0,1,0,0,63,63,63,667.4985903000052,,,,,,,,,,,,,,,,,,,,,,667.4818306000088,667.4818739000184,667.4900920999935,667.4985903000052,667.4985903000052,667.4985903000052,667.4985903000052,670.4983483999968,670.4983483999968,671.4815357000043,2,0,1.3618699999933597,0.33676310000009835,None,671.481600500003,671.4816217000189,None,671.4816458999994,671.4816630000132,None,671.4983180999989,671.4983180999989,,,,,,,,,,,8,3,0,1,2025-06-12_14h34.12.097,rtmindeye,2024.2.4,60.00279612714228,2025-06-12 14h34.22.260633 -0400,
all_stimuli/MST_pairs1/pair_48_w_runway2.jpg,64,0,64,64,0,,,,0,0,1,3,1,"[9, 21, 31, 45, 56, 68, 69]",2,0,0.6908969999931287,0.3412102999864146,None,None,None,,,,,,,,,,,1,0,1,0,0,64,64,64,671.4983180999989,,,,,,,,,,,,,,,,,,,,,,671.4818115000089,671.4818538000109,671.4894668000052,671.4983180999989,671.4983180999989,671.4983180999989,671.4983180999989,674.4980113000202,674.4980113000202,675.4817792999966,2,0,0.6908969999931287,0.3412102999864146,None,675.4818437999929,675.4818652000104,None,675.4818892000185,675.4819065000047,None,675.4982526999956,675.4982526999956,,,,,,,,,,,8,3,0,1,2025-06-12_14h34.12.097,rtmindeye,2024.2.4,60.00279612714228,2025-06-12 14h34.22.260633 -0400,
all_stimuli/MST_pairs1/pair_40_w_escalator1.jpg,65,0,65,65,0,,,,0,0,1,3,1,"[9, 21, 31, 45, 56, 68, 69]",2,0,1.4571192000003066,0.3320626000058837,None,None,None,,,,,,,,,,,1,0,1,0,0,65,65,65,675.4982526999956,,,,,,,,,,,,,,,,,,,,,,675.4820642000122,675.4821038999944,675.4890584000095,675.4982526999956,675.4982526999956,675.4982526999956,675.4982526999956,678.4982197000063,678.4982197000063,679.4815620000008,2,0,1.4571192000003066,0.3320626000058837,None,679.4816269000003,679.4816477000131,None,679.4816715000197,679.4816883000021,None,679.4983636999968,679.4983636999968,,,,,,,,,,,8,3,0,1,2025-06-12_14h34.12.097,rtmindeye,2024.2.4,60.00279612714228,2025-06-12 14h34.22.260633 -0400,
all_stimuli/special515/special_62228.jpg,66,0,66,66,0,,,,1,0,1,3,1,"[9, 21, 31, 45, 56, 68, 69]",2,1,0.9550180000078399,0.33699440001510084,None,None,None,,,,,,,,,,,1,0,1,0,0,66,66,66,679.4983636999968,,,,,,,,,,,,,,,,,,,,,,679.4818337000033,679.4818721000047,679.4906169000024,679.4983636999968,679.4983636999968,679.4983636999968,679.4983636999968,682.4980259000149,682.4980259000149,683.4816354000068,2,1,0.9550180000078399,0.33699440001510084,None,683.4816992999986,683.4817198000092,None,683.4817426000081,683.4817594000197,None,683.4999722999928,683.4999722999928,,,,,,,,,,,8,3,0,1,2025-06-12_14h34.12.097,rtmindeye,2024.2.4,60.00279612714228,2025-06-12 14h34.22.260633 -0400,
