current_image,trial_index,is_blank_trial,thisN,thisTrialN,thisRepN,press_if_repeat_2.keys,press_if_repeat_2.corr,all_keys_pressed_2.keys,is_repeat,is_new_run,run_num,sess_num,is_not_last_trial,all_blanks_list,press_if_repeat.keys,press_if_repeat.corr,press_if_repeat.rt,press_if_repeat.duration,all_keys_pressed.keys,key_resp_5.keys,key_resp_4.keys,key_resp_5.rt,key_resp_5.duration,key_resp_4.rt,key_resp_4.duration,all_keys_pressed.rt,all_keys_pressed.duration,practice.thisRepN,practice.thisTrialN,practice.thisN,practice.thisIndex,loop_runs.thisRepN,loop_runs.thisTrialN,loop_runs.thisN,loop_runs.thisIndex,loop_all_images.thisRepN,loop_all_images.thisTrialN,loop_all_images.thisN,loop_all_images.thisIndex,thisRow.t,notes,set_up.started,set_up.stopped,practice_continue.started,practice_continue.stopped,key_resp_6.keys,practice_trial.started,practice_trial.stopped,practice.press_if_repeat_2.keys,practice.press_if_repeat_2.corr,practice.all_keys_pressed_2.keys,testing_continue.started,testing_continue.stopped,key_resp_7.keys,waiting_fmri.started,key_resp_2.started,text_3.started,waiting_fmri.stopped,key_resp_2.keys,key_resp_2.rt,key_resp_2.duration,set_skips_and_correct_key.started,set_skips_and_correct_key.stopped,trial.started,image.started,press_if_repeat.started,polygon.started,all_keys_pressed.started,image.stopped,press_if_repeat.stopped,trial.stopped,loop_all_images.press_if_repeat.keys,loop_all_images.press_if_repeat.corr,loop_all_images.press_if_repeat.rt,loop_all_images.press_if_repeat.duration,loop_all_images.all_keys_pressed.keys,run_wait2_2.started,run_wait2_2.stopped,loop_all_images.key_resp_5.keys,waiting_fmri_2.started,waiting_fmri_2.stopped,loop_all_images.key_resp_4.keys,key_resp_5.started,text_5.started,loop_all_images.key_resp_5.rt,loop_all_images.key_resp_5.duration,key_resp_4.started,text_4.started,loop_all_images.key_resp_4.rt,loop_all_images.key_resp_4.duration,loop_all_images.all_keys_pressed.rt,loop_all_images.all_keys_pressed.duration,participant,session (1 2 or 3),starting_run,skip_practice,date,expName,psychopyVersion,frameRate,expStart
,,,,,,,,,,,,,,,,,,,,,,,,,,,,,,,,,,,,,,,,,,0.002634334,0.002706084,,,,,,,,,,,,,,,,,,,,,,,,,,,,,,,,,,,,,,,,,,,,,,,,,,2,6,0,1,2025-01-28_13h21.14.475,rtmindeye,2024.2.3,None,2025-01-28 13h21.25.559797 -0500
,,,,,,,,,,,,,,,,,,,,,,,,,,,,,,,,,,,,,,,,,,,,0.006730459,0.006748084,None,,,,,,,,,,,,,,,,,,,,,,,,,,,,,,,,,,,,,,,,,,,,,,,2,6,0,1,2025-01-28_13h21.14.475,rtmindeye,2024.2.3,None,2025-01-28 13h21.25.559797 -0500
practice_images/w_kitchen2.jpg,0,0,0,0,0,None,0,None,,,,,,,,,,,,,,,,,,,,0,0,0,0,,,,,,,,,0.3419685839980957,,,,,,,0.053891749994363636,0.053923834,None,0,None,,,,,,,,,,,,,,,,,,,,,,,,,,,,,,,,,,,,,,,,,,2,6,0,1,2025-01-28_13h21.14.475,rtmindeye,2024.2.3,None,2025-01-28 13h21.25.559797 -0500
practice_images/w_boardwalk2.jpg,1,0,1,1,0,None,0,None,,,,,,,,,,,,,,,,,,,,0,1,1,1,,,,,,,,,0.3419685839980957,,,,,,,0.08496625,0.084993375,None,0,None,,,,,,,,,,,,,,,,,,,,,,,,,,,,,,,,,,,,,,,,,,2,6,0,1,2025-01-28_13h21.14.475,rtmindeye,2024.2.3,None,2025-01-28 13h21.25.559797 -0500
practice_images/w_monument2.jpg,2,0,2,2,0,None,0,None,,,,,,,,,,,,,,,,,,,,0,2,2,2,,,,,,,,,0.3419685839980957,,,,,,,0.10281266699894331,0.10284020899416646,None,0,None,,,,,,,,,,,,,,,,,,,,,,,,,,,,,,,,,,,,,,,,,,2,6,0,1,2025-01-28_13h21.14.475,rtmindeye,2024.2.3,None,2025-01-28 13h21.25.559797 -0500
practice_images/w_auditorium2.jpg,3,0,3,3,0,None,0,None,,,,,,,,,,,,,,,,,,,,0,3,3,3,,,,,,,,,0.3419685839980957,,,,,,,0.13431670899444725,0.1343527919962071,None,0,None,,,,,,,,,,,,,,,,,,,,,,,,,,,,,,,,,,,,,,,,,,2,6,0,1,2025-01-28_13h21.14.475,rtmindeye,2024.2.3,None,2025-01-28 13h21.25.559797 -0500
practice_images/w_kitchen2.jpg,4,0,4,4,0,None,0,None,,,,,,,,,,,,,,,,,,,,0,4,4,4,,,,,,,,,0.3419685839980957,,,,,,,0.15201825,0.15205616699677194,None,0,None,,,,,,,,,,,,,,,,,,,,,,,,,,,,,,,,,,,,,,,,,,2,6,0,1,2025-01-28_13h21.14.475,rtmindeye,2024.2.3,None,2025-01-28 13h21.25.559797 -0500
practice_images/w_auditorium1.jpg,5,0,5,5,0,None,0,None,,,,,,,,,,,,,,,,,,,,0,5,5,5,,,,,,,,,0.3419685839980957,,,,,,,0.1811108339970815,0.18115429199679056,None,0,None,,,,,,,,,,,,,,,,,,,,,,,,,,,,,,,,,,,,,,,,,,2,6,0,1,2025-01-28_13h21.14.475,rtmindeye,2024.2.3,None,2025-01-28 13h21.25.559797 -0500
practice_images/w_bedroom2.jpg,6,0,6,6,0,None,0,None,,,,,,,,,,,,,,,,,,,,0,6,6,6,,,,,,,,,0.3419685839980957,,,,,,,0.2082427919958718,0.20829258400044637,None,0,None,,,,,,,,,,,,,,,,,,,,,,,,,,,,,,,,,,,,,,,,,,2,6,0,1,2025-01-28_13h21.14.475,rtmindeye,2024.2.3,None,2025-01-28 13h21.25.559797 -0500
practice_images/w_kitchen1.jpg,7,0,7,7,0,None,0,None,,,,,,,,,,,,,,,,,,,,0,7,7,7,,,,,,,,,0.3419685839980957,,,,,,,0.24652341699402314,0.24661662499420345,None,0,None,,,,,,,,,,,,,,,,,,,,,,,,,,,,,,,,,,,,,,,,,,2,6,0,1,2025-01-28_13h21.14.475,rtmindeye,2024.2.3,None,2025-01-28 13h21.25.559797 -0500
practice_images/w_bedroom1.jpg,8,0,8,8,0,None,0,None,,,,,,,,,,,,,,,,,,,,0,8,8,8,,,,,,,,,0.3419685839980957,,,,,,,0.2949551249985234,0.2950463339948328,None,0,None,,,,,,,,,,,,,,,,,,,,,,,,,,,,,,,,,,,,,,,,,,2,6,0,1,2025-01-28_13h21.14.475,rtmindeye,2024.2.3,None,2025-01-28 13h21.25.559797 -0500
practice_images/w_monument2.jpg,9,0,9,9,0,None,0,None,,,,,,,,,,,,,,,,,,,,0,9,9,9,,,,,,,,,0.3419685839980957,,,,,,,0.3199277089952375,0.3200478340004338,None,0,None,,,,,,,,,,,,,,,,,,,,,,,,,,,,,,,,,,,,,,,,,,2,6,0,1,2025-01-28_13h21.14.475,rtmindeye,2024.2.3,None,2025-01-28 13h21.25.559797 -0500
,,,,,,,,,,,,,,,,,,,,,,,,,,,,,,,,,,,,,,,,,,,,,,,,,,,,0.3360757089976687,0.33611262499471195,None,,,,,,,,,,,,,,,,,,,,,,,,,,,,,,,,,,,,,,,2,6,0,1,2025-01-28_13h21.14.475,rtmindeye,2024.2.3,None,2025-01-28 13h21.25.559797 -0500
,,,,,,,,,,,,,,,,,,,,,,,,,,,,,,,,,,,,,,,,,,,,,,,,,,,,,,,0.3361437499988824,0.3419685839980957,0.3419685839980957,103.68796812499932,equal,103.21333270800096,None,,,,,,,,,,,,,,,,,,,,,,,,,,,,,,,,2,6,0,1,2025-01-28_13h21.14.475,rtmindeye,2024.2.3,None,2025-01-28 13h21.25.559797 -0500
all_stimuli/special515/special_13613.jpg,0,0,0,0,0,,,,0,0,0,6,1,"[9, 21, 31, 45, 56, 68, 69]",1,1,0.746881041,0.27410375000181375,None,None,None,,,,,,,,,,,0,0,0,0,0,0,0,0,103.89031779200013,,,,,,,,,,,,,,,,,,,,,,103.79701229199418,103.79708429199673,103.87088954199862,103.89031779200013,103.89031779200013,103.89031779200013,103.89031779200013,106.8874968339951,106.8874968339951,107.79924345899781,1,1,0.746881041,0.27410375000181375,None,107.79945649999718,107.79952049999702,None,107.79961833400012,107.7996747090001,None,,,,,,,,,,,2,6,0,1,2025-01-28_13h21.14.475,rtmindeye,2024.2.3,None,2025-01-28 13h21.25.559797 -0500
all_stimuli/shared1000_notspecial/notspecial_31049.png,1,0,1,1,0,,,,0,0,0,6,1,"[9, 21, 31, 45, 56, 68, 69]",1,1,0.5496687089980696,0.30298758299613837,None,None,None,,,,,,,,,,,0,0,0,0,0,1,1,1,107.93455829199956,,,,,,,,,,,,,,,,,,,,,,107.80010270899947,107.80025524999655,107.93017374999908,107.93455829199956,107.93455829199956,107.93455829199956,107.93455829199956,110.9323279589953,110.9323279589953,111.80297512499965,1,1,0.5496687089980696,0.30298758299613837,None,111.80316049999965,111.80321008399915,None,111.8032588749993,111.80329745899508,None,,,,,,,,,,,2,6,0,1,2025-01-28_13h21.14.475,rtmindeye,2024.2.3,None,2025-01-28 13h21.25.559797 -0500
all_stimuli/special515/special_28096.jpg,2,0,2,2,0,,,,0,0,0,6,1,"[9, 21, 31, 45, 56, 68, 69]",1,1,1.0244058329990366,0.24598854200303322,None,None,None,,,,,,,,,,,0,0,0,0,0,2,2,2,111.89080516700051,,,,,,,,,,,,,,,,,,,,,,111.80366133399366,111.80380633399909,111.88664320899989,111.89080516700051,111.89080516700051,111.89080516700051,111.89080516700051,114.88599458399403,114.88599458399403,115.8159497089946,1,1,1.0244058329990366,0.24598854200303322,None,115.81626979199791,115.81635587499477,None,115.81649687499885,115.81657245899987,None,,,,,,,,,,,2,6,0,1,2025-01-28_13h21.14.475,rtmindeye,2024.2.3,None,2025-01-28 13h21.25.559797 -0500
all_stimuli/shared1000_notspecial/notspecial_68471.png,3,0,3,3,0,,,,0,0,0,6,1,"[9, 21, 31, 45, 56, 68, 69]",1,1,1.2348717079948983,0.19799591700575547,None,None,None,,,,,,,,,,,0,0,0,0,0,3,3,3,115.90625087499939,,,,,,,,,,,,,,,,,,,,,,115.8171495419956,115.8173514999944,115.90131958399434,115.90625087499939,115.90625087499939,115.90625087499939,115.90625087499939,118.90298033399449,118.90298033399449,119.8203088339942,1,1,1.2348717079948983,0.19799591700575547,None,119.82049458399706,119.82054849999986,None,119.8206065419945,119.8206500419983,None,,,,,,,,,,,2,6,0,1,2025-01-28_13h21.14.475,rtmindeye,2024.2.3,None,2025-01-28 13h21.25.559797 -0500
all_stimuli/special515/special_15506.jpg,4,0,4,4,0,,,,0,0,0,6,1,"[9, 21, 31, 45, 56, 68, 69]",1,1,0.9173096250015078,0.19404424999811454,None,None,None,,,,,,,,,,,0,0,0,0,0,4,4,4,119.88491212499503,,,,,,,,,,,,,,,,,,,,,,119.82108066699584,119.82126574999711,119.88147862500045,119.88491212499503,119.88491212499503,119.88491212499503,119.88491212499503,122.88232849999622,122.88232849999622,123.83263233400066,1,1,0.9173096250015078,0.19404424999811454,None,123.83292433399765,123.83300912499544,None,123.83315504199709,123.83322895899619,None,,,,,,,,,,,2,6,0,1,2025-01-28_13h21.14.475,rtmindeye,2024.2.3,None,2025-01-28 13h21.25.559797 -0500
all_stimuli/MST_pairs1/pair_24_nsd_158_1_cocoid_2285.png,5,0,5,5,0,,,,0,0,0,6,1,"[9, 21, 31, 45, 56, 68, 69]",1,1,0.9397268340035225,0.2219877909956267,None,None,None,,,,,,,,,,,0,0,0,0,0,5,5,5,123.90055374999793,,,,,,,,,,,,,,,,,,,,,,123.83384349999687,123.83408995899663,123.89731995899638,123.90055374999793,123.90055374999793,123.90055374999793,123.90055374999793,126.89902416699624,126.89902416699624,127.83669462499529,1,1,0.9397268340035225,0.2219877909956267,None,127.83687962499971,127.83693229199707,None,127.83698583399382,127.83702441700007,None,,,,,,,,,,,2,6,0,1,2025-01-28_13h21.14.475,rtmindeye,2024.2.3,None,2025-01-28 13h21.25.559797 -0500
all_stimuli/MST_pairs1/pair_10_14_89.png,6,0,6,6,0,,,,0,0,0,6,1,"[9, 21, 31, 45, 56, 68, 69]",1,1,1.0058191249991069,0.1900490829939372,None,None,None,,,,,,,,,,,0,0,0,0,0,6,6,6,127.89438216699637,,,,,,,,,,,,,,,,,,,,,,127.83746533399972,127.8376623,127.89082383399364,127.89438216699637,127.89438216699637,127.89438216699637,127.89438216699637,130.88735520900082,130.88735520900082,131.84973049999826,1,1,1.0058191249991069,0.1900490829939372,None,131.85002641699975,131.85010629199678,None,131.85019087499677,131.8502714999995,None,,,,,,,,,,,2,6,0,1,2025-01-28_13h21.14.475,rtmindeye,2024.2.3,None,2025-01-28 13h21.25.559797 -0500
all_stimuli/special515/special_62015.jpg,7,0,7,7,0,,,,0,0,0,6,1,"[9, 21, 31, 45, 56, 68, 69]",1,1,1.1245064579998143,0.16296420900471276,None,None,None,,,,,,,,,,,0,0,0,0,0,7,7,7,131.9178065419983,,,,,,,,,,,,,,,,,,,,,,131.85089895899728,131.8511359999975,131.9145512499963,131.9178065419983,131.9178065419983,131.9178065419983,131.9178065419983,134.91595562499424,134.91595562499424,135.8538795419954,1,1,1.1245064579998143,0.16296420900471276,None,135.8540801249983,135.85413166699436,None,135.85418783399655,135.8542272919949,None,,,,,,,,,,,2,6,0,1,2025-01-28_13h21.14.475,rtmindeye,2024.2.3,None,2025-01-28 13h21.25.559797 -0500
all_stimuli/special515/special_47687.jpg,8,0,8,8,0,,,,0,0,0,6,1,"[9, 21, 31, 45, 56, 68, 69]",1,1,1.1322915830023703,0.19902512499538716,None,None,None,,,,,,,,,,,0,0,0,0,0,8,8,8,135.95091745899845,,,,,,,,,,,,,,,,,,,,,,135.8546860839997,135.85490220899374,135.94717495899386,135.95091745899845,135.95091745899845,135.95091745899845,135.95091745899845,138.94914654199965,138.94914654199965,139.8659907,1,1,1.1322915830023703,0.19902512499538716,None,139.86621629199362,139.86627070899704,None,139.86634108399448,139.86644683399936,None,,,,,,,,,,,2,6,0,1,2025-01-28_13h21.14.475,rtmindeye,2024.2.3,None,2025-01-28 13h21.25.559797 -0500
blank.jpg,9,1,9,9,0,,,,0,0,0,6,1,"[9, 21, 31, 45, 56, 68, 69]",None,0,,,None,None,None,,,,,,,,,,,0,0,0,0,0,9,9,9,139.90991045899864,,,,,,,,,,,,,,,,,,,,,,139.86692816700088,139.8670914999966,139.90501216700068,139.90991045899864,139.90991045899864,139.90991045899864,139.90991045899864,142.90345570899808,142.90345570899808,143.86951374999626,None,0,,,None,143.86968145900028,143.8697328749986,None,143.8697856669969,143.86983612499898,None,,,,,,,,,,,2,6,0,1,2025-01-28_13h21.14.475,rtmindeye,2024.2.3,None,2025-01-28 13h21.25.559797 -0500
all_stimuli/special515/special_4249.jpg,10,0,10,10,0,,,,0,0,0,6,1,"[9, 21, 31, 45, 56, 68, 69]",1,1,1.089649458997883,0.19394379099685466,None,None,None,,,,,,,,,,,0,0,0,0,0,10,10,10,143.93364841699804,,,,,,,,,,,,,,,,,,,,,,143.8702562499966,143.8704302499973,143.93034279199492,143.93364841699804,143.93364841699804,143.93364841699804,143.93364841699804,146.93228349999845,146.93228349999845,147.88296199999604,1,1,1.089649458997883,0.19394379099685466,None,147.88321308399463,147.8832809999949,None,147.88334295899404,147.8833840419975,None,,,,,,,,,,,2,6,0,1,2025-01-28_13h21.14.475,rtmindeye,2024.2.3,None,2025-01-28 13h21.25.559797 -0500
all_stimuli/special515/special_54361.jpg,11,0,11,11,0,,,,0,0,0,6,1,"[9, 21, 31, 45, 56, 68, 69]",1,1,1.9871062080055708,0.21102895899821306,None,None,None,,,,,,,,,,,0,0,0,0,0,11,11,11,147.9510665419948,,,,,,,,,,,,,,,,,,,,,,147.88382333399932,147.8840764589986,147.94639116699545,147.9510665419948,147.9510665419948,147.9510665419948,147.9510665419948,150.94910020899988,150.94910020899988,151.88699204199656,1,1,1.9871062080055708,0.21102895899821306,None,151.8871711669999,151.88721766699746,None,151.88726704199507,151.88730629199563,None,,,,,,,,,,,2,6,0,1,2025-01-28_13h21.14.475,rtmindeye,2024.2.3,None,2025-01-28 13h21.25.559797 -0500
all_stimuli/special515/special_6489.jpg,12,0,12,12,0,,,,0,0,0,6,1,"[9, 21, 31, 45, 56, 68, 69]",1,1,1.315950709002209,0.24005266599851893,None,None,None,,,,,,,,,,,0,0,0,0,0,12,12,12,151.97028833399963,,,,,,,,,,,,,,,,,,,,,,151.88772637499642,151.88791449999553,151.9661417499956,151.97028833399963,151.97028833399963,151.97028833399963,151.97028833399963,154.9663531249971,154.9663531249971,155.89945637499477,1,1,1.315950709002209,0.24005266599851893,None,155.89972049999778,155.89979033399868,None,155.89986570899782,155.9000018749939,None,,,,,,,,,,,2,6,0,1,2025-01-28_13h21.14.475,rtmindeye,2024.2.3,None,2025-01-28 13h21.25.559797 -0500
all_stimuli/special515/special_38641.jpg,13,0,13,13,0,,,,0,0,0,6,1,"[9, 21, 31, 45, 56, 68, 69]",1,1,1.3507113329978893,0.2060500840016175,None,None,None,,,,,,,,,,,0,0,0,0,0,13,13,13,155.97051437499613,,,,,,,,,,,,,,,,,,,,,,155.90063704199565,155.90141620899522,155.9656598340007,155.97051437499613,155.97051437499613,155.97051437499613,155.97051437499613,158.96569295899826,158.96569295899826,159.90345795900066,1,1,1.3507113329978893,0.2060500840016175,None,159.90361024999584,159.90366562499548,None,159.90371683400008,159.9037521249993,None,,,,,,,,,,,2,6,0,1,2025-01-28_13h21.14.475,rtmindeye,2024.2.3,None,2025-01-28 13h21.25.559797 -0500
all_stimuli/shared1000_notspecial/notspecial_67168.png,14,0,14,14,0,,,,0,0,0,6,1,"[9, 21, 31, 45, 56, 68, 69]",1,1,1.7986743750007008,0.21194187500077533,None,None,None,,,,,,,,,,,0,0,0,0,0,14,14,14,159.9955667089962,,,,,,,,,,,,,,,,,,,,,,159.90411941699858,159.9042670419949,159.99088225000014,159.9955667089962,159.9955667089962,159.9955667089962,159.9955667089962,162.98604191699997,162.98604191699997,163.91583779199573,1,1,1.7986743750007008,0.21194187500077533,None,163.9160722089946,163.91613562499697,None,163.9161978,163.91624979199696,None,,,,,,,,,,,2,6,0,1,2025-01-28_13h21.14.475,rtmindeye,2024.2.3,None,2025-01-28 13h21.25.559797 -0500
all_stimuli/shared1000_notspecial/notspecial_59079.png,15,0,15,15,0,,,,0,0,0,6,1,"[9, 21, 31, 45, 56, 68, 69]",1,1,1.431629624996276,0.21498916699783877,None,None,None,,,,,,,,,,,0,0,0,0,0,15,15,15,163.99268179199862,,,,,,,,,,,,,,,,,,,,,,163.9167493749992,163.91691795899533,163.98886204199516,163.99268179199862,163.99268179199862,163.99268179199862,163.99268179199862,166.9860285839968,166.9860285839968,167.92004508399987,1,1,1.431629624996276,0.21498916699783877,None,167.92028733399638,167.92035999999644,None,167.92043320899393,167.9204986669938,None,,,,,,,,,,,2,6,0,1,2025-01-28_13h21.14.475,rtmindeye,2024.2.3,None,2025-01-28 13h21.25.559797 -0500
all_stimuli/MST_pairs1/pair_2_4_89.png,16,0,16,16,0,,,,0,0,0,6,1,"[9, 21, 31, 45, 56, 68, 69]",1,1,1.479950375003682,0.2160404589958489,None,None,None,,,,,,,,,,,0,0,0,0,0,16,16,16,167.9953600000008,,,,,,,,,,,,,,,,,,,,,,167.92119412499596,167.92147824999847,167.99231954199786,167.9953600000008,167.9953600000008,167.9953600000008,167.9953600000008,170.9992867089968,170.9992867089968,171.9326270839956,1,1,1.479950375003682,0.2160404589958489,None,171.93284795899672,171.93290574999992,None,171.93297374999383,171.93304187499598,None,,,,,,,,,,,2,6,0,1,2025-01-28_13h21.14.475,rtmindeye,2024.2.3,None,2025-01-28 13h21.25.559797 -0500
all_stimuli/shared1000_notspecial/notspecial_26127.png,17,0,17,17,0,,,,0,0,0,6,1,"[9, 21, 31, 45, 56, 68, 69]",1,1,1.7872550419997424,0.17901779200474266,None,None,None,,,,,,,,,,,0,0,0,0,0,17,17,17,172.01508245899458,,,,,,,,,,,,,,,,,,,,,,171.93353399999614,171.93369658399752,172.0118048749937,172.01508245899458,172.01508245899458,172.01508245899458,172.01508245899458,175.00259533399367,175.00259533399367,175.93616412499978,1,1,1.7872550419997424,0.17901779200474266,None,175.93638074999762,175.93643874999543,None,175.93650449999404,175.93654779200006,None,,,,,,,,,,,2,6,0,1,2025-01-28_13h21.14.475,rtmindeye,2024.2.3,None,2025-01-28 13h21.25.559797 -0500
all_stimuli/shared1000_notspecial/notspecial_20223.png,18,0,18,18,0,,,,0,0,0,6,1,"[9, 21, 31, 45, 56, 68, 69]",1,1,2.8458680830008234,None,None,None,None,,,,,,,,,,,0,0,0,0,0,18,18,18,176.0044132,,,,,,,,,,,,,,,,,,,,,,175.93702949999715,175.93728062499576,176.00072570899647,176.0044132,176.0044132,176.0044132,176.0044132,178.99913054199715,178.99913054199715,179.93766266699822,1,1,2.8458680830008234,None,None,179.93781579200004,179.93785795899748,None,179.9379032500001,179.9379342,None,,,,,,,,,,,2,6,0,1,2025-01-28_13h21.14.475,rtmindeye,2024.2.3,None,2025-01-28 13h21.25.559797 -0500
all_stimuli/special515/special_62015.jpg,19,0,19,19,0,,,,1,0,0,6,1,"[9, 21, 31, 45, 56, 68, 69]",2,1,1.3966618339982233,0.3269430829968769,None,None,None,,,,,,,,,,,0,0,0,0,0,19,19,19,179.9936658749939,,,,,,,,,,,,,,,,,,,,,,179.93830841699673,179.93844649999664,179.98885958399478,179.9936658749939,179.9936658749939,179.9936658749939,179.9936658749939,182.98637479199533,182.98637479199533,183.94943508399592,2,1,1.3966618339982233,0.3269430829968769,None,183.94970587499847,183.94978354199702,None,183.94986666699697,183.9499677499989,None,,,,,,,,,,,2,6,0,1,2025-01-28_13h21.14.475,rtmindeye,2024.2.3,None,2025-01-28 13h21.25.559797 -0500
all_stimuli/special515/special_10244.jpg,20,0,20,20,0,,,,0,0,0,6,1,"[9, 21, 31, 45, 56, 68, 69]",1,1,0.9840700420027133,0.16999420799402287,None,None,None,,,,,,,,,,,0,0,0,0,0,20,20,20,184.01726404199871,,,,,,,,,,,,,,,,,,,,,,183.95056179200037,183.95076158399752,184.01386274999822,184.01726404199871,184.01726404199871,184.01726404199871,184.01726404199871,187.0158210419977,187.0158210419977,187.9530738339963,1,1,0.9840700420027133,0.16999420799402287,None,187.9532537499981,187.95330520899734,None,187.9533652,187.95339708399842,None,,,,,,,,,,,2,6,0,1,2025-01-28_13h21.14.475,rtmindeye,2024.2.3,None,2025-01-28 13h21.25.559797 -0500
blank.jpg,21,1,21,21,0,,,,0,0,0,6,1,"[9, 21, 31, 45, 56, 68, 69]",None,0,,,None,None,None,,,,,,,,,,,0,0,0,0,0,21,21,21,188.00123995899776,,,,,,,,,,,,,,,,,,,,,,187.9537857089963,187.95392691699817,187.9962631669987,188.00123995899776,188.00123995899776,188.00123995899776,188.00123995899776,190.9991445839987,190.9991445839987,191.96640749999642,None,0,,,None,191.96666370899766,191.96671595899534,None,191.96676929199748,191.96681720899505,None,,,,,,,,,,,2,6,0,1,2025-01-28_13h21.14.475,rtmindeye,2024.2.3,None,2025-01-28 13h21.25.559797 -0500
all_stimuli/special515/special_28524.jpg,22,0,22,22,0,,,,0,0,0,6,1,"[9, 21, 31, 45, 56, 68, 69]",1,1,0.8569312500039814,0.19397183299588505,None,None,None,,,,,,,,,,,0,0,0,0,0,22,22,22,192.01635208399966,,,,,,,,,,,,,,,,,,,,,,191.96726754200063,191.9674935419971,192.01166074999492,192.01635208399966,192.01635208399966,192.01635208399966,192.01635208399966,195.00286045899702,195.00286045899702,195.9687363339981,1,1,0.8569312500039814,0.19397183299588505,None,195.96885908399418,195.96890433399676,None,195.96895087499433,195.96899129200028,None,,,,,,,,,,,2,6,0,1,2025-01-28_13h21.14.475,rtmindeye,2024.2.3,None,2025-01-28 13h21.25.559797 -0500
all_stimuli/special515/special_30430.jpg,23,0,23,23,0,,,,0,0,0,6,1,"[9, 21, 31, 45, 56, 68, 69]",1,1,1.3133240419992944,0.2219900830023107,None,None,None,,,,,,,,,,,0,0,0,0,0,23,23,23,196.01799108399427,,,,,,,,,,,,,,,,,,,,,,195.96931366699573,195.9694027919977,196.01422283399734,196.01799108399427,196.01799108399427,196.01799108399427,196.01799108399427,199.01595712499693,199.01595712499693,199.97007883399783,1,1,1.3133240419992944,0.2219900830023107,None,199.97024712499842,199.970295,None,199.97034224999516,199.97038708399486,None,,,,,,,,,,,2,6,0,1,2025-01-28_13h21.14.475,rtmindeye,2024.2.3,None,2025-01-28 13h21.25.559797 -0500
all_stimuli/MST_pairs1/pair_10_14_33.png,24,0,24,24,0,,,,0,0,0,6,1,"[9, 21, 31, 45, 56, 68, 69]",2,0,2.235478624999814,0.2689630830063834,None,None,None,,,,,,,,,,,0,0,0,0,0,24,24,24,200.04586262499652,,,,,,,,,,,,,,,,,,,,,,199.9708002499974,199.97095837499364,200.04240520899475,200.04586262499652,200.04586262499652,200.04586262499652,200.04586262499652,203.0501962499984,203.0501962499984,203.98294424999767,2,0,2.235478624999814,0.2689630830063834,None,203.9831810839969,203.98326304199873,None,203.98339024999586,203.98344974999782,None,,,,,,,,,,,2,6,0,1,2025-01-28_13h21.14.475,rtmindeye,2024.2.3,None,2025-01-28 13h21.25.559797 -0500
all_stimuli/shared1000_notspecial/notspecial_10907.png,25,0,25,25,0,,,,0,0,0,6,1,"[9, 21, 31, 45, 56, 68, 69]",1,1,1.059442833000503,0.26802241699624574,None,None,None,,,,,,,,,,,0,0,0,0,0,25,25,25,204.0608179589981,,,,,,,,,,,,,,,,,,,,,,203.98398699999962,203.98421162500017,204.05609566699422,204.0608179589981,204.0608179589981,204.0608179589981,204.0608179589981,207.05252458399627,207.05252458399627,207.9866990839946,1,1,1.059442833000503,0.26802241699624574,None,207.9868922089954,207.98694916699606,None,207.98700783399545,207.98705066699767,None,,,,,,,,,,,2,6,0,1,2025-01-28_13h21.14.475,rtmindeye,2024.2.3,None,2025-01-28 13h21.25.559797 -0500
all_stimuli/special515/special_22587.jpg,26,0,26,26,0,,,,0,0,0,6,1,"[9, 21, 31, 45, 56, 68, 69]",1,1,1.3309617500053719,0.19794849999743747,None,None,None,,,,,,,,,,,0,0,0,0,0,26,26,26,208.03738745900046,,,,,,,,,,,,,,,,,,,,,,207.98753549999674,207.98775208399456,208.03347249999933,208.03738745900046,208.03738745900046,208.03738745900046,208.03738745900046,211.04944033399806,211.04944033399806,211.99952645899612,1,1,1.3309617500053719,0.19794849999743747,None,211.99980058399524,211.99988595899777,None,212.00001687499753,212.0001009169937,None,,,,,,,,,,,2,6,0,1,2025-01-28_13h21.14.475,rtmindeye,2024.2.3,None,2025-01-28 13h21.25.559797 -0500
all_stimuli/special515/special_3687.jpg,27,0,27,27,0,,,,0,0,0,6,1,"[9, 21, 31, 45, 56, 68, 69]",1,1,0.9839852079967386,0.19600820800405927,None,None,None,,,,,,,,,,,0,0,0,0,0,27,27,27,212.05131016700034,,,,,,,,,,,,,,,,,,,,,,212.00070433399378,212.00092099999893,212.04704758399748,212.05131016700034,212.05131016700034,212.05131016700034,212.05131016700034,215.0549028749956,215.0549028749956,216.00619933399867,1,1,0.9839852079967386,0.19600820800405927,None,216.00631037499988,216.00634983399505,None,216.00639166699693,216.00642216699634,None,,,,,,,,,,,2,6,0,1,2025-01-28_13h21.14.475,rtmindeye,2024.2.3,None,2025-01-28 13h21.25.559797 -0500
all_stimuli/shared1000_notspecial/notspecial_58164.png,28,0,28,28,0,,,,0,0,0,6,1,"[9, 21, 31, 45, 56, 68, 69]",1,1,1.0026169159973506,0.19092174999968847,None,None,None,,,,,,,,,,,0,0,0,0,0,28,28,28,216.0928214999949,,,,,,,,,,,,,,,,,,,,,,216.0067518750002,216.00685408400022,216.0894664169973,216.0928214999949,216.0928214999949,216.0928214999949,216.0928214999949,219.08573204199638,219.08573204199638,220.01604887499707,1,1,1.0026169159973506,0.19092174999968847,None,220.01627991699934,220.0163353339958,None,220.0163812499959,220.01645870899665,None,,,,,,,,,,,2,6,0,1,2025-01-28_13h21.14.475,rtmindeye,2024.2.3,None,2025-01-28 13h21.25.559797 -0500
all_stimuli/special515/special_38494.jpg,29,0,29,29,0,,,,0,0,0,6,1,"[9, 21, 31, 45, 56, 68, 69]",1,1,1.1734856670009322,0.2090072909995797,None,None,None,,,,,,,,,,,0,0,0,0,0,29,29,29,220.06281520899938,,,,,,,,,,,,,,,,,,,,,,220.0168023,220.0169447,220.05829312499554,220.06281520899938,220.06281520899938,220.06281520899938,220.06281520899938,223.05400912500045,223.05400912500045,224.01932779199706,1,1,1.1734856670009322,0.2090072909995797,None,224.01948312499735,224.01952287499444,None,224.01957408399903,224.0196064999982,None,,,,,,,,,,,2,6,0,1,2025-01-28_13h21.14.475,rtmindeye,2024.2.3,None,2025-01-28 13h21.25.559797 -0500
all_stimuli/MST_pairs1/pair_12_16_22.png,30,0,30,30,0,,,,0,0,0,6,1,"[9, 21, 31, 45, 56, 68, 69]",1,1,1.2840675839979667,0.24396958299621474,None,None,None,,,,,,,,,,,0,0,0,0,0,30,30,30,224.07532858399645,,,,,,,,,,,,,,,,,,,,,,224.01998645899585,224.0201237500005,224.07142966699757,224.07532858399645,224.07532858399645,224.07532858399645,224.07532858399645,227.0693624169944,227.0693624169944,228.03272304200073,1,1,1.2840675839979667,0.24396958299621474,None,228.0328942089982,228.0329625,None,228.0330211249966,228.03306175000034,None,,,,,,,,,,,2,6,0,1,2025-01-28_13h21.14.475,rtmindeye,2024.2.3,None,2025-01-28 13h21.25.559797 -0500
blank.jpg,31,1,31,31,0,,,,0,0,0,6,1,"[9, 21, 31, 45, 56, 68, 69]",None,0,,,None,None,None,,,,,,,,,,,0,0,0,0,0,31,31,31,228.08001624999451,,,,,,,,,,,,,,,,,,,,,,228.03348258399637,228.03366129200003,228.07528033400013,228.08001624999451,228.08001624999451,228.08001624999451,228.08001624999451,231.06940566699632,231.06940566699632,232.03661908399954,None,0,,,None,232.03681691699603,232.03686562499934,None,232.03691641699697,232.03695850000076,None,,,,,,,,,,,2,6,0,1,2025-01-28_13h21.14.475,rtmindeye,2024.2.3,None,2025-01-28 13h21.25.559797 -0500
all_stimuli/special515/special_66489.jpg,32,0,32,32,0,,,,0,0,0,6,1,"[9, 21, 31, 45, 56, 68, 69]",1,1,1.0462924170060433,0.230990958,None,None,None,,,,,,,,,,,0,0,0,0,0,32,32,32,232.11507895899558,,,,,,,,,,,,,,,,,,,,,,232.03737329199794,232.03754962499806,232.1104749169972,232.11507895899558,232.11507895899558,232.11507895899558,232.11507895899558,235.10273904199857,235.10273904199857,236.04930704199796,1,1,1.0462924170060433,0.230990958,None,236.04949558399676,236.0495702919943,None,236.0496348339948,236.04968612499943,None,,,,,,,,,,,2,6,0,1,2025-01-28_13h21.14.475,rtmindeye,2024.2.3,None,2025-01-28 13h21.25.559797 -0500
all_stimuli/MST_pairs1/pair_28_nsd_547_1_cocoid_60932.png,33,0,33,33,0,,,,0,0,0,6,1,"[9, 21, 31, 45, 56, 68, 69]",1,1,0.9639925410010619,0.2239947089983616,None,None,None,,,,,,,,,,,0,0,0,0,0,33,33,33,236.1134393339962,,,,,,,,,,,,,,,,,,,,,,236.05026537499361,236.05047499999637,236.1102022,236.1134393339962,236.1134393339962,236.1134393339962,236.1134393339962,239.1027102089938,239.1027102089938,240.0533503339975,1,1,0.9639925410010619,0.2239947089983616,None,240.05355466699984,240.05361499999708,None,240.0536715,240.05372091699974,None,,,,,,,,,,,2,6,0,1,2025-01-28_13h21.14.475,rtmindeye,2024.2.3,None,2025-01-28 13h21.25.559797 -0500
all_stimuli/shared1000_notspecial/notspecial_46002.png,34,0,34,34,0,,,,0,0,0,6,1,"[9, 21, 31, 45, 56, 68, 69]",1,1,1.1327040830001351,0.1980526249972172,None,None,None,,,,,,,,,,,0,0,0,0,0,34,34,34,240.14067441699444,,,,,,,,,,,,,,,,,,,,,,240.05421499999647,240.05446158399718,240.13643924999633,240.14067441699444,240.14067441699444,240.14067441699444,240.14067441699444,243.1368112919954,243.1368112919954,244.0661237499953,1,1,1.1327040830001351,0.1980526249972172,None,244.06638449999446,244.06646429199463,None,244.06654145899665,244.06661212499603,None,,,,,,,,,,,2,6,0,1,2025-01-28_13h21.14.475,rtmindeye,2024.2.3,None,2025-01-28 13h21.25.559797 -0500
all_stimuli/special515/special_30632.jpg,35,0,35,35,0,,,,0,0,0,6,1,"[9, 21, 31, 45, 56, 68, 69]",1,1,1.1331031660010922,0.19595033399673412,None,None,None,,,,,,,,,,,0,0,0,0,0,35,35,35,244.1183465419963,,,,,,,,,,,,,,,,,,,,,,244.06721916699462,244.06741637499363,244.11436312499427,244.1183465419963,244.1183465419963,244.1183465419963,244.1183465419963,247.11616404199594,247.11616404199594,248.06971933399473,1,1,1.1331031660010922,0.19595033399673412,None,248.0699019169988,248.06996029199945,None,248.07001079199836,248.07004600000073,None,,,,,,,,,,,2,6,0,1,2025-01-28_13h21.14.475,rtmindeye,2024.2.3,None,2025-01-28 13h21.25.559797 -0500
all_stimuli/special515/special_31936.jpg,36,0,36,36,0,,,,0,0,0,6,1,"[9, 21, 31, 45, 56, 68, 69]",1,1,1.798806416001753,0.20103658399602864,None,None,None,,,,,,,,,,,0,0,0,0,0,36,36,36,248.11858216700057,,,,,,,,,,,,,,,,,,,,,,248.07044266699813,248.0706507499999,248.1142253750004,248.11858216700057,248.11858216700057,248.11858216700057,248.11858216700057,251.11581633400056,251.11581633400056,252.0826574169987,1,1,1.798806416001753,0.20103658399602864,None,252.08283062499686,252.08288408399676,None,252.08295341699704,252.0829939999967,None,,,,,,,,,,,2,6,0,1,2025-01-28_13h21.14.475,rtmindeye,2024.2.3,None,2025-01-28 13h21.25.559797 -0500
all_stimuli/MST_pairs1/pair_8_12_56.png,37,0,37,37,0,,,,0,0,0,6,1,"[9, 21, 31, 45, 56, 68, 69]",1,1,1.0915652499970747,0.267084375,None,None,None,,,,,,,,,,,0,0,0,0,0,37,37,37,252.1358449170002,,,,,,,,,,,,,,,,,,,,,,252.0834734999953,252.08364549999533,252.1325068,252.1358449170002,252.1358449170002,252.1358449170002,252.1358449170002,255.1324403749968,255.1324403749968,256.08688566699857,1,1,1.0915652499970747,0.267084375,None,256.08704508399387,256.08709141699364,None,256.08714058400074,256.08717658399837,None,,,,,,,,,,,2,6,0,1,2025-01-28_13h21.14.475,rtmindeye,2024.2.3,None,2025-01-28 13h21.25.559797 -0500
all_stimuli/special515/special_19074.jpg,38,0,38,38,0,,,,0,0,0,6,1,"[9, 21, 31, 45, 56, 68, 69]",1,1,1.2083168329991167,0.2329178750005667,None,None,None,,,,,,,,,,,0,0,0,0,0,38,38,38,256.1371665839979,,,,,,,,,,,,,,,,,,,,,,256.0875597,256.08773195899994,256.13370758399833,256.1371665839979,256.1371665839979,256.1371665839979,256.1371665839979,259.1362788339975,259.1362788339975,260.09982441699685,1,1,1.2083168329991167,0.2329178750005667,None,260.1001365419943,260.10023608399933,None,260.10031587499543,260.1003726249983,None,,,,,,,,,,,2,6,0,1,2025-01-28_13h21.14.475,rtmindeye,2024.2.3,None,2025-01-28 13h21.25.559797 -0500
all_stimuli/shared1000_notspecial/notspecial_42648.png,39,0,39,39,0,,,,0,0,0,6,1,"[9, 21, 31, 45, 56, 68, 69]",1,1,1.1152858340064995,0.1969853329937905,None,None,None,,,,,,,,,,,0,0,0,0,0,39,39,39,260.1900910839977,,,,,,,,,,,,,,,,,,,,,,260.1008268749938,260.1009927089981,260.18501674999425,260.1900910839977,260.1900910839977,260.1900910839977,260.1900910839977,263.18682595899736,263.18682595899736,264.10390987499704,1,1,1.1152858340064995,0.1969853329937905,None,264.1040874169994,264.1041296669937,None,264.1041789999945,264.10421174999647,None,,,,,,,,,,,2,6,0,1,2025-01-28_13h21.14.475,rtmindeye,2024.2.3,None,2025-01-28 13h21.25.559797 -0500
all_stimuli/MST_pairs1/pair_12_16_22.png,40,0,40,40,0,,,,1,0,0,6,1,"[9, 21, 31, 45, 56, 68, 69]",2,1,2.6647540840058355,0.2700179159946856,None,None,None,,,,,,,,,,,0,0,0,0,0,40,40,40,264.17167224999866,,,,,,,,,,,,,,,,,,,,,,264.1046014589956,264.1047527089977,264.1679043339973,264.17167224999866,264.17167224999866,264.17167224999866,264.17167224999866,267.1700242089937,267.1700242089937,268.1161294169942,2,1,2.6647540840058355,0.2700179159946856,None,268.11643745900074,268.1165264999945,None,268.11666354199406,268.11674112499895,None,,,,,,,,,,,2,6,0,1,2025-01-28_13h21.14.475,rtmindeye,2024.2.3,None,2025-01-28 13h21.25.559797 -0500
all_stimuli/shared1000_notspecial/notspecial_3951.png,41,0,41,41,0,,,,0,0,0,6,1,"[9, 21, 31, 45, 56, 68, 69]",1,1,1.8022425410017604,0.22704833400348434,None,None,None,,,,,,,,,,,0,0,0,0,0,41,41,41,268.20219054199697,,,,,,,,,,,,,,,,,,,,,,268.11733383399405,268.1175482920007,268.19838545899984,268.20219054199697,268.20219054199697,268.20219054199697,268.20219054199697,271.2065151,271.2065151,272.1193759589951,1,1,1.8022425410017604,0.22704833400348434,None,272.1195460839954,272.1195928,None,272.1196493749958,272.1196914999964,None,,,,,,,,,,,2,6,0,1,2025-01-28_13h21.14.475,rtmindeye,2024.2.3,None,2025-01-28 13h21.25.559797 -0500
all_stimuli/MST_pairs1/pair_12_16_78.png,42,0,42,42,0,,,,0,0,0,6,1,"[9, 21, 31, 45, 56, 68, 69]",2,0,2.8008934579993365,None,None,None,None,,,,,,,,,,,0,0,0,0,0,42,42,42,272.17760054199607,,,,,,,,,,,,,,,,,,,,,,272.12006599999586,272.12025704199914,272.17427854199923,272.17760054199607,272.17760054199607,272.17760054199607,272.17760054199607,275.1700365419965,275.1700365419965,276.1329633339992,2,0,2.8008934579993365,None,None,276.1332316669941,276.13332349999837,None,276.1334830839987,276.1335569589937,None,,,,,,,,,,,2,6,0,1,2025-01-28_13h21.14.475,rtmindeye,2024.2.3,None,2025-01-28 13h21.25.559797 -0500
all_stimuli/special515/special_11952.jpg,43,0,43,43,0,,,,0,0,0,6,1,"[9, 21, 31, 45, 56, 68, 69]",1,1,1.8482147499962593,0.1799252500059083,None,None,None,,,,,,,,,,,0,0,0,0,0,43,43,43,276.1823192919983,,,,,,,,,,,,,,,,,,,,,,276.134144,276.1343997090007,276.17819479199534,276.1823192919983,276.1823192919983,276.1823192919983,276.1823192919983,279.1704564169995,279.1704564169995,280.1370275839945,1,1,1.8482147499962593,0.1799252500059083,None,280.13717187499424,280.13721475000057,None,280.1372571249958,280.1372889589984,None,,,,,,,,,,,2,6,0,1,2025-01-28_13h21.14.475,rtmindeye,2024.2.3,None,2025-01-28 13h21.25.559797 -0500
all_stimuli/MST_pairs1/pair_14_18_22.png,44,0,44,44,0,,,,0,0,0,6,1,"[9, 21, 31, 45, 56, 68, 69]",1,1,2.4715745840003365,0.1910577500020736,None,None,None,,,,,,,,,,,0,0,0,0,0,44,44,44,280.18887591699604,,,,,,,,,,,,,,,,,,,,,,280.1376171,280.1377520419992,280.1854869999952,280.18887591699604,280.18887591699604,280.18887591699604,280.18887591699604,283.1869407,283.1869407,284.14947233400017,1,1,2.4715745840003365,0.1910577500020736,None,284.1497923749994,284.1498586249945,None,284.14992716699635,284.1499884999939,None,,,,,,,,,,,2,6,0,1,2025-01-28_13h21.14.475,rtmindeye,2024.2.3,None,2025-01-28 13h21.25.559797 -0500
blank.jpg,45,1,45,45,0,,,,0,0,0,6,1,"[9, 21, 31, 45, 56, 68, 69]",None,0,,,None,None,None,,,,,,,,,,,0,0,0,0,0,45,45,45,284.19423854199704,,,,,,,,,,,,,,,,,,,,,,284.1504499169969,284.15060037499643,284.1892922919942,284.19423854199704,284.19423854199704,284.19423854199704,284.19423854199704,287.18643154199526,287.18643154199526,288.15330258399626,None,0,,,None,288.1534962090009,288.15356299999985,None,288.1536151249966,288.15365599999495,None,,,,,,,,,,,2,6,0,1,2025-01-28_13h21.14.475,rtmindeye,2024.2.3,None,2025-01-28 13h21.25.559797 -0500
all_stimuli/MST_pairs1/pair_16_20_56.png,46,0,46,46,0,,,,0,0,0,6,1,"[9, 21, 31, 45, 56, 68, 69]",1,1,1.9111551669993787,0.175084375,None,None,None,,,,,,,,,,,0,0,0,0,0,46,46,46,288.2052579589945,,,,,,,,,,,,,,,,,,,,,,288.15414570899884,288.1543896250005,288.2015837919971,288.2052579589945,288.2052579589945,288.2052579589945,288.2052579589945,291.2036685839994,291.2036685839994,292.1661682,1,1,1.9111551669993787,0.175084375,None,292.16638195899577,292.1665060419982,None,292.16661187499994,292.16669649999676,None,,,,,,,,,,,2,6,0,1,2025-01-28_13h21.14.475,rtmindeye,2024.2.3,None,2025-01-28 13h21.25.559797 -0500
all_stimuli/special515/special_8933.jpg,47,0,47,47,0,,,,0,0,0,6,1,"[9, 21, 31, 45, 56, 68, 69]",1,1,1.8698315829969943,0.1839600840030471,None,None,None,,,,,,,,,,,0,0,0,0,0,47,47,47,292.2156639589957,,,,,,,,,,,,,,,,,,,,,,292.16723624999577,292.16744320900034,292.21213741699466,292.2156639589957,292.2156639589957,292.2156639589957,292.2156639589957,295.20328158399934,295.20328158399934,296.17013962499914,1,1,1.8698315829969943,0.1839600840030471,None,296.1703046249968,296.1703492499946,None,296.17039558399847,296.1704299589983,None,,,,,,,,,,,2,6,0,1,2025-01-28_13h21.14.475,rtmindeye,2024.2.3,None,2025-01-28 13h21.25.559797 -0500
all_stimuli/MST_pairs1/pair_16_20_56.png,48,0,48,48,0,,,,1,0,0,6,1,"[9, 21, 31, 45, 56, 68, 69]",2,1,0.9625108749969513,0.2780090000014752,None,None,None,,,,,,,,,,,0,0,0,0,0,48,48,48,296.2329533339944,,,,,,,,,,,,,,,,,,,,,,296.17079291700065,296.17095712499577,296.2291924589954,296.2329533339944,296.2329533339944,296.2329533339944,296.2329533339944,299.21948591699766,299.21948591699766,300.18361141700007,2,1,0.9625108749969513,0.2780090000014752,None,300.1838268749998,300.1838759999955,None,300.1839351669987,300.1839708749976,None,,,,,,,,,,,2,6,0,1,2025-01-28_13h21.14.475,rtmindeye,2024.2.3,None,2025-01-28 13h21.25.559797 -0500
all_stimuli/special515/special_5034.jpg,49,0,49,49,0,,,,0,0,0,6,1,"[9, 21, 31, 45, 56, 68, 69]",1,1,1.0237082919993554,0.18999308299680706,None,None,None,,,,,,,,,,,0,0,0,0,0,49,49,49,300.23381695900025,,,,,,,,,,,,,,,,,,,,,,300.18435629199666,300.1845313339945,300.2297206669973,300.23381695900025,300.23381695900025,300.23381695900025,300.23381695900025,303.2328369999959,303.2328369999959,304.18677545899845,1,1,1.0237082919993554,0.18999308299680706,None,304.18699787499645,304.18705454199517,None,304.1871097,304.1871478749963,None,,,,,,,,,,,2,6,0,1,2025-01-28_13h21.14.475,rtmindeye,2024.2.3,None,2025-01-28 13h21.25.559797 -0500
all_stimuli/MST_pairs1/pair_16_20_0.png,50,0,50,50,0,,,,0,0,0,6,1,"[9, 21, 31, 45, 56, 68, 69]",2,0,1.1031219579963363,0.298975125,None,None,None,,,,,,,,,,,0,0,0,0,0,50,50,50,304.2424488749966,,,,,,,,,,,,,,,,,,,,,,304.18755604199396,304.18779395899764,304.23868237499846,304.2424488749966,304.2424488749966,304.2424488749966,304.2424488749966,307.2362700839949,307.2362700839949,308.19942516699666,2,0,1.1031219579963363,0.298975125,None,308.1996043,308.1996713749977,None,308.1997273339948,308.1997700419961,None,,,,,,,,,,,2,6,0,1,2025-01-28_13h21.14.475,rtmindeye,2024.2.3,None,2025-01-28 13h21.25.559797 -0500
all_stimuli/MST_pairs1/pair_46_w_pool2.jpg,51,0,51,51,0,,,,0,0,0,6,1,"[9, 21, 31, 45, 56, 68, 69]",1,1,1.3375809999997728,0.1750616249992163,None,None,None,,,,,,,,,,,0,0,0,0,0,51,51,51,308.2429074169995,,,,,,,,,,,,,,,,,,,,,,308.2002406249958,308.20040929199604,308.2394644169981,308.2429074169995,308.2429074169995,308.2429074169995,308.2429074169995,311.2369263750006,311.2369263750006,312.2033229169974,1,1,1.3375809999997728,0.1750616249992163,None,312.2035410419994,312.20359795900004,None,312.20365641699755,312.2036960839978,None,,,,,,,,,,,2,6,0,1,2025-01-28_13h21.14.475,rtmindeye,2024.2.3,None,2025-01-28 13h21.25.559797 -0500
all_stimuli/special515/special_62228.jpg,52,0,52,52,0,,,,0,0,0,6,1,"[9, 21, 31, 45, 56, 68, 69]",1,1,1.6895223749961588,0.1829982910057879,None,None,None,,,,,,,,,,,0,0,0,0,0,52,52,52,312.2509925419945,,,,,,,,,,,,,,,,,,,,,,312.2041794589968,312.20442970899603,312.24763137499394,312.2509925419945,312.2509925419945,312.2509925419945,312.2509925419945,315.24949762499455,315.24949762499455,316.21639395899547,1,1,1.6895223749961588,0.1829982910057879,None,316.2166806669993,316.21681066699966,None,316.21689837499434,316.2169644999958,None,,,,,,,,,,,2,6,0,1,2025-01-28_13h21.14.475,rtmindeye,2024.2.3,None,2025-01-28 13h21.25.559797 -0500
all_stimuli/MST_pairs1/pair_40_w_escalator2.jpg,53,0,53,53,0,,,,0,0,0,6,1,"[9, 21, 31, 45, 56, 68, 69]",1,1,1.4962914999996428,0.20196100000612205,None,None,None,,,,,,,,,,,0,0,0,0,0,53,53,53,316.2681646669953,,,,,,,,,,,,,,,,,,,,,,316.2175838749972,316.2178219169946,316.2630395839951,316.2681646669953,316.2681646669953,316.2681646669953,316.2681646669953,319.2660014590001,319.2660014590001,320.22030337499746,1,1,1.4962914999996428,0.20196100000612205,None,320.2204675419998,320.2205143749961,None,320.2205619,320.2205959999992,None,,,,,,,,,,,2,6,0,1,2025-01-28_13h21.14.475,rtmindeye,2024.2.3,None,2025-01-28 13h21.25.559797 -0500
all_stimuli/MST_pairs1/pair_20_nsd_41_2_cocoid_63715.png,54,0,54,54,0,,,,0,0,0,6,1,"[9, 21, 31, 45, 56, 68, 69]",1,1,1.1554957080006716,0.2120388749972335,None,None,None,,,,,,,,,,,0,0,0,0,0,54,54,54,320.3749911249979,,,,,,,,,,,,,,,,,,,,,,320.22097412499716,320.22114837499976,320.3708418749957,320.3749911249979,320.3749911249979,320.3749911249979,320.3749911249979,323.3699450419954,323.3699450419954,324.23330924999755,1,1,1.1554957080006716,0.2120388749972335,None,324.2335893339987,324.23365816699516,None,324.2337283339948,324.2337810839963,None,,,,,,,,,,,2,6,0,1,2025-01-28_13h21.14.475,rtmindeye,2024.2.3,None,2025-01-28 13h21.25.559797 -0500
all_stimuli/shared1000_notspecial/notspecial_22155.png,55,0,55,55,0,,,,0,0,0,6,1,"[9, 21, 31, 45, 56, 68, 69]",1,1,1.4152955829995335,0.2210402919954504,None,None,None,,,,,,,,,,,0,0,0,0,0,55,55,55,324.3242303339939,,,,,,,,,,,,,,,,,,,,,,324.2343186,324.23460529199656,324.32072704199527,324.3242303339939,324.3242303339939,324.3242303339939,324.3242303339939,327.3198152499972,327.3198152499972,328.23684999999386,1,1,1.4152955829995335,0.2210402919954504,None,328.2370138749975,328.23706420899543,None,328.23711312499654,328.2371488339995,None,,,,,,,,,,,2,6,0,1,2025-01-28_13h21.14.475,rtmindeye,2024.2.3,None,2025-01-28 13h21.25.559797 -0500
blank.jpg,56,1,56,56,0,,,,0,0,0,6,1,"[9, 21, 31, 45, 56, 68, 69]",None,0,,,None,None,None,,,,,,,,,,,0,0,0,0,0,56,56,56,328.31067679199623,,,,,,,,,,,,,,,,,,,,,,328.23756508399674,328.2377364589993,328.3056557089949,328.31067679199623,328.31067679199623,328.31067679199623,328.31067679199623,331.3031425839945,331.3031425839945,332.2502215839995,None,0,,,None,332.2504069589995,332.2504517089983,None,332.25050279199786,332.25054170899966,None,,,,,,,,,,,2,6,0,1,2025-01-28_13h21.14.475,rtmindeye,2024.2.3,None,2025-01-28 13h21.25.559797 -0500
all_stimuli/special515/special_11617.jpg,57,0,57,57,0,,,,0,0,0,6,1,"[9, 21, 31, 45, 56, 68, 69]",1,1,0.8167123750026803,0.20801745799690252,None,None,None,,,,,,,,,,,0,0,0,0,0,57,57,57,332.30185783399793,,,,,,,,,,,,,,,,,,,,,,332.2509272919997,332.25112341699423,332.2986404589974,332.30185783399793,332.30185783399793,332.30185783399793,332.30185783399793,335.29942941699846,335.29942941699846,336.2529065419949,1,1,0.8167123750026803,0.20801745799690252,None,336.2531149589995,336.25318645899824,None,336.2532461249939,336.25328762499703,None,,,,,,,,,,,2,6,0,1,2025-01-28_13h21.14.475,rtmindeye,2024.2.3,None,2025-01-28 13h21.25.559797 -0500
all_stimuli/MST_pairs1/pair_14_18_22.png,58,0,58,58,0,,,,1,0,0,6,1,"[9, 21, 31, 45, 56, 68, 69]",2,1,1.2396151249995455,0.2869897500058869,None,None,None,,,,,,,,,,,0,0,0,0,0,58,58,58,336.30592037499446,,,,,,,,,,,,,,,,,,,,,,336.2537231669994,336.2539283339938,336.30253749999974,336.30592037499446,336.30592037499446,336.30592037499446,336.30592037499446,339.3040057499966,339.3040057499966,340.26666070899955,2,1,1.2396151249995455,0.2869897500058869,None,340.26687629200023,340.26692858399474,None,340.2669824589975,340.2670212919984,None,,,,,,,,,,,2,6,0,1,2025-01-28_13h21.14.475,rtmindeye,2024.2.3,None,2025-01-28 13h21.25.559797 -0500
all_stimuli/shared1000_notspecial/notspecial_63081.png,59,0,59,59,0,,,,0,0,0,6,1,"[9, 21, 31, 45, 56, 68, 69]",1,1,1.3929691250014002,0.21498166699893773,None,None,None,,,,,,,,,,,0,0,0,0,0,59,59,59,340.35955883399583,,,,,,,,,,,,,,,,,,,,,,340.2674523339956,340.2676181669958,340.35543199999665,340.35955883399583,340.35955883399583,340.35955883399583,340.35955883399583,343.3536484169963,343.3536484169963,344.27026970899897,1,1,1.3929691250014002,0.21498166699893773,None,344.27041754200036,344.27045799999905,None,344.2704994999949,344.27053075000003,None,,,,,,,,,,,2,6,0,1,2025-01-28_13h21.14.475,rtmindeye,2024.2.3,None,2025-01-28 13h21.25.559797 -0500
all_stimuli/MST_pairs1/pair_42_w_icerink2.jpg,60,0,60,60,0,,,,0,0,0,6,1,"[9, 21, 31, 45, 56, 68, 69]",1,1,1.1637520419972134,0.1889435830016737,None,None,None,,,,,,,,,,,0,0,0,0,0,60,60,60,344.31383204199665,,,,,,,,,,,,,,,,,,,,,,344.27085358399927,344.2710173749947,344.31015029199625,344.31383204199665,344.31383204199665,344.31383204199665,344.31383204199665,347.30277429199487,347.30277429199487,348.2829826249945,1,1,1.1637520419972134,0.1889435830016737,None,348.28327737499785,348.2833573,None,348.2834789999979,348.2835556249993,None,,,,,,,,,,,2,6,0,1,2025-01-28_13h21.14.475,rtmindeye,2024.2.3,None,2025-01-28 13h21.25.559797 -0500
all_stimuli/MST_pairs1/pair_46_w_pool1.jpg,61,0,61,61,0,,,,0,0,0,6,1,"[9, 21, 31, 45, 56, 68, 69]",1,1,2.1515286669964553,0.19703945799847133,None,None,None,,,,,,,,,,,0,0,0,0,0,61,61,61,348.32797879199643,,,,,,,,,,,,,,,,,,,,,,348.2841361249957,348.2843392499999,348.3228057499946,348.32797879199643,348.32797879199643,348.32797879199643,348.32797879199643,351.32021454200003,351.32021454200003,352.2870590839957,1,1,2.1515286669964553,0.19703945799847133,None,352.28724004199466,352.28729187499994,None,352.28734304200043,352.2873779169968,None,,,,,,,,,,,2,6,0,1,2025-01-28_13h21.14.475,rtmindeye,2024.2.3,None,2025-01-28 13h21.25.559797 -0500
all_stimuli/special515/special_40840.jpg,62,0,62,62,0,,,,0,0,0,6,1,"[9, 21, 31, 45, 56, 68, 69]",1,1,2.017597209000087,0.17604958300216822,None,None,None,,,,,,,,,,,0,0,0,0,0,62,62,62,352.34996724999655,,,,,,,,,,,,,,,,,,,,,,352.2878165,352.2880049999949,352.34587766699406,352.34996724999655,352.34996724999655,352.34996724999655,352.34996724999655,355.33627629200055,355.33627629200055,356.29957883399766,1,1,2.017597209000087,0.17604958300216822,None,356.29979991699656,356.2998796249958,None,356.2999499590005,356.30001916699985,None,,,,,,,,,,,2,6,0,1,2025-01-28_13h21.14.475,rtmindeye,2024.2.3,None,2025-01-28 13h21.25.559797 -0500
all_stimuli/special515/special_29837.jpg,63,0,63,63,0,,,,0,0,0,6,1,"[9, 21, 31, 45, 56, 68, 69]",1,1,1.6831275419972371,0.19701862500369316,None,None,None,,,,,,,,,,,0,0,0,0,0,63,63,63,356.3474778749951,,,,,,,,,,,,,,,,,,,,,,356.3005983339972,356.3008013340004,356.3437242919972,356.3474778749951,356.3474778749951,356.3474778749951,356.3474778749951,359.3366530839994,359.3366530839994,360.3035051249972,1,1,1.6831275419972371,0.19701862500369316,None,360.3036978749951,360.3037424169961,None,360.30378554199706,360.30381733399554,None,,,,,,,,,,,2,6,0,1,2025-01-28_13h21.14.475,rtmindeye,2024.2.3,None,2025-01-28 13h21.25.559797 -0500
all_stimuli/shared1000_notspecial/notspecial_4768.png,64,0,64,64,0,,,,0,0,0,6,1,"[9, 21, 31, 45, 56, 68, 69]",1,1,1.7368894169994746,0.23997879200032912,None,None,None,,,,,,,,,,,0,0,0,0,0,64,64,64,360.41476999999577,,,,,,,,,,,,,,,,,,,,,,360.3041552089999,360.3043044169972,360.4113330420005,360.41476999999577,360.41476999999577,360.41476999999577,360.41476999999577,363.4037666669974,363.4037666669974,364.31628237499535,1,1,1.7368894169994746,0.23997879200032912,None,364.3165344999943,364.3166311669993,None,364.3167606,364.31683987499855,None,,,,,,,,,,,2,6,0,1,2025-01-28_13h21.14.475,rtmindeye,2024.2.3,None,2025-01-28 13h21.25.559797 -0500
all_stimuli/MST_pairs1/pair_20_nsd_41_1_cocoid_15472.png,65,0,65,65,0,,,,0,0,0,6,1,"[9, 21, 31, 45, 56, 68, 69]",1,1,1.107308667000325,0.22101875000225846,None,None,None,,,,,,,,,,,0,0,0,0,0,65,65,65,364.3813201669982,,,,,,,,,,,,,,,,,,,,,,364.31738983399555,364.3175833339992,364.3779664169997,364.3813201669982,364.3813201669982,364.3813201669982,364.3813201669982,367.36978645899944,367.36978645899944,368.31968499999493,1,1,1.107308667000325,0.22101875000225846,None,368.31986262499413,368.3199473749992,None,368.3199995,368.3200386669996,None,,,,,,,,,,,2,6,0,1,2025-01-28_13h21.14.475,rtmindeye,2024.2.3,None,2025-01-28 13h21.25.559797 -0500
all_stimuli/shared1000_notspecial/notspecial_53157.png,66,0,66,66,0,,,,0,0,0,6,1,"[9, 21, 31, 45, 56, 68, 69]",1,1,1.2413391250011045,0.19810795899684308,None,None,None,,,,,,,,,,,0,0,0,0,0,66,66,66,368.40912937499525,,,,,,,,,,,,,,,,,,,,,,368.3204507919945,368.3206366249942,368.4039589169988,368.40912937499525,368.40912937499525,368.40912937499525,368.40912937499525,371.40276120899944,371.40276120899944,372.33291233400087,1,1,1.2413391250011045,0.19810795899684308,None,372.3331197499938,372.33327895899856,None,372.33336670899735,372.33343808399513,None,,,,,,,,,,,2,6,0,1,2025-01-28_13h21.14.475,rtmindeye,2024.2.3,None,2025-01-28 13h21.25.559797 -0500
all_stimuli/special515/special_38641.jpg,67,0,67,67,0,,,,1,0,0,6,1,"[9, 21, 31, 45, 56, 68, 69]",1,0,1.5991507080034353,0.19001920799928484,None,None,None,,,,,,,,,,,0,0,0,0,0,67,67,67,372.38540374999866,,,,,,,,,,,,,,,,,,,,,,372.33404612499726,372.33425329199963,372.3803541249945,372.38540374999866,372.38540374999866,372.38540374999866,372.38540374999866,375.38281374999497,375.38281374999497,376.33720516699395,1,0,1.5991507080034353,0.19001920799928484,None,376.3373662919985,376.3374114170001,None,376.3374582089964,376.33749795900076,None,,,,,,,,,,,2,6,0,1,2025-01-28_13h21.14.475,rtmindeye,2024.2.3,None,2025-01-28 13h21.25.559797 -0500
blank.jpg,68,1,68,68,0,,,,0,0,0,6,1,"[9, 21, 31, 45, 56, 68, 69]",None,0,,,None,None,None,,,,,,,,,,,0,0,0,0,0,68,68,68,376.38570029199764,,,,,,,,,,,,,,,,,,,,,,376.3378889999949,376.3380989590005,376.3808643749944,376.38570029199764,376.38570029199764,376.38570029199764,376.38570029199764,379.3828126249937,379.3828126249937,380.34958124999685,None,0,,,None,380.34976479199395,380.3498361249949,None,380.3498982919991,380.34994158399786,None,,,,,,,,,,,2,6,0,1,2025-01-28_13h21.14.475,rtmindeye,2024.2.3,None,2025-01-28 13h21.25.559797 -0500
blank.jpg,69,1,69,69,0,,,,0,1,0,6,0,"[9, 21, 31, 45, 56, 68, 69]",None,0,,,None,1,equal,5.4169019580003805,None,18.92907042,None,,,,,,,0,0,0,0,0,69,69,69,380.3816299999962,,,,,,,,,,,,,,,,,,,,,,380.3504097089972,380.3505741669942,380.3767466249992,380.3816299999962,380.3816299999962,380.3816299999962,380.3816299999962,383.3694378750006,383.3694378750006,384.35404637499596,None,0,,,None,384.3727968749954,389.8009870419992,1,389.80114324999886,408.7512745419954,equal,384.3768544589984,384.3768544589984,5.4169019580003805,None,389.8106405840008,389.8106405840008,18.92907042,None,,,2,6,0,1,2025-01-28_13h21.14.475,rtmindeye,2024.2.3,None,2025-01-28 13h21.25.559797 -0500
,,,0,0,0,,,,,,,,,,,,,,,,,,,,,,,,,,,0,0,0,0,,,,,,,,,,,,,,,,,,,,,,,,,,,,,,,,,,,,,,,,,,,,,,,,,,,,,,,,,,2,6,0,1,2025-01-28_13h21.14.475,rtmindeye,2024.2.3,None,2025-01-28 13h21.25.559797 -0500
all_stimuli/special515/special_71450.jpg,0,0,0,0,0,,,,0,0,1,6,1,"[9, 21, 31, 45, 56, 68, 69]",1,1,0.9369601669968688,0.20399941600044258,None,None,None,,,,,,,,,,,1,0,1,0,0,0,0,0,408.93070404199534,,,,,,,,,,,,,,,,,,,,,,408.86093062500004,408.86142604199995,408.9227299999984,408.93070404199534,408.93070404199534,408.93070404199534,408.93070404199534,411.91978183399624,411.91978183399624,412.8657271669945,1,1,0.9369601669968688,0.20399941600044258,None,412.86578508399543,412.8658041249946,None,412.8658237089985,412.8658380839988,None,,,,,,,,,,,2,6,0,1,2025-01-28_13h21.14.475,rtmindeye,2024.2.3,None,2025-01-28 13h21.25.559797 -0500
all_stimuli/special515/special_38246.jpg,1,0,1,1,0,,,,0,0,1,6,1,"[9, 21, 31, 45, 56, 68, 69]",1,1,0.8585102920042118,0.19603579099930357,None,None,None,,,,,,,,,,,1,0,1,0,0,1,1,1,412.9071846250008,,,,,,,,,,,,,,,,,,,,,,412.8660077089953,412.8660514999938,412.9050140420004,412.9071846250008,412.9071846250008,412.9071846250008,412.9071846250008,415.9034982089943,415.9034982089943,416.86638287499954,1,1,0.8585102920042118,0.19603579099930357,None,416.86665829199774,416.8667312499965,None,416.8668795419944,416.86696058399684,None,,,,,,,,,,,2,6,0,1,2025-01-28_13h21.14.475,rtmindeye,2024.2.3,None,2025-01-28 13h21.25.559797 -0500
all_stimuli/special515/special_10046.jpg,2,0,2,2,0,,,,0,0,1,6,1,"[9, 21, 31, 45, 56, 68, 69]",1,1,1.413329208997311,0.2259405410004547,None,None,None,,,,,,,,,,,1,0,1,0,0,2,2,2,416.9173305000004,,,,,,,,,,,,,,,,,,,,,,416.86756516699825,416.8677818750002,416.91262074999395,416.9173305000004,416.9173305000004,416.9173305000004,416.9173305000004,419.91612308399635,419.91612308399635,420.86969795899495,1,1,1.413329208997311,0.2259405410004547,None,420.86987337499886,420.8699357500009,None,420.8699789999955,420.8700130419966,None,,,,,,,,,,,2,6,0,1,2025-01-28_13h21.14.475,rtmindeye,2024.2.3,None,2025-01-28 13h21.25.559797 -0500
all_stimuli/MST_pairs1/pair_38_w_arch2.jpg,3,0,3,3,0,,,,0,0,1,6,1,"[9, 21, 31, 45, 56, 68, 69]",1,1,1.240251792005438,0.20302774999436224,None,None,None,,,,,,,,,,,1,0,1,0,0,3,3,3,420.92135154199786,,,,,,,,,,,,,,,,,,,,,,420.8703992499941,420.8705628749958,420.9167457919975,420.92135154199786,420.92135154199786,420.92135154199786,420.92135154199786,423.91628995899373,423.91628995899373,424.88342324999394,1,1,1.240251792005438,0.20302774999436224,None,424.88362779199815,424.8836820419965,None,424.8837368339955,424.88377429200045,None,,,,,,,,,,,2,6,0,1,2025-01-28_13h21.14.475,rtmindeye,2024.2.3,None,2025-01-28 13h21.25.559797 -0500
all_stimuli/special515/special_30395.jpg,4,0,4,4,0,,,,0,0,1,6,1,"[9, 21, 31, 45, 56, 68, 69]",1,1,1.0608754580025561,0.19298370800242992,None,None,None,,,,,,,,,,,1,0,1,0,0,4,4,4,424.9358025420006,,,,,,,,,,,,,,,,,,,,,,424.8841687499953,424.8843240839997,424.93138033399737,424.9358025420006,424.9358025420006,424.9358025420006,424.9358025420006,427.9329638749987,427.9329638749987,428.8872935420004,1,1,1.0608754580025561,0.19298370800242992,None,428.8874020419971,428.8874469589937,None,428.88748624999425,428.8875220419941,None,,,,,,,,,,,2,6,0,1,2025-01-28_13h21.14.475,rtmindeye,2024.2.3,None,2025-01-28 13h21.25.559797 -0500
all_stimuli/special515/special_38494.jpg,5,0,5,5,0,,,,1,0,1,6,1,"[9, 21, 31, 45, 56, 68, 69]",2,1,1.7263979579947772,0.27090933400177164,None,None,None,,,,,,,,,,,1,0,1,0,0,5,5,5,428.9363326669991,,,,,,,,,,,,,,,,,,,,,,428.8878193339988,428.8879208340004,428.9320195420005,428.9363326669991,428.9363326669991,428.9363326669991,428.9363326669991,431.9328645839996,431.9328645839996,432.89974662500026,2,1,1.7263979579947772,0.27090933400177164,None,432.90007620899996,432.9001752089971,None,432.9003043749981,432.9003682,None,,,,,,,,,,,2,6,0,1,2025-01-28_13h21.14.475,rtmindeye,2024.2.3,None,2025-01-28 13h21.25.559797 -0500
all_stimuli/MST_pairs1/pair_28_nsd_547_1_cocoid_60932.png,6,0,6,6,0,,,,1,0,1,6,1,"[9, 21, 31, 45, 56, 68, 69]",2,1,1.6402737079988583,0.2359404579983675,None,None,None,,,,,,,,,,,1,0,1,0,0,6,6,6,432.9564796669947,,,,,,,,,,,,,,,,,,,,,,432.90094962500007,432.90118162499857,432.9531490419977,432.9564796669947,432.9564796669947,432.9564796669947,432.9564796669947,435.95302595899557,435.95302595899557,436.9032658340002,2,1,1.6402737079988583,0.2359404579983675,None,436.90349429199705,436.90354112500063,None,436.90359570899454,436.9036300000007,None,,,,,,,,,,,2,6,0,1,2025-01-28_13h21.14.475,rtmindeye,2024.2.3,None,2025-01-28 13h21.25.559797 -0500
all_stimuli/special515/special_61133.jpg,7,0,7,7,0,,,,0,0,1,6,1,"[9, 21, 31, 45, 56, 68, 69]",1,1,1.6710131670042756,0.19505241599836154,None,None,None,,,,,,,,,,,1,0,1,0,0,7,7,7,436.9496568339964,,,,,,,,,,,,,,,,,,,,,,436.90401408400066,436.90418416699686,436.9458444169941,436.9496568339964,436.9496568339964,436.9496568339964,436.9496568339964,439.94971441699454,439.94971441699454,440.9165212919979,1,1,1.6710131670042756,0.19505241599836154,None,440.91681904199504,440.91694829199696,None,440.917043,440.91710662499827,None,,,,,,,,,,,2,6,0,1,2025-01-28_13h21.14.475,rtmindeye,2024.2.3,None,2025-01-28 13h21.25.559797 -0500
all_stimuli/shared1000_notspecial/notspecial_16635.png,8,0,8,8,0,,,,0,0,1,6,1,"[9, 21, 31, 45, 56, 68, 69]",1,1,1.9652415829987149,0.1920857920049457,None,None,None,,,,,,,,,,,1,0,1,0,0,8,8,8,441.03537062499527,,,,,,,,,,,,,,,,,,,,,,440.91769816699525,440.91792154200084,441.03085933399416,441.03537062499527,441.03537062499527,441.03537062499527,441.03537062499527,444.03297774999373,444.03297774999373,444.92054204199667,1,1,1.9652415829987149,0.1920857920049457,None,444.9207386249982,444.9207915839943,None,444.9208461669987,444.9208817089966,None,,,,,,,,,,,2,6,0,1,2025-01-28_13h21.14.475,rtmindeye,2024.2.3,None,2025-01-28 13h21.25.559797 -0500
blank.jpg,9,1,9,9,0,,,,0,0,1,6,1,"[9, 21, 31, 45, 56, 68, 69]",None,0,,,None,None,None,,,,,,,,,,,1,0,1,0,0,9,9,9,444.98613874999864,,,,,,,,,,,,,,,,,,,,,,444.9213108749973,444.9215187919981,444.9811181,444.98613874999864,444.98613874999864,444.98613874999864,444.98613874999864,447.98282249999465,447.98282249999465,448.9334216,None,0,,,None,448.93366145899927,448.93378400000074,None,448.9338645839962,448.9339192089974,None,,,,,,,,,,,2,6,0,1,2025-01-28_13h21.14.475,rtmindeye,2024.2.3,None,2025-01-28 13h21.25.559797 -0500
all_stimuli/MST_pairs1/pair_18_nsd_6_1_cocoid_13417.png,10,0,10,10,0,,,,0,0,1,6,1,"[9, 21, 31, 45, 56, 68, 69]",1,1,1.0390133749970119,0.18607229099870892,None,None,None,,,,,,,,,,,1,0,1,0,0,10,10,10,448.9986703339964,,,,,,,,,,,,,,,,,,,,,,448.9345230839972,448.93476725000073,448.99542766699597,448.9986703339964,448.9986703339964,448.9986703339964,448.9986703339964,451.9867669,451.9867669,452.9371380839948,1,1,1.0390133749970119,0.18607229099870892,None,452.93733537499793,452.93738904199563,None,452.9374528749977,452.9374879,None,,,,,,,,,,,2,6,0,1,2025-01-28_13h21.14.475,rtmindeye,2024.2.3,None,2025-01-28 13h21.25.559797 -0500
all_stimuli/shared1000_notspecial/notspecial_21703.png,11,0,11,11,0,,,,0,0,1,6,1,"[9, 21, 31, 45, 56, 68, 69]",1,1,1.873772375001863,0.2609586659964407,None,None,None,,,,,,,,,,,1,0,1,0,0,11,11,11,453.0200145419949,,,,,,,,,,,,,,,,,,,,,,452.9379305839975,452.9381586669988,453.0166073750006,453.0200145419949,453.0200145419949,453.0200145419949,453.0200145419949,456.01660583399644,456.01660583399644,456.9497941249938,1,1,1.873772375001863,0.2609586659964407,None,456.9500884999943,456.95018320899544,None,456.95031608399586,456.95038729199587,None,,,,,,,,,,,2,6,0,1,2025-01-28_13h21.14.475,rtmindeye,2024.2.3,None,2025-01-28 13h21.25.559797 -0500
all_stimuli/special515/special_24530.jpg,12,0,12,12,0,,,,0,0,1,6,1,"[9, 21, 31, 45, 56, 68, 69]",1,1,1.7864908749979804,0.214061541,None,None,None,,,,,,,,,,,1,0,1,0,0,12,12,12,456.99818737500027,,,,,,,,,,,,,,,,,,,,,,456.95101249999425,456.95122433399956,456.9945202919989,456.99818737500027,456.99818737500027,456.99818737500027,456.99818737500027,459.98665437499585,459.98665437499585,460.95371445899946,1,1,1.7864908749979804,0.214061541,None,460.9538826669959,460.95392916700075,None,460.95397554199735,460.95401874999516,None,,,,,,,,,,,2,6,0,1,2025-01-28_13h21.14.475,rtmindeye,2024.2.3,None,2025-01-28 13h21.25.559797 -0500
all_stimuli/shared1000_notspecial/notspecial_6222.png,13,0,13,13,0,,,,0,0,1,6,1,"[9, 21, 31, 45, 56, 68, 69]",1,1,2.068486624993966,0.21301029200549237,None,None,None,,,,,,,,,,,1,0,1,0,0,13,13,13,461.0361622089986,,,,,,,,,,,,,,,,,,,,,,460.95438199999626,460.9545611249996,461.0315304169999,461.0361622089986,461.0361622089986,461.0361622089986,461.0361622089986,464.0331525839938,464.0331525839938,464.9667277499975,1,1,2.068486624993966,0.21301029200549237,None,464.9670020839985,464.9670654590009,None,464.96712716699403,464.96716745899903,None,,,,,,,,,,,2,6,0,1,2025-01-28_13h21.14.475,rtmindeye,2024.2.3,None,2025-01-28 13h21.25.559797 -0500
all_stimuli/MST_pairs1/pair_44_w_log_cabin2.jpg,14,0,14,14,0,,,,0,0,1,6,1,"[9, 21, 31, 45, 56, 68, 69]",1,1,1.5177685410017148,0.20205395900120493,None,None,None,,,,,,,,,,,1,0,1,0,0,14,14,14,465.01489695899363,,,,,,,,,,,,,,,,,,,,,,464.9676767089986,464.9678743339973,465.0099717089979,465.01489695899363,465.01489695899363,465.01489695899363,465.01489695899363,468.00313529199775,468.00313529199775,468.97042999999394,1,1,1.5177685410017148,0.20205395900120493,None,468.9706123750002,468.9706646249979,None,468.9707188339962,468.9707554169945,None,,,,,,,,,,,2,6,0,1,2025-01-28_13h21.14.475,rtmindeye,2024.2.3,None,2025-01-28 13h21.25.559797 -0500
all_stimuli/special515/special_28068.jpg,15,0,15,15,0,,,,0,0,1,6,1,"[9, 21, 31, 45, 56, 68, 69]",1,1,1.612620790998335,0.21495804200094426,None,None,None,,,,,,,,,,,1,0,1,0,0,15,15,15,469.02219533400057,,,,,,,,,,,,,,,,,,,,,,468.97117795899976,468.9713777500001,469.0190916249994,469.02219533400057,469.02219533400057,469.02219533400057,469.02219533400057,472.0204000839949,472.0204000839949,472.9831815840007,1,1,1.612620790998335,0.21495804200094426,None,472.98345870900084,472.98353441699874,None,472.98366566699406,472.98374870899715,None,,,,,,,,,,,2,6,0,1,2025-01-28_13h21.14.475,rtmindeye,2024.2.3,None,2025-01-28 13h21.25.559797 -0500
all_stimuli/shared1000_notspecial/notspecial_60978.png,16,0,16,16,0,,,,0,0,1,6,1,"[9, 21, 31, 45, 56, 68, 69]",1,1,1.5386147079989314,0.2199999580043368,None,None,None,,,,,,,,,,,1,0,1,0,0,16,16,16,473.10211191699636,,,,,,,,,,,,,,,,,,,,,,472.98435354200046,472.98456116699526,473.0978043,473.10211191699636,473.10211191699636,473.10211191699636,473.10211191699636,476.09955104199616,476.09955104199616,476.9871924170002,1,1,1.5386147079989314,0.2199999580043368,None,476.9873662,476.9874193750002,None,476.98746887499874,476.9875062919964,None,,,,,,,,,,,2,6,0,1,2025-01-28_13h21.14.475,rtmindeye,2024.2.3,None,2025-01-28 13h21.25.559797 -0500
all_stimuli/MST_pairs1/pair_2_4_22.png,17,0,17,17,0,,,,0,0,1,6,1,"[9, 21, 31, 45, 56, 68, 69]",2,0,2.239684791995387,0.3010051250021206,None,None,None,,,,,,,,,,,1,0,1,0,0,17,17,17,477.03608820899535,,,,,,,,,,,,,,,,,,,,,,476.9879500839961,476.98816516700026,477.03254749999905,477.03608820899535,477.03608820899535,477.03608820899535,477.03608820899535,480.0329115419954,480.0329115419954,480.9999685419971,2,0,2.239684791995387,0.3010051250021206,None,481.0002219589951,481.00031574999593,None,481.0003891249944,481.00044883399823,None,,,,,,,,,,,2,6,0,1,2025-01-28_13h21.14.475,rtmindeye,2024.2.3,None,2025-01-28 13h21.25.559797 -0500
all_stimuli/shared1000_notspecial/notspecial_46160.png,18,0,18,18,0,,,,0,0,1,6,1,"[9, 21, 31, 45, 56, 68, 69]",1,1,1.7022339159957482,0.22198745900095673,None,None,None,,,,,,,,,,,1,0,1,0,0,18,18,18,481.08943512499536,,,,,,,,,,,,,,,,,,,,,,481.0009902919992,481.00121374999435,481.0841801669958,481.08943512499536,481.08943512499536,481.08943512499536,481.08943512499536,484.08764433399483,484.08764433399483,485.0043745839939,1,1,1.7022339159957482,0.22198745900095673,None,485.00452733400016,485.00456999999733,None,485.0046131249983,485.0046447919958,None,,,,,,,,,,,2,6,0,1,2025-01-28_13h21.14.475,rtmindeye,2024.2.3,None,2025-01-28 13h21.25.559797 -0500
all_stimuli/special515/special_64880.jpg,19,0,19,19,0,,,,0,0,1,6,1,"[9, 21, 31, 45, 56, 68, 69]",1,1,1.3498864170032903,0.19700716700026533,None,None,None,,,,,,,,,,,1,0,1,0,0,19,19,19,485.0588862919976,,,,,,,,,,,,,,,,,,,,,,485.0049912089962,485.0051362499944,485.0538736249946,485.0588862919976,485.0588862919976,485.0588862919976,485.0588862919976,488.0539052919994,488.0539052919994,489.0164231669987,1,1,1.3498864170032903,0.19700716700026533,None,489.01662,489.01667499999894,None,489.0167294999992,489.01678329199785,None,,,,,,,,,,,2,6,0,1,2025-01-28_13h21.14.475,rtmindeye,2024.2.3,None,2025-01-28 13h21.25.559797 -0500
all_stimuli/MST_pairs1/pair_36_nsd_949_1_cocoid_43196.png,20,0,20,20,0,,,,0,0,1,6,1,"[9, 21, 31, 45, 56, 68, 69]",1,1,1.2827130839941674,0.4019701659999555,None,None,None,,,,,,,,,,,1,0,1,0,0,20,20,20,489.07605212499766,,,,,,,,,,,,,,,,,,,,,,489.0172437500005,489.01741675000085,489.0729787089949,489.07605212499766,489.07605212499766,489.07605212499766,489.07605212499766,492.0711843339959,492.0711843339959,493.01996912499453,1,1,1.2827130839941674,0.4019701659999555,None,493.0201633749966,493.0202262499952,None,493.0202872,493.0203279999987,None,,,,,,,,,,,2,6,0,1,2025-01-28_13h21.14.475,rtmindeye,2024.2.3,None,2025-01-28 13h21.25.559797 -0500
blank.jpg,21,1,21,21,0,,,,0,0,1,6,1,"[9, 21, 31, 45, 56, 68, 69]",None,0,,,None,None,None,,,,,,,,,,,1,0,1,0,0,21,21,21,493.05986258399935,,,,,,,,,,,,,,,,,,,,,,493.02071612500004,493.0208818339961,493.05575387499994,493.05986258399935,493.05986258399935,493.05986258399935,493.05986258399935,496.05357283399644,496.05357283399644,497.03309241699753,None,0,,,None,497.0332977500002,497.03337812499376,None,497.0334528339954,497.03349870899547,None,,,,,,,,,,,2,6,0,1,2025-01-28_13h21.14.475,rtmindeye,2024.2.3,None,2025-01-28 13h21.25.559797 -0500
all_stimuli/special515/special_30632.jpg,22,0,22,22,0,,,,1,0,1,6,1,"[9, 21, 31, 45, 56, 68, 69]",2,1,1.2504056670004502,0.24902308300079312,None,None,None,,,,,,,,,,,1,0,1,0,0,22,22,22,497.0944097,,,,,,,,,,,,,,,,,,,,,,497.03399679200083,497.0342227919973,497.0894562089961,497.0944097,497.0944097,497.0944097,497.0944097,500.08732479199534,500.08732479199534,501.0346694589971,2,1,1.2504056670004502,0.24902308300079312,None,501.0349030419966,501.03496962499776,None,501.0350333749957,501.0350775419938,None,,,,,,,,,,,2,6,0,1,2025-01-28_13h21.14.475,rtmindeye,2024.2.3,None,2025-01-28 13h21.25.559797 -0500
all_stimuli/MST_pairs1/pair_20_nsd_41_2_cocoid_63715.png,23,0,23,23,0,,,,1,0,1,6,1,"[9, 21, 31, 45, 56, 68, 69]",2,1,1.2836605420015985,0.24902491599641507,None,None,None,,,,,,,,,,,1,0,1,0,0,23,23,23,501.10614595899824,,,,,,,,,,,,,,,,,,,,,,501.0357264169943,501.03600183399976,501.10280608399626,501.10614595899824,501.10614595899824,501.10614595899824,501.10614595899824,504.10322183399694,504.10322183399694,505.0371278339953,2,1,1.2836605420015985,0.24902491599641507,None,505.0372924170006,505.0373397919975,None,505.03738674999477,505.03742083399993,None,,,,,,,,,,,2,6,0,1,2025-01-28_13h21.14.475,rtmindeye,2024.2.3,None,2025-01-28 13h21.25.559797 -0500
all_stimuli/MST_pairs1/pair_22_nsd_115_2_cocoid_65194.png,24,0,24,24,0,,,,0,0,1,6,1,"[9, 21, 31, 45, 56, 68, 69]",1,1,2.1963563750032336,0.21600866699736798,None,None,None,,,,,,,,,,,1,0,1,0,0,24,24,24,505.12342820900085,,,,,,,,,,,,,,,,,,,,,,505.03781929199613,505.0379837500004,505.11993587499455,505.12342820900085,505.12342820900085,505.12342820900085,505.12342820900085,508.1199748750005,508.1199748750005,509.0501640000002,1,1,2.1963563750032336,0.21600866699736798,None,509.05050341699825,509.0505829169997,None,509.05066766699747,509.0507266669956,None,,,,,,,,,,,2,6,0,1,2025-01-28_13h21.14.475,rtmindeye,2024.2.3,None,2025-01-28 13h21.25.559797 -0500
all_stimuli/shared1000_notspecial/notspecial_26292.png,25,0,25,25,0,,,,0,0,1,6,1,"[9, 21, 31, 45, 56, 68, 69]",1,1,1.4754482909993385,0.19202154200320365,None,None,None,,,,,,,,,,,1,0,1,0,0,25,25,25,509.14623079199373,,,,,,,,,,,,,,,,,,,,,,509.0513632919974,509.0516647089971,509.14137520899385,509.14623079199373,509.14623079199373,509.14623079199373,509.14623079199373,512.1362010839948,512.1362010839948,513.0543837919977,1,1,1.4754482909993385,0.19202154200320365,None,513.0545514999976,513.0545972499967,None,513.0546532,513.0546883339994,None,,,,,,,,,,,2,6,0,1,2025-01-28_13h21.14.475,rtmindeye,2024.2.3,None,2025-01-28 13h21.25.559797 -0500
all_stimuli/special515/special_6489.jpg,26,0,26,26,0,,,,1,0,1,6,1,"[9, 21, 31, 45, 56, 68, 69]",2,1,1.384775124999578,0.2850001670012716,None,None,None,,,,,,,,,,,1,0,1,0,0,26,26,26,513.1110231669954,,,,,,,,,,,,,,,,,,,,,,513.0550869590006,513.0552635839995,513.1057286669966,513.1110231669954,513.1110231669954,513.1110231669954,513.1110231669954,516.1047147919962,516.1047147919962,517.0668277090008,2,1,1.384775124999578,0.2850001670012716,None,517.0670442499977,517.0670999590002,None,517.0671563750002,517.0671958339954,None,,,,,,,,,,,2,6,0,1,2025-01-28_13h21.14.475,rtmindeye,2024.2.3,None,2025-01-28 13h21.25.559797 -0500
all_stimuli/special515/special_55678.jpg,27,0,27,27,0,,,,0,0,1,6,1,"[9, 21, 31, 45, 56, 68, 69]",1,1,1.4372620840003947,0.18795862499973737,None,None,None,,,,,,,,,,,1,0,1,0,0,27,27,27,517.1115650419961,,,,,,,,,,,,,,,,,,,,,,517.0676206249991,517.0677914169937,517.1068334169977,517.1115650419961,517.1115650419961,517.1115650419961,517.1115650419961,520.1034779999973,520.1034779999973,521.0710836669969,1,1,1.4372620840003947,0.18795862499973737,None,521.071248,521.0712920839942,None,521.0713435419966,521.0713780839942,None,,,,,,,,,,,2,6,0,1,2025-01-28_13h21.14.475,rtmindeye,2024.2.3,None,2025-01-28 13h21.25.559797 -0500
all_stimuli/special515/special_40909.jpg,28,0,28,28,0,,,,0,0,1,6,1,"[9, 21, 31, 45, 56, 68, 69]",2,0,2.335672749999503,0.2650377500031027,None,None,None,,,,,,,,,,,1,0,1,0,0,28,28,28,521.1121644999948,,,,,,,,,,,,,,,,,,,,,,521.0717619589996,521.0719234169956,521.1080272499967,521.1121644999948,521.1121644999948,521.1121644999948,521.1121644999948,524.1030990840009,524.1030990840009,525.0835744169963,2,0,2.335672749999503,0.2650377500031027,None,525.0839052089941,525.0839612499985,None,525.0840185419947,525.0840628749938,None,,,,,,,,,,,2,6,0,1,2025-01-28_13h21.14.475,rtmindeye,2024.2.3,None,2025-01-28 13h21.25.559797 -0500
all_stimuli/special515/special_70360.jpg,29,0,29,29,0,,,,0,0,1,6,1,"[9, 21, 31, 45, 56, 68, 69]",1,1,2.948071999999229,None,None,None,None,,,,,,,,,,,1,0,1,0,0,29,29,29,525.1257934169989,,,,,,,,,,,,,,,,,,,,,,525.0844980839975,525.0846535419987,525.1221022,525.1257934169989,525.1257934169989,525.1257934169989,525.1257934169989,528.1185228339964,528.1185228339964,529.0887892,1,1,2.948071999999229,None,None,529.0889368339995,529.0889787089982,None,529.0890217499982,529.0890522089976,None,,,,,,,,,,,2,6,0,1,2025-01-28_13h21.14.475,rtmindeye,2024.2.3,None,2025-01-28 13h21.25.559797 -0500
all_stimuli/MST_pairs1/pair_42_w_icerink1.jpg,30,0,30,30,0,,,,0,0,1,6,1,"[9, 21, 31, 45, 56, 68, 69]",2,0,1.4597057919963845,0.2869697499991162,None,None,None,,,,,,,,,,,1,0,1,0,0,30,30,30,529.1351620839996,,,,,,,,,,,,,,,,,,,,,,529.0893918750007,529.08955,529.1312877919991,529.1351620839996,529.1351620839996,529.1351620839996,529.1351620839996,532.1330423339969,532.1330423339969,533.1004977089979,2,0,1.4597057919963845,0.2869697499991162,None,533.1007823339969,533.1009025839958,None,533.1009863340005,533.1010453339986,None,,,,,,,,,,,2,6,0,1,2025-01-28_13h21.14.475,rtmindeye,2024.2.3,None,2025-01-28 13h21.25.559797 -0500
blank.jpg,31,1,31,31,0,,,,0,0,1,6,1,"[9, 21, 31, 45, 56, 68, 69]",None,0,,,None,None,None,,,,,,,,,,,1,0,1,0,0,31,31,31,533.1481439589988,,,,,,,,,,,,,,,,,,,,,,533.1016937499953,533.1019717499948,533.1428605420006,533.1481439589988,533.1481439589988,533.1481439589988,533.1481439589988,536.1379816669942,536.1379816669942,537.1043604999941,None,0,,,None,537.1044772089954,537.1045148749981,None,537.1045639589938,537.1045999169946,None,,,,,,,,,,,2,6,0,1,2025-01-28_13h21.14.475,rtmindeye,2024.2.3,None,2025-01-28 13h21.25.559797 -0500
all_stimuli/special515/special_30430.jpg,32,0,32,32,0,,,,1,0,1,6,1,"[9, 21, 31, 45, 56, 68, 69]",2,1,1.4850852919989848,0.271997542,None,None,None,,,,,,,,,,,1,0,1,0,0,32,32,32,537.1748151669963,,,,,,,,,,,,,,,,,,,,,,537.1049152,537.1050404999987,537.1718467,537.1748151669963,537.1748151669963,537.1748151669963,537.1748151669963,540.1701749999993,540.1701749999993,541.1052523339968,2,1,1.4850852919989848,0.271997542,None,541.1054612919979,541.1055147919978,None,541.1055822499984,541.1056247089946,None,,,,,,,,,,,2,6,0,1,2025-01-28_13h21.14.475,rtmindeye,2024.2.3,None,2025-01-28 13h21.25.559797 -0500
all_stimuli/shared1000_notspecial/notspecial_43746.png,33,0,33,33,0,,,,0,0,1,6,1,"[9, 21, 31, 45, 56, 68, 69]",1,1,2.4165375829979894,0.2000402089979616,None,None,None,,,,,,,,,,,1,0,1,0,0,33,33,33,541.2112664169981,,,,,,,,,,,,,,,,,,,,,,541.1062424999982,541.1064899999983,541.2065069999953,541.2112664169981,541.2112664169981,541.2112664169981,541.2112664169981,544.2030464999989,544.2030464999989,545.1164275839983,1,1,2.4165375829979894,0.2000402089979616,None,545.1166009169974,545.1166682919938,None,545.1167257089983,545.1167654999954,None,,,,,,,,,,,2,6,0,1,2025-01-28_13h21.14.475,rtmindeye,2024.2.3,None,2025-01-28 13h21.25.559797 -0500
all_stimuli/MST_pairs1/pair_34_nsd_875_1_cocoid_67762.png,34,0,34,34,0,,,,0,0,1,6,1,"[9, 21, 31, 45, 56, 68, 69]",2,0,1.1928929160058033,0.3140577919984935,None,None,None,,,,,,,,,,,1,0,1,0,0,34,34,34,545.1890006,,,,,,,,,,,,,,,,,,,,,,545.1172282499974,545.1174107499974,545.1858466669946,545.1890006,545.1890006,545.1890006,545.1890006,548.1866377089973,548.1866377089973,549.12088,2,0,1.1928929160058033,0.3140577919984935,None,549.1210299169979,549.1210755840002,None,549.1211223339997,549.1211574,None,,,,,,,,,,,2,6,0,1,2025-01-28_13h21.14.475,rtmindeye,2024.2.3,None,2025-01-28 13h21.25.559797 -0500
all_stimuli/MST_pairs1/pair_12_16_78.png,35,0,35,35,0,,,,1,0,1,6,1,"[9, 21, 31, 45, 56, 68, 69]",2,1,2.050626165997528,0.2900580420027836,None,None,None,,,,,,,,,,,1,0,1,0,0,35,35,35,549.1652360839944,,,,,,,,,,,,,,,,,,,,,,549.1215425839982,549.1216844589944,549.1614294999963,549.1652360839944,549.1652360839944,549.1652360839944,549.1652360839944,552.1521479589937,552.1521479589937,553.1329622919948,2,1,2.050626165997528,0.2900580420027836,None,553.1331203749942,553.1331686669946,None,553.1332330419973,553.1332689999981,None,,,,,,,,,,,2,6,0,1,2025-01-28_13h21.14.475,rtmindeye,2024.2.3,None,2025-01-28 13h21.25.559797 -0500
all_stimuli/special515/special_4249.jpg,36,0,36,36,0,,,,1,0,1,6,1,"[9, 21, 31, 45, 56, 68, 69]",2,1,2.1169719169993186,0.41507604099751916,None,None,None,,,,,,,,,,,1,0,1,0,0,36,36,36,553.1758997500001,,,,,,,,,,,,,,,,,,,,,,553.1336563339937,553.1338154999976,553.1725608749985,553.1758997500001,553.1758997500001,553.1758997500001,553.1758997500001,556.1699796249959,556.1699796249959,557.1365357089962,2,1,2.1169719169993186,0.41507604099751916,None,557.1367017089942,557.1367562089945,None,557.1368053749975,557.1368457499993,None,,,,,,,,,,,2,6,0,1,2025-01-28_13h21.14.475,rtmindeye,2024.2.3,None,2025-01-28 13h21.25.559797 -0500
all_stimuli/MST_pairs1/pair_42_w_icerink2.jpg,37,0,37,37,0,,,,1,0,1,6,1,"[9, 21, 31, 45, 56, 68, 69]",2,1,1.561268667,0.31105391700111795,None,None,None,,,,,,,,,,,1,0,1,0,0,37,37,37,557.1805537920009,,,,,,,,,,,,,,,,,,,,,,557.1372388339951,557.1373912919953,557.1756189999942,557.1805537920009,557.1805537920009,557.1805537920009,557.1805537920009,560.1699082,560.1699082,561.1514818750002,2,1,1.561268667,0.31105391700111795,None,561.1517279999971,561.1518100839967,None,561.1518880419972,561.1519517919951,None,,,,,,,,,,,2,6,0,1,2025-01-28_13h21.14.475,rtmindeye,2024.2.3,None,2025-01-28 13h21.25.559797 -0500
all_stimuli/shared1000_notspecial/notspecial_70038.png,38,0,38,38,0,,,,0,0,1,6,1,"[9, 21, 31, 45, 56, 68, 69]",None,0,,,None,None,None,,,,,,,,,,,1,0,1,0,0,38,38,38,561.2333761669943,,,,,,,,,,,,,,,,,,,,,,561.1526492499979,561.1529775419986,561.2296137089943,561.2333761669943,561.2333761669943,561.2333761669943,561.2333761669943,564.2205747089974,564.2205747089974,565.1542002499991,None,0,,,None,565.1543498749961,565.1543998339985,None,565.1544457919954,565.1544808749968,None,,,,,,,,,,,2,6,0,1,2025-01-28_13h21.14.475,rtmindeye,2024.2.3,None,2025-01-28 13h21.25.559797 -0500
all_stimuli/special515/special_53155.jpg,39,0,39,39,0,,,,0,0,1,6,1,"[9, 21, 31, 45, 56, 68, 69]",1,1,1.8431119169981685,0.22189841599902138,None,None,None,,,,,,,,,,,1,0,1,0,0,39,39,39,565.2017737499991,,,,,,,,,,,,,,,,,,,,,,565.1548362089961,565.1550000839998,565.1969665419965,565.2017737499991,565.2017737499991,565.2017737499991,565.2017737499991,568.2000137919968,568.2000137919968,569.1667585839969,1,1,1.8431119169981685,0.22189841599902138,None,569.1669492500005,569.1670087499951,None,569.1671030419966,569.1671470419969,None,,,,,,,,,,,2,6,0,1,2025-01-28_13h21.14.475,rtmindeye,2024.2.3,None,2025-01-28 13h21.25.559797 -0500
all_stimuli/special515/special_24530.jpg,40,0,40,40,0,,,,1,0,1,6,1,"[9, 21, 31, 45, 56, 68, 69]",2,1,1.1652127919951454,0.289945083,None,None,None,,,,,,,,,,,1,0,1,0,0,40,40,40,569.2427121250003,,,,,,,,,,,,,,,,,,,,,,569.1675748339985,569.1677429999982,569.2390095419978,569.2427121250003,569.2427121250003,569.2427121250003,569.2427121250003,572.2376921670002,572.2376921670002,573.1839023749999,2,1,1.1652127919951454,0.289945083,None,573.1841005419992,573.1841593749996,None,573.1842119,573.1842506249959,None,,,,,,,,,,,2,6,0,1,2025-01-28_13h21.14.475,rtmindeye,2024.2.3,None,2025-01-28 13h21.25.559797 -0500
all_stimuli/special515/special_32232.jpg,41,0,41,41,0,,,,0,0,1,6,1,"[9, 21, 31, 45, 56, 68, 69]",2,0,0.9983349169997382,0.26900483300414635,None,None,None,,,,,,,,,,,1,0,1,0,0,41,41,41,573.2285756669953,,,,,,,,,,,,,,,,,,,,,,573.1847159589961,573.1849982089989,573.2241038339998,573.2285756669953,573.2285756669953,573.2285756669953,573.2285756669953,576.2336807,576.2336807,577.1871705839949,2,0,0.9983349169997382,0.26900483300414635,None,577.1873503339957,577.1874000419994,None,577.1874529169945,577.1874999169959,None,,,,,,,,,,,2,6,0,1,2025-01-28_13h21.14.475,rtmindeye,2024.2.3,None,2025-01-28 13h21.25.559797 -0500
all_stimuli/special515/special_41814.jpg,42,0,42,42,0,,,,0,0,1,6,1,"[9, 21, 31, 45, 56, 68, 69]",1,1,2.040991292000399,0.21299412499502068,None,None,None,,,,,,,,,,,1,0,1,0,0,42,42,42,577.2298207919957,,,,,,,,,,,,,,,,,,,,,,577.1879549589939,577.1881389169939,577.2247132919947,577.2298207919957,577.2298207919957,577.2298207919957,577.2298207919957,580.2200499589962,580.2200499589962,581.1999182500003,1,1,2.040991292000399,0.21299412499502068,None,581.2001461670006,581.2002832500002,None,581.2003842919949,581.2005002499936,None,,,,,,,,,,,2,6,0,1,2025-01-28_13h21.14.475,rtmindeye,2024.2.3,None,2025-01-28 13h21.25.559797 -0500
all_stimuli/shared1000_notspecial/notspecial_23883.png,43,0,43,43,0,,,,0,0,1,6,1,"[9, 21, 31, 45, 56, 68, 69]",None,0,,,['1'],None,None,,,,,[3.3717952910010354],[0.19101895899802912],,,,,1,0,1,0,0,43,43,43,581.2831508,,,,,,,,,,,,,,,,,,,,,,581.2010697919977,581.2012804999977,581.2793747499964,581.2831508,581.2831508,581.2831508,581.2831508,584.2704562090003,584.2704562090003,585.2021983339946,None,0,,,['1'],585.2023922499939,585.2024332500005,None,585.2024752500001,585.2025069589945,None,,,,,,,,,[3.3717952910010354],[0.19101895899802912],2,6,0,1,2025-01-28_13h21.14.475,rtmindeye,2024.2.3,None,2025-01-28 13h21.25.559797 -0500
all_stimuli/shared1000_notspecial/notspecial_4436.png,44,0,44,44,0,,,,0,0,1,6,1,"[9, 21, 31, 45, 56, 68, 69]",1,1,0.9834502079975209,0.18693229200289352,None,None,None,,,,,,,,,,,1,0,1,0,0,44,44,44,585.2794677089987,,,,,,,,,,,,,,,,,,,,,,585.2028384589939,585.2029644169961,585.2760994589989,585.2794677089987,585.2794677089987,585.2794677089987,585.2794677089987,588.2697719589996,588.2697719589996,589.2159792919992,1,1,0.9834502079975209,0.18693229200289352,None,589.2161481250005,589.2161910840005,None,589.2162326249963,589.2162695419975,None,,,,,,,,,,,2,6,0,1,2025-01-28_13h21.14.475,rtmindeye,2024.2.3,None,2025-01-28 13h21.25.559797 -0500
blank.jpg,45,1,45,45,0,,,,0,0,1,6,1,"[9, 21, 31, 45, 56, 68, 69]",None,0,,,None,None,None,,,,,,,,,,,1,0,1,0,0,45,45,45,589.2564825839945,,,,,,,,,,,,,,,,,,,,,,589.2166363340002,589.2167869170007,589.2521958340003,589.2564825839945,589.2564825839945,589.2564825839945,589.2564825839945,592.2676322089974,592.2676322089974,593.2205819589944,None,0,,,None,593.2207383339992,593.2207874589949,None,593.2208384589976,593.2208747089971,None,,,,,,,,,,,2,6,0,1,2025-01-28_13h21.14.475,rtmindeye,2024.2.3,None,2025-01-28 13h21.25.559797 -0500
all_stimuli/special515/special_61133.jpg,46,0,46,46,0,,,,1,0,1,6,1,"[9, 21, 31, 45, 56, 68, 69]",2,1,0.9605045419957605,0.26701975000469247,None,None,None,,,,,,,,,,,1,0,1,0,0,46,46,46,593.2614741,,,,,,,,,,,,,,,,,,,,,,593.2212436249974,593.2214057919991,593.2580534169974,593.2614741,593.2614741,593.2614741,593.2614741,596.2541019169948,596.2541019169948,597.2333661669982,2,1,0.9605045419957605,0.26701975000469247,None,597.2336339169997,597.2337135839989,None,597.2338691669938,597.2339398749973,None,,,,,,,,,,,2,6,0,1,2025-01-28_13h21.14.475,rtmindeye,2024.2.3,None,2025-01-28 13h21.25.559797 -0500
all_stimuli/MST_pairs1/pair_24_nsd_158_2_cocoid_3673.png,47,0,47,47,0,,,,0,0,1,6,1,"[9, 21, 31, 45, 56, 68, 69]",1,1,1.9516563330034842,0.22498295799596235,None,None,None,,,,,,,,,,,1,0,1,0,0,47,47,47,597.2963521669953,,,,,,,,,,,,,,,,,,,,,,597.2344897500006,597.2347178749988,597.2925150839947,597.2963521669953,597.2963521669953,597.2963521669953,597.2963521669953,600.2875727919964,600.2875727919964,601.2372770000002,1,1,1.9516563330034842,0.22498295799596235,None,601.2374573339985,601.2375054999939,None,601.2375581669985,601.2375967499975,None,,,,,,,,,,,2,6,0,1,2025-01-28_13h21.14.475,rtmindeye,2024.2.3,None,2025-01-28 13h21.25.559797 -0500
all_stimuli/MST_pairs1/pair_34_nsd_875_2_cocoid_72398.png,48,0,48,48,0,,,,0,0,1,6,1,"[9, 21, 31, 45, 56, 68, 69]",1,1,1.4571807500033174,0.20501937499648193,None,None,None,,,,,,,,,,,1,0,1,0,0,48,48,48,601.3157760839968,,,,,,,,,,,,,,,,,,,,,,601.2380305419938,601.2382542499981,601.3122539169999,601.3157760839968,601.3157760839968,601.3157760839968,601.3157760839968,604.3034468749975,604.3034468749975,605.2498927919951,1,1,1.4571807500033174,0.20501937499648193,None,605.2501826249936,605.2502407919965,None,605.2502931669951,605.2503353749998,None,,,,,,,,,,,2,6,0,1,2025-01-28_13h21.14.475,rtmindeye,2024.2.3,None,2025-01-28 13h21.25.559797 -0500
all_stimuli/shared1000_notspecial/notspecial_51965.png,49,0,49,49,0,,,,0,0,1,6,1,"[9, 21, 31, 45, 56, 68, 69]",1,1,1.0313417500001378,0.26601429100264795,None,None,None,,,,,,,,,,,1,0,1,0,0,49,49,49,605.3375070839975,,,,,,,,,,,,,,,,,,,,,,605.2507509169955,605.2509087919971,605.3330475420007,605.3375070839975,605.3375070839975,605.3375070839975,605.3375070839975,608.3332302499985,608.3332302499985,609.2534040839964,1,1,1.0313417500001378,0.26601429100264795,None,609.2535937089997,609.2536504169984,None,609.2537174999961,609.2537549999979,None,,,,,,,,,,,2,6,0,1,2025-01-28_13h21.14.475,rtmindeye,2024.2.3,None,2025-01-28 13h21.25.559797 -0500
all_stimuli/MST_pairs1/pair_30_nsd_676_1_cocoid_48729.png,50,0,50,50,0,,,,0,0,1,6,1,"[9, 21, 31, 45, 56, 68, 69]",1,1,1.6639656249972177,0.22900775000016438,None,None,None,,,,,,,,,,,1,0,1,0,0,50,50,50,609.423954,,,,,,,,,,,,,,,,,,,,,,609.2541984169948,609.2544212089997,609.4200646669997,609.423954,609.423954,609.423954,609.423954,612.4208236669947,612.4208236669947,613.2665385419969,1,1,1.6639656249972177,0.22900775000016438,None,613.2667097499943,613.2667750839973,None,613.2668342089964,613.2668735,None,,,,,,,,,,,2,6,0,1,2025-01-28_13h21.14.475,rtmindeye,2024.2.3,None,2025-01-28 13h21.25.559797 -0500
all_stimuli/shared1000_notspecial/notspecial_52328.png,51,0,51,51,0,,,,0,0,1,6,1,"[9, 21, 31, 45, 56, 68, 69]",None,0,,,['2'],None,None,,,,,[1.4001601670024684],[0.3350553329946706],,,,,1,0,1,0,0,51,51,51,613.3507610839952,,,,,,,,,,,,,,,,,,,,,,613.2673252089953,613.2675019999951,613.3471056249982,613.3507610839952,613.3507610839952,613.3507610839952,613.3507610839952,616.3497708340001,616.3497708340001,617.2706461249982,None,0,,,['2'],617.2708704,617.2709152089956,None,617.2709590419981,617.2709907089957,None,,,,,,,,,[1.4001601670024684],[0.3350553329946706],2,6,0,1,2025-01-28_13h21.14.475,rtmindeye,2024.2.3,None,2025-01-28 13h21.25.559797 -0500
all_stimuli/MST_pairs1/pair_4_6_44.png,52,0,52,52,0,,,,0,0,1,6,1,"[9, 21, 31, 45, 56, 68, 69]",1,1,1.597464749997016,0.21399716599989915,None,None,None,,,,,,,,,,,1,0,1,0,0,52,52,52,617.3645462,,,,,,,,,,,,,,,,,,,,,,617.2713601669966,617.2716090419999,617.3602002919943,617.3645462,617.3645462,617.3645462,617.3645462,620.3540388,620.3540388,621.2834126249945,1,1,1.597464749997016,0.21399716599989915,None,621.2837340419937,621.2838476670004,None,621.2839364169995,621.2839929999973,None,,,,,,,,,,,2,6,0,1,2025-01-28_13h21.14.475,rtmindeye,2024.2.3,None,2025-01-28 13h21.25.559797 -0500
all_stimuli/MST_pairs1/pair_48_w_runway1.jpg,53,0,53,53,0,,,,0,0,1,6,1,"[9, 21, 31, 45, 56, 68, 69]",2,0,1.0777686250003171,0.2819350419958937,None,None,None,,,,,,,,,,,1,0,1,0,0,53,53,53,621.3242532919976,,,,,,,,,,,,,,,,,,,,,,621.2845922089982,621.2848462089969,621.3208468339944,621.3242532919976,621.3242532919976,621.3242532919976,621.3242532919976,624.3201162089972,624.3201162089972,625.2877577089967,2,0,1.0777686250003171,0.2819350419958937,None,625.2879246,625.2879780419971,None,625.2880281249963,625.2880594169983,None,,,,,,,,,,,2,6,0,1,2025-01-28_13h21.14.475,rtmindeye,2024.2.3,None,2025-01-28 13h21.25.559797 -0500
all_stimuli/special515/special_40840.jpg,54,0,54,54,0,,,,1,0,1,6,1,"[9, 21, 31, 45, 56, 68, 69]",2,1,1.351119083003141,0.29195237499516224,None,None,None,,,,,,,,,,,1,0,1,0,0,54,54,54,625.3399034589966,,,,,,,,,,,,,,,,,,,,,,625.2884437499961,625.2885897919987,625.3363882,625.3399034589966,625.3399034589966,625.3399034589966,625.3399034589966,628.3367231,628.3367231,629.3003292919966,2,1,1.351119083003141,0.29195237499516224,None,629.3005809999959,629.3006410419985,None,629.3007005839972,629.3007426669938,None,,,,,,,,,,,2,6,0,1,2025-01-28_13h21.14.475,rtmindeye,2024.2.3,None,2025-01-28 13h21.25.559797 -0500
all_stimuli/shared1000_notspecial/notspecial_12487.png,55,0,55,55,0,,,,0,0,1,6,1,"[9, 21, 31, 45, 56, 68, 69]",None,0,,,['1'],None,None,,,,,[3.082279791000474],[0.17896766699414002],,,,,1,0,1,0,0,55,55,55,629.3797425,,,,,,,,,,,,,,,,,,,,,,629.3012723749998,629.3015592089941,629.3760099589999,629.3797425,629.3797425,629.3797425,629.3797425,632.3702959999937,632.3702959999937,633.3026430419995,None,0,,,['1'],633.3028340839955,633.3028753749968,None,633.3029148749993,633.3029448749949,None,,,,,,,,,[3.082279791000474],[0.17896766699414002],2,6,0,1,2025-01-28_13h21.14.475,rtmindeye,2024.2.3,None,2025-01-28 13h21.25.559797 -0500
blank.jpg,56,1,56,56,0,,,,0,0,1,6,1,"[9, 21, 31, 45, 56, 68, 69]",None,0,,,None,None,None,,,,,,,,,,,1,0,1,0,0,56,56,56,633.3580842089941,,,,,,,,,,,,,,,,,,,,,,633.3032979169948,633.3034659170007,633.3544592089966,633.3580842089941,633.3580842089941,633.3580842089941,633.3580842089941,636.3676368339948,636.3676368339948,637.3167964589957,None,0,,,None,637.3169959999941,637.3170789169963,None,637.3171786,637.3172384589998,None,,,,,,,,,,,2,6,0,1,2025-01-28_13h21.14.475,rtmindeye,2024.2.3,None,2025-01-28 13h21.25.559797 -0500
all_stimuli/MST_pairs1/pair_16_20_0.png,57,0,57,57,0,,,,1,0,1,6,1,"[9, 21, 31, 45, 56, 68, 69]",2,1,0.8688988750000135,0.2809931250012596,None,None,None,,,,,,,,,,,1,0,1,0,0,57,57,57,637.3751165419962,,,,,,,,,,,,,,,,,,,,,,637.3177695839986,637.3179694169958,637.3712756249952,637.3751165419962,637.3751165419962,637.3751165419962,637.3751165419962,640.3707896,640.3707896,641.3204822919943,2,1,0.8688988750000135,0.2809931250012596,None,641.3206854999953,641.3207366,None,641.3207869170001,641.3208190419973,None,,,,,,,,,,,2,6,0,1,2025-01-28_13h21.14.475,rtmindeye,2024.2.3,None,2025-01-28 13h21.25.559797 -0500
all_stimuli/shared1000_notspecial/notspecial_12685.png,58,0,58,58,0,,,,0,0,1,6,1,"[9, 21, 31, 45, 56, 68, 69]",1,1,1.7117892499954905,0.2200373750019935,None,None,None,,,,,,,,,,,1,0,1,0,0,58,58,58,641.4091852499987,,,,,,,,,,,,,,,,,,,,,,641.3212069590008,641.3213677089952,641.4049855839985,641.4091852499987,641.4091852499987,641.4091852499987,641.4091852499987,644.4035203749954,644.4035203749954,645.3333097089999,1,1,1.7117892499954905,0.2200373750019935,None,645.3335197499982,645.3335947089945,None,645.3337187,645.3338028340004,None,,,,,,,,,,,2,6,0,1,2025-01-28_13h21.14.475,rtmindeye,2024.2.3,None,2025-01-28 13h21.25.559797 -0500
all_stimuli/MST_pairs1/pair_36_nsd_949_2_cocoid_60031.png,59,0,59,59,0,,,,0,0,1,6,1,"[9, 21, 31, 45, 56, 68, 69]",2,0,1.9357202500032145,0.2969486669971957,None,None,None,,,,,,,,,,,1,0,1,0,0,59,59,59,645.3903407499965,,,,,,,,,,,,,,,,,,,,,,645.3343871670004,645.3345867919998,645.3871978749958,645.3903407499965,645.3903407499965,645.3903407499965,645.3903407499965,648.3875574999984,648.3875574999984,649.3371224589937,2,0,1.9357202500032145,0.2969486669971957,None,649.3373227089978,649.3373756250003,None,649.3374372089966,649.3374753,None,,,,,,,,,,,2,6,0,1,2025-01-28_13h21.14.475,rtmindeye,2024.2.3,None,2025-01-28 13h21.25.559797 -0500
all_stimuli/shared1000_notspecial/notspecial_34068.png,60,0,60,60,0,,,,0,0,1,6,1,"[9, 21, 31, 45, 56, 68, 69]",1,1,1.0726595410014852,0.20902812499844003,None,None,None,,,,,,,,,,,1,0,1,0,0,60,60,60,649.4123401670004,,,,,,,,,,,,,,,,,,,,,,649.3379086669956,649.3381046249997,649.4078290420002,649.4123401670004,649.4123401670004,649.4123401670004,649.4123401670004,652.4034697499956,652.4034697499956,653.3508827499973,1,1,1.0726595410014852,0.20902812499844003,None,653.3510869999955,653.3511499589949,None,653.3512160419996,653.3512601249968,None,,,,,,,,,,,2,6,0,1,2025-01-28_13h21.14.475,rtmindeye,2024.2.3,None,2025-01-28 13h21.25.559797 -0500
all_stimuli/special515/special_11159.jpg,61,0,61,61,0,,,,0,0,1,6,1,"[9, 21, 31, 45, 56, 68, 69]",1,1,0.9431304589961655,0.19698420799977612,None,None,None,,,,,,,,,,,1,0,1,0,0,61,61,61,653.4098609,,,,,,,,,,,,,,,,,,,,,,653.3517585419977,653.3520141669942,653.4063445840002,653.4098609,653.4098609,653.4098609,653.4098609,656.4037735839956,656.4037735839956,657.3550203339983,1,1,0.9431304589961655,0.19698420799977612,None,657.3552005419988,657.3552560419994,None,657.3553082919971,657.3553487499958,None,,,,,,,,,,,2,6,0,1,2025-01-28_13h21.14.475,rtmindeye,2024.2.3,None,2025-01-28 13h21.25.559797 -0500
all_stimuli/MST_pairs1/pair_34_nsd_875_2_cocoid_72398.png,62,0,62,62,0,,,,1,0,1,6,1,"[9, 21, 31, 45, 56, 68, 69]",2,1,0.9433802089988603,0.2680362499959301,None,None,None,,,,,,,,,,,1,0,1,0,0,62,62,62,657.4136420840005,,,,,,,,,,,,,,,,,,,,,,657.3558111,657.3560487499999,657.4102810839977,657.4136420840005,657.4136420840005,657.4136420840005,657.4136420840005,660.4040691669943,660.4040691669943,661.3666225839988,2,1,0.9433802089988603,0.2680362499959301,None,661.3668270839989,661.3668936,None,661.3669529170002,661.3670021,None,,,,,,,,,,,2,6,0,1,2025-01-28_13h21.14.475,rtmindeye,2024.2.3,None,2025-01-28 13h21.25.559797 -0500
all_stimuli/special515/special_67742.jpg,63,0,63,63,0,,,,0,0,1,6,1,"[9, 21, 31, 45, 56, 68, 69]",1,1,1.354697834001854,0.18204829099704511,None,None,None,,,,,,,,,,,1,0,1,0,0,63,63,63,661.4163334589975,,,,,,,,,,,,,,,,,,,,,,661.3674797919957,661.3676476670007,661.4128942919997,661.4163334589975,661.4163334589975,661.4163334589975,661.4163334589975,664.4042751669986,664.4042751669986,665.3702125,1,1,1.354697834001854,0.18204829099704511,None,665.3704038750002,665.3704793750003,None,665.3705470839996,665.3705826250007,None,,,,,,,,,,,2,6,0,1,2025-01-28_13h21.14.475,rtmindeye,2024.2.3,None,2025-01-28 13h21.25.559797 -0500
all_stimuli/MST_pairs1/pair_48_w_runway2.jpg,64,0,64,64,0,,,,0,0,1,6,1,"[9, 21, 31, 45, 56, 68, 69]",2,0,1.4618307080017985,0.3140688339990447,None,None,None,,,,,,,,,,,1,0,1,0,0,64,64,64,665.4351864169948,,,,,,,,,,,,,,,,,,,,,,665.3709769999987,665.3711577089998,665.4314592499941,665.4351864169948,665.4351864169948,665.4351864169948,665.4351864169948,668.4331319589983,668.4331319589983,669.3831812089993,2,0,1.4618307080017985,0.3140688339990447,None,669.3833816249971,669.3834468749992,None,669.3835105839971,669.3835568,None,,,,,,,,,,,2,6,0,1,2025-01-28_13h21.14.475,rtmindeye,2024.2.3,None,2025-01-28 13h21.25.559797 -0500
all_stimuli/MST_pairs1/pair_40_w_escalator1.jpg,65,0,65,65,0,,,,0,0,1,6,1,"[9, 21, 31, 45, 56, 68, 69]",2,0,1.6597846669974388,0.31408483300037915,None,None,None,,,,,,,,,,,1,0,1,0,0,65,65,65,669.4401864999963,,,,,,,,,,,,,,,,,,,,,,669.3840489590002,669.3842200840008,669.4358471669984,669.4401864999963,669.4401864999963,669.4401864999963,669.4401864999963,672.4368714589946,672.4368714589946,673.3874258340002,2,0,1.6597846669974388,0.31408483300037915,None,673.3875940840007,673.3876459999956,None,673.3876933749998,673.3877285,None,,,,,,,,,,,2,6,0,1,2025-01-28_13h21.14.475,rtmindeye,2024.2.3,None,2025-01-28 13h21.25.559797 -0500
all_stimuli/special515/special_62228.jpg,66,0,66,66,0,,,,1,0,1,6,1,"[9, 21, 31, 45, 56, 68, 69]",2,1,1.514883457995893,0.2670023750033579,None,None,None,,,,,,,,,,,1,0,1,0,0,66,66,66,673.4421866249977,,,,,,,,,,,,,,,,,,,,,,673.3880955839995,673.3882616669944,673.4387204589948,673.4421866249977,673.4421866249977,673.4421866249977,673.4421866249977,676.4373712499946,676.4373712499946,677.4002187919978,2,1,1.514883457995893,0.2670023750033579,None,677.4005454590006,677.4007126249999,None,677.4008026,677.4008631249962,None,,,,,,,,,,,2,6,0,1,2025-01-28_13h21.14.475,rtmindeye,2024.2.3,None,2025-01-28 13h21.25.559797 -0500
all_stimuli/MST_pairs1/pair_26_nsd_483_2_cocoid_8054.png,67,0,67,67,0,,,,0,0,1,6,1,"[9, 21, 31, 45, 56, 68, 69]",2,0,2.099287083998206,0.3070179159985855,None,None,None,,,,,,,,,,,1,0,1,0,0,67,67,67,677.4617596249955,,,,,,,,,,,,,,,,,,,,,,677.4015114590002,677.4017711,677.4583673339948,677.4617596249955,677.4617596249955,677.4617596249955,677.4617596249955,680.4548839589988,680.4548839589988,681.4036955419942,2,0,2.099287083998206,0.3070179159985855,None,681.4038801669958,681.4039243339939,None,681.4039686249962,681.4039986249991,None,,,,,,,,,,,2,6,0,1,2025-01-28_13h21.14.475,rtmindeye,2024.2.3,None,2025-01-28 13h21.25.559797 -0500
blank.jpg,68,1,68,68,0,,,,0,0,1,6,1,"[9, 21, 31, 45, 56, 68, 69]",None,0,,,None,None,None,,,,,,,,,,,1,0,1,0,0,68,68,68,681.4464171250002,,,,,,,,,,,,,,,,,,,,,,681.4043245419962,681.4044568339959,681.4408142,681.4464171250002,681.4464171250002,681.4464171250002,681.4464171250002,684.4375779589973,684.4375779589973,685.4047719999944,None,0,,,None,685.4049038749945,685.4049427919963,None,685.4049823339956,685.4050127919982,None,,,,,,,,,,,2,6,0,1,2025-01-28_13h21.14.475,rtmindeye,2024.2.3,None,2025-01-28 13h21.25.559797 -0500
blank.jpg,69,1,69,69,0,,,,0,1,1,6,0,"[9, 21, 31, 45, 56, 68, 69]",None,0,,,None,1,equal,3.828101708997565,None,19.497116000005917,None,,,,,,,1,0,1,0,0,69,69,69,685.4353729169961,,,,,,,,,,,,,,,,,,,,,,685.4053380839978,685.4054789169968,685.4297777920001,685.4353729169961,685.4353729169961,685.4353729169961,685.4353729169961,688.4332063339971,688.4332063339971,689.415986,None,0,,,None,689.4251442499954,693.2696229,1,693.2698513,712.7860640419967,equal,689.4270404589988,689.4270404589988,3.828101708997565,None,693.2831479,693.2831479,19.497116000005917,None,,,2,6,0,1,2025-01-28_13h21.14.475,rtmindeye,2024.2.3,None,2025-01-28 13h21.25.559797 -0500
,,,1,0,1,,,,,,,,,,,,,,,,,,,,,,,,,,,1,0,1,0,,,,,,,,,,,,,,,,,,,,,,,,,,,,,,,,,,,,,,,,,,,,,,,,,,,,,,,,,,2,6,0,1,2025-01-28_13h21.14.475,rtmindeye,2024.2.3,None,2025-01-28 13h21.25.559797 -0500
all_stimuli/shared1000_notspecial/notspecial_19672.png,0,0,0,0,0,,,,0,0,2,6,1,"[9, 21, 31, 45, 56, 68, 69]",1,1,1.1208619160024682,0.24996391699824017,None,None,None,,,,,,,,,,,2,0,2,0,0,0,0,0,712.9763433339976,,,,,,,,,,,,,,,,,,,,,,712.8853922089984,712.8859249169982,712.9697422089957,712.9763433339976,712.9763433339976,712.9763433339976,712.9763433339976,715.9701877919942,715.9701877919942,716.8873634,1,1,1.1208619160024682,0.24996391699824017,None,716.8875500840004,716.8875962499951,None,716.8876499170001,716.8876823749961,None,,,,,,,,,,,2,6,0,1,2025-01-28_13h21.14.475,rtmindeye,2024.2.3,None,2025-01-28 13h21.25.559797 -0500
all_stimuli/special515/special_55526.jpg,1,0,1,1,0,,,,0,0,2,6,1,"[9, 21, 31, 45, 56, 68, 69]",2,0,1.2619505409966223,0.2640363340033218,None,None,None,,,,,,,,,,,2,0,2,0,0,1,1,1,716.9420033749993,,,,,,,,,,,,,,,,,,,,,,716.8881836669971,716.8883993749987,716.9366287919984,716.9420033749993,716.9420033749993,716.9420033749993,716.9420033749993,719.9380160000001,719.9380160000001,720.9001434169986,2,0,1.2619505409966223,0.2640363340033218,None,720.9003454999984,720.9003913339984,None,720.9004754589987,720.9005201249965,None,,,,,,,,,,,2,6,0,1,2025-01-28_13h21.14.475,rtmindeye,2024.2.3,None,2025-01-28 13h21.25.559797 -0500
all_stimuli/MST_pairs1/pair_22_nsd_115_1_cocoid_8171.png,2,0,2,2,0,,,,0,0,2,6,1,"[9, 21, 31, 45, 56, 68, 69]",2,0,0.9532846670044819,0.27100379100011196,None,None,None,,,,,,,,,,,2,0,2,0,0,2,2,2,720.9638138749942,,,,,,,,,,,,,,,,,,,,,,720.9009497089937,720.9011061249985,720.9605527919994,720.9638138749942,720.9638138749942,720.9638138749942,720.9638138749942,723.9537597499948,723.9537597499948,724.9179870000007,2,0,0.9532846670044819,0.27100379100011196,None,724.9181915419977,724.9182494999986,None,724.9183269169953,724.9183645,None,,,,,,,,,,,2,6,0,1,2025-01-28_13h21.14.475,rtmindeye,2024.2.3,None,2025-01-28 13h21.25.559797 -0500
all_stimuli/special515/special_13613.jpg,3,0,3,3,0,,,,1,0,2,6,1,"[9, 21, 31, 45, 56, 68, 69]",2,1,1.0015099579977687,0.23893941700225696,None,None,None,,,,,,,,,,,2,0,2,0,0,3,3,3,724.9796959,,,,,,,,,,,,,,,,,,,,,,724.9188324169954,724.9190558749979,724.9759299590005,724.9796959,724.9796959,724.9796959,724.9796959,727.9705364589972,727.9705364589972,728.9212137499999,2,1,1.0015099579977687,0.23893941700225696,None,728.9213661670001,728.9214091,None,728.9214511669998,728.9214817,None,,,,,,,,,,,2,6,0,1,2025-01-28_13h21.14.475,rtmindeye,2024.2.3,None,2025-01-28 13h21.25.559797 -0500
all_stimuli/shared1000_notspecial/notspecial_28487.png,4,0,4,4,0,,,,0,0,2,6,1,"[9, 21, 31, 45, 56, 68, 69]",1,1,1.6336249579981086,0.19694058400637005,None,None,None,,,,,,,,,,,2,0,2,0,0,4,4,4,729.0055602499997,,,,,,,,,,,,,,,,,,,,,,728.9219106249948,728.9221134999971,729.0019919589977,729.0055602499997,729.0055602499997,729.0055602499997,729.0055602499997,732.0035180839986,732.0035180839986,732.9335208,1,1,1.6336249579981086,0.19694058400637005,None,732.9337961249985,732.9338684589966,None,732.9340075419968,732.9341026249967,None,,,,,,,,,,,2,6,0,1,2025-01-28_13h21.14.475,rtmindeye,2024.2.3,None,2025-01-28 13h21.25.559797 -0500
all_stimuli/special515/special_28524.jpg,5,0,5,5,0,,,,1,0,2,6,1,"[9, 21, 31, 45, 56, 68, 69]",2,1,1.413873292,0.2588981659937417,None,None,None,,,,,,,,,,,2,0,2,0,0,5,5,5,732.9803396,,,,,,,,,,,,,,,,,,,,,,732.9346977499954,732.9349341249981,732.9763774999956,732.9803396,732.9803396,732.9803396,732.9803396,735.9700621,735.9700621,736.9368959999993,2,1,1.413873292,0.2588981659937417,None,736.9370884169984,736.9371660420002,None,736.9372497919976,736.9372909169979,None,,,,,,,,,,,2,6,0,1,2025-01-28_13h21.14.475,rtmindeye,2024.2.3,None,2025-01-28 13h21.25.559797 -0500
all_stimuli/MST_pairs1/pair_44_w_log_cabin1.jpg,6,0,6,6,0,,,,0,0,2,6,1,"[9, 21, 31, 45, 56, 68, 69]",2,0,1.2153410000028089,0.27202075000241166,None,None,None,,,,,,,,,,,2,0,2,0,0,6,6,6,736.9857620839975,,,,,,,,,,,,,,,,,,,,,,736.9377169169966,736.9379152919937,736.9820016249942,736.9857620839975,736.9857620839975,736.9857620839975,736.9857620839975,739.9832349589997,739.9832349589997,740.9501357089975,2,0,1.2153410000028089,0.27202075000241166,None,740.950353,740.9504089999973,None,740.9504886669965,740.9505474,None,,,,,,,,,,,2,6,0,1,2025-01-28_13h21.14.475,rtmindeye,2024.2.3,None,2025-01-28 13h21.25.559797 -0500
all_stimuli/special515/special_71241.jpg,7,0,7,7,0,,,,0,0,2,6,1,"[9, 21, 31, 45, 56, 68, 69]",2,0,1.4851755420022528,0.2600167499986128,None,None,None,,,,,,,,,,,2,0,2,0,0,7,7,7,741.0038792499981,,,,,,,,,,,,,,,,,,,,,,740.9510093339995,740.9511711249943,740.9992187089956,741.0038792499981,741.0038792499981,741.0038792499981,741.0038792499981,743.9998414589936,743.9998414589936,744.9513090420005,2,0,1.4851755420022528,0.2600167499986128,None,744.9515096670002,744.9515657919983,None,744.9516189169954,744.9516507499939,None,,,,,,,,,,,2,6,0,1,2025-01-28_13h21.14.475,rtmindeye,2024.2.3,None,2025-01-28 13h21.25.559797 -0500
all_stimuli/special515/special_68842.jpg,8,0,8,8,0,,,,0,0,2,6,1,"[9, 21, 31, 45, 56, 68, 69]",1,1,1.644881374995748,0.17904187500244007,None,None,None,,,,,,,,,,,2,0,2,0,0,8,8,8,745.0222640840002,,,,,,,,,,,,,,,,,,,,,,744.9520691,744.9523215839945,745.0183421249967,745.0222640840002,745.0222640840002,745.0222640840002,745.0222640840002,748.0199139999968,748.0199139999968,748.9542969999966,1,1,1.644881374995748,0.17904187500244007,None,748.9544833339969,748.9545337,None,748.9545869,748.9546250839994,None,,,,,,,,,,,2,6,0,1,2025-01-28_13h21.14.475,rtmindeye,2024.2.3,None,2025-01-28 13h21.25.559797 -0500
