current_image,trial_index,is_blank_trial,thisN,thisTrialN,thisRepN,press_if_repeat_2.keys,press_if_repeat_2.corr,press_if_repeat_2.rt,press_if_repeat_2.duration,all_keys_pressed_2.keys,is_repeat,is_new_run,run_num,sess_num,is_not_last_trial,all_blanks_list,press_if_repeat.keys,press_if_repeat.corr,press_if_repeat.rt,press_if_repeat.duration,all_keys_pressed.keys,key_resp_5.keys,key_resp_4.keys,key_resp_5.rt,key_resp_5.duration,key_resp_4.rt,key_resp_4.duration,all_keys_pressed.rt,all_keys_pressed.duration,practice.thisRepN,practice.thisTrialN,practice.thisN,practice.thisIndex,loop_runs.thisRepN,loop_runs.thisTrialN,loop_runs.thisN,loop_runs.thisIndex,loop_all_images.thisRepN,loop_all_images.thisTrialN,loop_all_images.thisN,loop_all_images.thisIndex,thisRow.t,notes,set_up.started,set_up.stopped,practice_continue.started,key_resp_6.started,text_6.started,practice_continue.stopped,key_resp_6.keys,key_resp_6.rt,key_resp_6.duration,practice_trial.started,image_2.started,press_if_repeat_2.started,polygon_3.started,all_keys_pressed_2.started,image_2.stopped,press_if_repeat_2.stopped,practice_trial.stopped,practice.press_if_repeat_2.keys,practice.press_if_repeat_2.corr,practice.press_if_repeat_2.rt,practice.press_if_repeat_2.duration,practice.all_keys_pressed_2.keys,testing_continue.started,key_resp_7.started,text_7.started,testing_continue.stopped,key_resp_7.keys,key_resp_7.rt,key_resp_7.duration,waiting_fmri.started,key_resp_2.started,text_3.started,waiting_fmri.stopped,key_resp_2.keys,key_resp_2.rt,key_resp_2.duration,set_skips_and_correct_key.started,set_skips_and_correct_key.stopped,trial.started,image.started,press_if_repeat.started,polygon.started,all_keys_pressed.started,image.stopped,press_if_repeat.stopped,trial.stopped,loop_all_images.press_if_repeat.keys,loop_all_images.press_if_repeat.corr,loop_all_images.press_if_repeat.rt,loop_all_images.press_if_repeat.duration,loop_all_images.all_keys_pressed.keys,run_wait2_2.started,run_wait2_2.stopped,loop_all_images.key_resp_5.keys,waiting_fmri_2.started,waiting_fmri_2.stopped,loop_all_images.key_resp_4.keys,polygon.stopped,all_keys_pressed.stopped,key_resp_5.started,text_5.started,loop_all_images.key_resp_5.rt,loop_all_images.key_resp_5.duration,key_resp_4.started,text_4.started,loop_all_images.key_resp_4.rt,loop_all_images.key_resp_4.duration,loop_all_images.all_keys_pressed.rt,loop_all_images.all_keys_pressed.duration,participant,session (1 2 or 3),starting_run,skip_practice,date,expName,psychopyVersion,frameRate,expStart
,,,,,,,,,,,,,,,,,,,,,,,,,,,,,,,,,,,,,,,,,,,,0.0015792,0.0016406,,,,,,,,,,,,,,,,,,,,,,,,,,,,,,,,,,,,,,,,,,,,,,,,,,,,,,,,,,,,,,,,,,,,5,2,0,0,2025-02-26_12h21.48.497,rtmindeye,2024.2.4,59.98620317994578,2025-02-26 12h36.41.522293 -0500
,,,,,,,,,,,,,,,,,,,,,,,,,,,,,,,,,,,,,,,,,,,,,,0.0061477,0.017480500042438507,0.017480500042438507,4.742689400096424,1,4.7128639000002295,None,,,,,,,,,,,,,,,,,,,,,,,,,,,,,,,,,,,,,,,,,,,,,,,,,,,,,,,,,,,,,5,2,0,0,2025-02-26_12h21.48.497,rtmindeye,2024.2.4,59.98620317994578,2025-02-26 12h36.41.522293 -0500
practice_images/w_kitchen2.jpg,0,0,0,0,0,1,0,2.1464051000075415,0.19475869997404516,None,,,,,,,,,,,,,,,,,,,,0,0,0,0,,,,,,,,,4.828949499991722,,,,,,,,,,,4.825401000096463,4.828949499991722,4.828949499991722,4.828949499991722,4.828949499991722,7.834270799998194,7.834270799998194,8.750849100062624,1,0,2.1464051000075415,0.19475869997404516,None,,,,,,,,,,,,,,,,,,,,,,,,,,,,,,,,,,,,,,,,,,,,,,,,5,2,0,0,2025-02-26_12h21.48.497,rtmindeye,2024.2.4,59.98620317994578,2025-02-26 12h36.41.522293 -0500
practice_images/w_boardwalk2.jpg,1,0,1,1,0,1,0,0.7394125999417156,0.1589967,None,,,,,,,,,,,,,,,,,,,,0,1,1,1,,,,,,,,,8.776808200054802,,,,,,,,,,,8.775212700013071,8.776808200054802,8.776808200054802,8.776808200054802,8.776808200054802,11.784145900048316,11.784145900048316,12.750590500072576,1,0,0.7394125999417156,0.1589967,None,,,,,,,,,,,,,,,,,,,,,,,,,,,,,,,,,,,,,,,,,,,,,,,,5,2,0,0,2025-02-26_12h21.48.497,rtmindeye,2024.2.4,59.98620317994578,2025-02-26 12h36.41.522293 -0500
practice_images/w_monument2.jpg,2,0,2,2,0,1,0,0.3455229001119733,0.31986499996855855,None,,,,,,,,,,,,,,,,,,,,0,2,2,2,,,,,,,,,12.768705800059251,,,,,,,,,,,12.767135000089183,12.768705800059251,12.768705800059251,12.768705800059251,12.768705800059251,15.783962800051086,15.783962800051086,16.75085760001093,1,0,0.3455229001119733,0.31986499996855855,None,,,,,,,,,,,,,,,,,,,,,,,,,,,,,,,,,,,,,,,,,,,,,,,,5,2,0,0,2025-02-26_12h21.48.497,rtmindeye,2024.2.4,59.98620317994578,2025-02-26 12h36.41.522293 -0500
practice_images/w_auditorium2.jpg,3,0,3,3,0,1,0,0.23966610000934452,0.18794510001316667,None,,,,,,,,,,,,,,,,,,,,0,3,3,3,,,,,,,,,16.777485400089063,,,,,,,,,,,16.77573490003124,16.777485400089063,16.777485400089063,16.777485400089063,16.777485400089063,19.784025500062853,19.784025500062853,20.75079469999764,1,0,0.23966610000934452,0.18794510001316667,None,,,,,,,,,,,,,,,,,,,,,,,,,,,,,,,,,,,,,,,,,,,,,,,,5,2,0,0,2025-02-26_12h21.48.497,rtmindeye,2024.2.4,59.98620317994578,2025-02-26 12h36.41.522293 -0500
practice_images/w_kitchen2.jpg,4,0,4,4,0,2,0,1.0691368,0.26308880001306534,None,,,,,,,,,,,,,,,,,,,,0,4,4,4,,,,,,,,,20.766996600083075,,,,,,,,,,,20.762958700070158,20.766996600083075,20.766996600083075,20.766996600083075,20.766996600083075,23.76731380005367,23.76731380005367,24.75095000001602,2,0,1.0691368,0.26308880001306534,None,,,,,,,,,,,,,,,,,,,,,,,,,,,,,,,,,,,,,,,,,,,,,,,,5,2,0,0,2025-02-26_12h21.48.497,rtmindeye,2024.2.4,59.98620317994578,2025-02-26 12h36.41.522293 -0500
practice_images/w_auditorium1.jpg,5,0,5,5,0,2,0,1.3084834999172017,0.23877970001194626,None,,,,,,,,,,,,,,,,,,,,0,5,5,5,,,,,,,,,24.789860300021246,,,,,,,,,,,24.788208000012673,24.789860300021246,24.789860300021246,24.789860300021246,24.789860300021246,27.800667500006966,27.800667500006966,28.7507097,2,0,1.3084834999172017,0.23877970001194626,None,,,,,,,,,,,,,,,,,,,,,,,,,,,,,,,,,,,,,,,,,,,,,,,,5,2,0,0,2025-02-26_12h21.48.497,rtmindeye,2024.2.4,59.98620317994578,2025-02-26 12h36.41.522293 -0500
practice_images/w_bedroom2.jpg,6,0,6,6,0,1,0,1.1583930000197142,0.5548898000270128,None,,,,,,,,,,,,,,,,,,,,0,6,6,6,,,,,,,,,28.766938399989158,,,,,,,,,,,28.764833600027487,28.766938399989158,28.766938399989158,28.766938399989158,28.766938399989158,31.767531200079247,31.767531200079247,32.75061750004534,1,0,1.1583930000197142,0.5548898000270128,None,,,,,,,,,,,,,,,,,,,,,,,,,,,,,,,,,,,,,,,,,,,,,,,,5,2,0,0,2025-02-26_12h21.48.497,rtmindeye,2024.2.4,59.98620317994578,2025-02-26 12h36.41.522293 -0500
practice_images/w_kitchen1.jpg,7,0,7,7,0,1,0,1.2432058999547735,0.1972533999942243,None,,,,,,,,,,,,,,,,,,,,0,7,7,7,,,,,,,,,32.78688230004627,,,,,,,,,,,32.78523849998601,32.78688230004627,32.78688230004627,32.78688230004627,32.78688230004627,35.800537100061774,35.800537100061774,36.7506233,1,0,1.2432058999547735,0.1972533999942243,None,,,,,,,,,,,,,,,,,,,,,,,,,,,,,,,,,,,,,,,,,,,,,,,,5,2,0,0,2025-02-26_12h21.48.497,rtmindeye,2024.2.4,59.98620317994578,2025-02-26 12h36.41.522293 -0500
practice_images/w_bedroom1.jpg,8,0,8,8,0,2,0,0.6832133999560028,0.24184330005664378,None,,,,,,,,,,,,,,,,,,,,0,8,8,8,,,,,,,,,36.77810039999895,,,,,,,,,,,36.77646090008784,36.77810039999895,36.77810039999895,36.77810039999895,36.77810039999895,39.78404290007893,39.78404290007893,40.75047520000953,2,0,0.6832133999560028,0.24184330005664378,None,,,,,,,,,,,,,,,,,,,,,,,,,,,,,,,,,,,,,,,,,,,,,,,,5,2,0,0,2025-02-26_12h21.48.497,rtmindeye,2024.2.4,59.98620317994578,2025-02-26 12h36.41.522293 -0500
practice_images/w_monument2.jpg,9,0,9,9,0,2,0,0.7371056999545544,0.20106840005610138,None,,,,,,,,,,,,,,,,,,,,0,9,9,9,,,,,,,,,40.76695289998315,,,,,,,,,,,40.76208250003401,40.76695289998315,40.76695289998315,40.76695289998315,40.76695289998315,43.76744660001714,43.76744660001714,44.750827400013804,2,0,0.7371056999545544,0.20106840005610138,None,,,,,,,,,,,,,,,,,,,,,,,,,,,,,,,,,,,,,,,,,,,,,,,,5,2,0,0,2025-02-26_12h21.48.497,rtmindeye,2024.2.4,59.98620317994578,2025-02-26 12h36.41.522293 -0500
,,,,,,,,,,,,,,,,,,,,,,,,,,,,,,,,,,,,,,,,,,,,,,,,,,,,,,,,,,,,,,,,,,44.80988280009478,44.81215190002695,44.81215190002695,53.20076020003762,1,8.385206799954176,None,,,,,,,,,,,,,,,,,,,,,,,,,,,,,,,,,,,,,,,,,5,2,0,0,2025-02-26_12h21.48.497,rtmindeye,2024.2.4,59.98620317994578,2025-02-26 12h36.41.522293 -0500
,,,,,,,,,,,,,,,,,,,,,,,,,,,,,,,,,,,,,,,,,,,,,,,,,,,,,,,,,,,,,,,,,,,,,,,,,53.20080210000742,53.21719340002164,53.21719340002164,187.15046859998256,equal,133.92085660004523,None,,,,,,,,,,,,,,,,,,,,,,,,,,,,,,,,,,5,2,0,0,2025-02-26_12h21.48.497,rtmindeye,2024.2.4,59.98620317994578,2025-02-26 12h36.41.522293 -0500
all_stimuli/shared1000_notspecial/notspecial_7659.png,0,0,0,0,0,,,,,,0,0,0,2,1,"[9, 21, 31, 45, 56, 68, 69]",1,1,0.7400074999313802,0.21193250000942498,None,None,None,,,,,,,,,,,0,0,0,0,0,0,0,0,187.20721510006115,,,,,,,,,,,,,,,,,,,,,,,,,,,,,,,,,,,,,,187.17176460009068,187.17186280002352,187.20472430007067,187.20721510006115,187.20721510006115,187.20721510006115,187.20721510006115,190.21676360000856,190.21676360000856,191.18345500004943,1,1,0.7400074999313802,0.21193250000942498,None,191.18352500000037,191.18354940006975,None,191.18357320001815,191.1835917000426,None,,,,,,,,,,,,,5,2,0,0,2025-02-26_12h21.48.497,rtmindeye,2024.2.4,59.98620317994578,2025-02-26 12h36.41.522293 -0500
all_stimuli/unchosen_nsd_1000_images/unchosen_1854_cocoid_5051.png,1,0,1,1,0,,,,,,0,0,0,2,1,"[9, 21, 31, 45, 56, 68, 69]",1,1,0.5089885999914259,0.18015070003457367,None,None,None,,,,,,,,,,,0,0,0,0,0,1,1,1,191.2220643,,,,,,,,,,,,,,,,,,,,,,,,,,,,,,,,,,,,,,191.18375510000624,191.1837983999867,191.2204672000371,191.2220643,191.2220643,191.2220643,191.2220643,194.23335390002467,194.23335390002467,195.20043960004114,1,1,0.5089885999914259,0.18015070003457367,None,195.20051100000273,195.2005323000485,None,195.20055680000223,195.20057490002364,None,,,,,,,,,,,,,5,2,0,0,2025-02-26_12h21.48.497,rtmindeye,2024.2.4,59.98620317994578,2025-02-26 12h36.41.522293 -0500
all_stimuli/unchosen_nsd_1000_images/unchosen_7984_cocoid_29511.png,2,0,2,2,0,,,,,,0,0,0,2,1,"[9, 21, 31, 45, 56, 68, 69]",1,1,0.5835918000666425,0.17378770001232624,None,None,None,,,,,,,,,,,0,0,0,0,0,2,2,2,195.23062470008153,,,,,,,,,,,,,,,,,,,,,,,,,,,,,,,,,,,,,,195.20073580008466,195.20077960006893,195.22900859999936,195.23062470008153,195.23062470008153,195.23062470008153,195.23062470008153,198.23330120008904,198.23330120008904,199.21698650007602,1,1,0.5835918000666425,0.17378770001232624,None,199.21705730003305,199.2170794000849,None,199.2171027000295,199.2171203000471,None,,,,,,,,,,,,,5,2,0,0,2025-02-26_12h21.48.497,rtmindeye,2024.2.4,59.98620317994578,2025-02-26 12h36.41.522293 -0500
all_stimuli/unchosen_nsd_1000_images/unchosen_6875_cocoid_25051.png,3,0,3,3,0,,,,,,0,0,0,2,1,"[9, 21, 31, 45, 56, 68, 69]",1,1,0.6435419999761507,0.19802449992857873,None,None,None,,,,,,,,,,,0,0,0,0,0,3,3,3,199.25466580002103,,,,,,,,,,,,,,,,,,,,,,,,,,,,,,,,,,,,,,199.21728219999932,199.21732589998282,199.25304089998826,199.25466580002103,199.25466580002103,199.25466580002103,199.25466580002103,202.26677980006207,202.26677980006207,203.23385620000772,1,1,0.6435419999761507,0.19802449992857873,None,203.23392700008117,203.23394800000824,None,203.2339722000761,203.2339903000975,None,,,,,,,,,,,,,5,2,0,0,2025-02-26_12h21.48.497,rtmindeye,2024.2.4,59.98620317994578,2025-02-26 12h36.41.522293 -0500
all_stimuli/shared1000_notspecial/notspecial_54743.png,4,0,4,4,0,,,,,,0,0,0,2,1,"[9, 21, 31, 45, 56, 68, 69]",1,1,0.5622960000764579,0.2059647999703884,None,None,None,,,,,,,,,,,0,0,0,0,0,4,4,4,203.26778580003884,,,,,,,,,,,,,,,,,,,,,,,,,,,,,,,,,,,,,,203.2341494000284,203.23419230000582,203.26617469999474,203.26778580003884,203.26778580003884,203.26778580003884,203.26778580003884,206.26663710002322,206.26663710002322,207.25055950006936,1,1,0.5622960000764579,0.2059647999703884,None,207.25063270004466,207.25065480009653,None,207.2506792000495,207.25069720007014,None,,,,,,,,,,,,,5,2,0,0,2025-02-26_12h21.48.497,rtmindeye,2024.2.4,59.98620317994578,2025-02-26 12h36.41.522293 -0500
all_stimuli/MST_pairs/pair_14_18_78.png,5,0,5,5,0,,,,,,0,0,0,2,1,"[9, 21, 31, 45, 56, 68, 69]",1,1,0.5251384,0.17688320006709546,None,None,None,,,,,,,,,,,0,0,0,0,0,5,5,5,207.31591240002308,,,,,,,,,,,,,,,,,,,,,,,,,,,,,,,,,,,,,,207.25086430006195,207.25090770004317,207.31235130003188,207.31591240002308,207.31591240002308,207.31591240002308,207.31591240002308,210.31678150000516,210.31678150000516,211.26693380007055,1,1,0.5251384,0.17688320006709546,None,211.26700470002834,211.26702640007716,None,211.26705070002936,211.26706890005153,None,,,,,,,,,,,,,5,2,0,0,2025-02-26_12h21.48.497,rtmindeye,2024.2.4,59.98620317994578,2025-02-26 12h36.41.522293 -0500
all_stimuli/special515/special_54078.jpg,6,0,6,6,0,,,,,,0,0,0,2,1,"[9, 21, 31, 45, 56, 68, 69]",1,1,0.6066617999458686,0.17590280005242676,None,None,None,,,,,,,,,,,0,0,0,0,0,6,6,6,211.30443950009067,,,,,,,,,,,,,,,,,,,,,,,,,,,,,,,,,,,,,,211.26722570008133,211.2672692000633,211.3025331000099,211.30443950009067,211.30443950009067,211.30443950009067,211.30443950009067,214.31690780003555,214.31690780003555,215.28371650003828,1,1,0.6066617999458686,0.17590280005242676,None,215.2837889000075,215.28381050005555,None,215.28383480000775,215.2838523000246,None,,,,,,,,,,,,,5,2,0,0,2025-02-26_12h21.48.497,rtmindeye,2024.2.4,59.98620317994578,2025-02-26 12h36.41.522293 -0500
all_stimuli/special515/special_27435.jpg,7,0,7,7,0,,,,,,0,0,0,2,1,"[9, 21, 31, 45, 56, 68, 69]",1,1,0.6852170000784099,0.1968925999244675,None,None,None,,,,,,,,,,,0,0,0,0,0,7,7,7,215.3188049000455,,,,,,,,,,,,,,,,,,,,,,,,,,,,,,,,,,,,,,215.2840145000955,215.2840575000737,215.31708400009666,215.3188049000455,215.3188049000455,215.3188049000455,215.3188049000455,218.33337990008295,218.33337990008295,219.3003125000978,1,1,0.6852170000784099,0.1968925999244675,None,219.3003841000609,219.3004069000017,None,219.30043240007944,219.30045079998672,None,,,,,,,,,,,,,5,2,0,0,2025-02-26_12h21.48.497,rtmindeye,2024.2.4,59.98620317994578,2025-02-26 12h36.41.522293 -0500
all_stimuli/unchosen_nsd_1000_images/unchosen_1550_cocoid_69759.png,8,0,8,8,0,,,,,,0,0,0,2,1,"[9, 21, 31, 45, 56, 68, 69]",1,1,0.6068652000976726,0.17705920001026243,None,None,None,,,,,,,,,,,0,0,0,0,0,8,8,8,219.37335030001123,,,,,,,,,,,,,,,,,,,,,,,,,,,,,,,,,,,,,,219.3006154000759,219.30065910005942,219.3700138,219.37335030001123,219.37335030001123,219.37335030001123,219.37335030001123,222.38326949998736,222.38326949998736,223.31688150006812,1,1,0.6068652000976726,0.17705920001026243,None,223.31695030000992,223.31697150005493,None,223.31699530000333,223.31701380002778,None,,,,,,,,,,,,,5,2,0,0,2025-02-26_12h21.48.497,rtmindeye,2024.2.4,59.98620317994578,2025-02-26 12h36.41.522293 -0500
blank.jpg,9,1,9,9,0,,,,,,0,0,0,2,1,"[9, 21, 31, 45, 56, 68, 69]",None,0,,,None,None,None,,,,,,,,,,,0,0,0,0,0,9,9,9,223.3510831000749,,,,,,,,,,,,,,,,,,,,,,,,,,,,,,,,,,,,,,223.3171713000629,223.31721490004566,223.34944440005347,223.3510831000749,223.3510831000749,223.3510831000749,223.3510831000749,226.3505028,226.3505028,227.33344479999505,None,0,,,None,227.33351050002966,227.33353220007848,None,227.33355600002687,227.3335735000437,None,,,,,,,,,,,,,5,2,0,0,2025-02-26_12h21.48.497,rtmindeye,2024.2.4,59.98620317994578,2025-02-26 12h36.41.522293 -0500
all_stimuli/special515/special_30672.jpg,10,0,10,10,0,,,,,,0,0,0,2,1,"[9, 21, 31, 45, 56, 68, 69]",1,1,0.6958324000006542,0.1820804999442771,None,None,None,,,,,,,,,,,0,0,0,0,0,10,10,10,227.3581067,,,,,,,,,,,,,,,,,,,,,,,,,,,,,,,,,,,,,,227.33372990007047,227.33377270004712,227.35620040004142,227.3581067,227.3581067,227.3581067,227.3581067,230.36703259998467,230.36703259998467,231.3503218999831,1,1,0.6958324000006542,0.1820804999442771,None,231.35039580008015,231.35041730001103,None,231.35044230008498,231.3504602999892,None,,,,,,,,,,,,,5,2,0,0,2025-02-26_12h21.48.497,rtmindeye,2024.2.4,59.98620317994578,2025-02-26 12h36.41.522293 -0500
all_stimuli/special515/special_21601.jpg,11,0,11,11,0,,,,,,0,0,0,2,1,"[9, 21, 31, 45, 56, 68, 69]",1,1,0.9176565000088885,0.1901450000004843,None,None,None,,,,,,,,,,,0,0,0,0,0,11,11,11,231.45236190001015,,,,,,,,,,,,,,,,,,,,,,,,,,,,,,,,,,,,,,231.3506257000845,231.35066970007028,231.44886970007792,231.45236190001015,231.45236190001015,231.45236190001015,231.45236190001015,234.4668724000221,234.4668724000221,235.36677469999995,1,1,0.9176565000088885,0.1901450000004843,None,235.36684790009167,235.3668695000233,None,235.3668936000904,235.36691149999388,None,,,,,,,,,,,,,5,2,0,0,2025-02-26_12h21.48.497,rtmindeye,2024.2.4,59.98620317994578,2025-02-26 12h36.41.522293 -0500
all_stimuli/special515/special_70075.jpg,12,0,12,12,0,,,,,,0,0,0,2,1,"[9, 21, 31, 45, 56, 68, 69]",1,1,0.9790818,0.14383519999682903,None,None,None,,,,,,,,,,,0,0,0,0,0,12,12,12,235.39300520007964,,,,,,,,,,,,,,,,,,,,,,,,,,,,,,,,,,,,,,235.3670787999872,235.36712270008866,235.39114770002197,235.39300520007964,235.39300520007964,235.39300520007964,235.39300520007964,238.40000820008572,238.40000820008572,239.3837222000584,1,1,0.9790818,0.14383519999682903,None,239.38379790005274,239.38381890009623,None,239.38384360005148,239.3838614000706,None,,,,,,,,,,,,,5,2,0,0,2025-02-26_12h21.48.497,rtmindeye,2024.2.4,59.98620317994578,2025-02-26 12h36.41.522293 -0500
all_stimuli/special515/special_23993.jpg,13,0,13,13,0,,,,,,0,0,0,2,1,"[9, 21, 31, 45, 56, 68, 69]",1,1,0.9649794000433758,0.17215030000079423,None,None,None,,,,,,,,,,,0,0,0,0,0,13,13,13,239.4109987000702,,,,,,,,,,,,,,,,,,,,,,,,,,,,,,,,,,,,,,239.3840254000388,239.38406910002232,239.40927930001635,239.4109987000702,239.4109987000702,239.4109987000702,239.4109987000702,242.41670040006284,242.41670040006284,243.4001733000623,1,1,0.9649794000433758,0.17215030000079423,None,243.4002452000277,243.40026590006892,None,243.40028980001807,243.40030740003567,None,,,,,,,,,,,,,5,2,0,0,2025-02-26_12h21.48.497,rtmindeye,2024.2.4,59.98620317994578,2025-02-26 12h36.41.522293 -0500
all_stimuli/special515/special_52554.jpg,14,0,14,14,0,,,,,,0,0,0,2,1,"[9, 21, 31, 45, 56, 68, 69]",1,1,0.7470899,0.1881490999367088,None,None,None,,,,,,,,,,,0,0,0,0,0,14,14,14,243.44693900004495,,,,,,,,,,,,,,,,,,,,,,,,,,,,,,,,,,,,,,243.40046780009288,243.40051489998586,243.4452132000588,243.44693900004495,243.44693900004495,243.44693900004495,243.44693900004495,246.45025250001345,246.45025250001345,247.41684289998375,1,1,0.7470899,0.1881490999367088,None,247.41691280005034,247.41693400009535,None,247.41695760004222,247.4169755000621,None,,,,,,,,,,,,,5,2,0,0,2025-02-26_12h21.48.497,rtmindeye,2024.2.4,59.98620317994578,2025-02-26 12h36.41.522293 -0500
all_stimuli/special515/special_9147.jpg,15,0,15,15,0,,,,,,0,0,0,2,1,"[9, 21, 31, 45, 56, 68, 69]",1,1,0.8139946999726817,0.13712289999239147,None,None,None,,,,,,,,,,,0,0,0,0,0,15,15,15,247.45506190008018,,,,,,,,,,,,,,,,,,,,,,,,,,,,,,,,,,,,,,247.4171305000782,247.41717380005866,247.45333010004833,247.45506190008018,247.45506190008018,247.45506190008018,247.45506190008018,250.4669097000733,250.4669097000733,251.43366069998592,1,1,0.8139946999726817,0.13712289999239147,None,251.4337353000883,251.43375740002375,None,251.4337828999851,251.43380110000726,None,,,,,,,,,,,,,5,2,0,0,2025-02-26_12h21.48.497,rtmindeye,2024.2.4,59.98620317994578,2025-02-26 12h36.41.522293 -0500
all_stimuli/special515/special_72015.jpg,16,0,16,16,0,,,,,,0,0,0,2,1,"[9, 21, 31, 45, 56, 68, 69]",1,1,0.7987179999472573,0.23996330006048083,None,None,None,,,,,,,,,,,0,0,0,0,0,16,16,16,251.45948409999255,,,,,,,,,,,,,,,,,,,,,,,,,,,,,,,,,,,,,,251.43397080001887,251.4340147000039,251.4577852000948,251.45948409999255,251.45948409999255,251.45948409999255,251.45948409999255,254.4668393000029,254.4668393000029,255.45019560004584,1,1,0.7987179999472573,0.23996330006048083,None,255.45027030003257,255.4502920000814,None,255.45031750004273,255.4503357000649,None,,,,,,,,,,,,,5,2,0,0,2025-02-26_12h21.48.497,rtmindeye,2024.2.4,59.98620317994578,2025-02-26 12h36.41.522293 -0500
all_stimuli/MST_pairs/pair_2_4_22.png,17,0,17,17,0,,,,,,0,0,0,2,1,"[9, 21, 31, 45, 56, 68, 69]",1,1,0.8567407000809908,0.15917929995339364,None,None,None,,,,,,,,,,,0,0,0,0,0,17,17,17,255.78015840006992,,,,,,,,,,,,,,,,,,,,,,,,,,,,,,,,,,,,,,255.4505015000468,255.45054700004403,255.7761574999895,255.78015840006992,255.78015840006992,255.78015840006992,255.78015840006992,258.7835653000511,258.7835653000511,259.4669164000079,1,1,0.8567407000809908,0.15917929995339364,None,259.46698740008287,259.4670091000153,None,259.4670331000816,259.46705109998584,None,,,,,,,,,,,,,5,2,0,0,2025-02-26_12h21.48.497,rtmindeye,2024.2.4,59.98620317994578,2025-02-26 12h36.41.522293 -0500
all_stimuli/special515/special_34829.jpg,18,0,18,18,0,,,,,,0,0,0,2,1,"[9, 21, 31, 45, 56, 68, 69]",1,1,0.6951267999829724,0.15927419997751713,None,None,None,,,,,,,,,,,0,0,0,0,0,18,18,18,259.5057986,,,,,,,,,,,,,,,,,,,,,,,,,,,,,,,,,,,,,,259.46721230004914,259.46725910005625,259.50390230002813,259.5057986,259.5057986,259.5057986,259.5057986,262.5167953000637,262.5167953000637,263.48355830006767,1,1,0.6951267999829724,0.15927419997751713,None,263.4836320000468,263.48365409998223,None,263.48367810004856,263.48369570006616,None,,,,,,,,,,,,,5,2,0,0,2025-02-26_12h21.48.497,rtmindeye,2024.2.4,59.98620317994578,2025-02-26 12h36.41.522293 -0500
all_stimuli/special515/special_55163.jpg,19,0,19,19,0,,,,,,0,0,0,2,1,"[9, 21, 31, 45, 56, 68, 69]",1,1,0.9299223000416532,0.14699149993248284,None,None,None,,,,,,,,,,,0,0,0,0,0,19,19,19,263.69208890001755,,,,,,,,,,,,,,,,,,,,,,,,,,,,,,,,,,,,,,263.4838614000473,263.4839044000255,263.68809680000413,263.69208890001755,263.69208890001755,263.69208890001755,263.69208890001755,266.6997725000838,266.6997725000838,267.50030980003066,1,1,0.9299223000416532,0.14699149993248284,None,267.5003818999976,267.5004037000472,None,267.5004279999994,267.5004456,None,,,,,,,,,,,,,5,2,0,0,2025-02-26_12h21.48.497,rtmindeye,2024.2.4,59.98620317994578,2025-02-26 12h36.41.522293 -0500
all_stimuli/special515/special_28751.jpg,20,0,20,20,0,,,,,,0,0,0,2,1,"[9, 21, 31, 45, 56, 68, 69]",1,1,0.6944381999783218,0.156847,None,None,None,,,,,,,,,,,0,0,0,0,0,20,20,20,267.5377324000001,,,,,,,,,,,,,,,,,,,,,,,,,,,,,,,,,,,,,,267.5006217000773,267.5006650000578,267.5358579000458,267.5377324000001,267.5377324000001,267.5377324000001,267.5377324000001,270.5501086000586,270.5501086000586,271.51694280002266,1,1,0.6944381999783218,0.156847,None,271.51701579999644,271.51703780004755,None,271.51706159999594,271.5170793000143,None,,,,,,,,,,,,,5,2,0,0,2025-02-26_12h21.48.497,rtmindeye,2024.2.4,59.98620317994578,2025-02-26 12h36.41.522293 -0500
blank.jpg,21,1,21,21,0,,,,,,0,0,0,2,1,"[9, 21, 31, 45, 56, 68, 69]",None,0,,,None,None,None,,,,,,,,,,,0,0,0,0,0,21,21,21,271.5332696000114,,,,,,,,,,,,,,,,,,,,,,,,,,,,,,,,,,,,,,271.5172361000441,271.51728000002913,271.52688980009407,271.5332696000114,271.5332696000114,271.5332696000114,271.5332696000114,274.5334737000521,274.5334737000521,275.5168214000296,None,0,,,None,275.51688120001927,275.5169021,None,275.51692550000735,275.5169429000234,None,275.5513047000859,275.5513047000859,,,,,,,,,,,5,2,0,0,2025-02-26_12h21.48.497,rtmindeye,2024.2.4,59.98620317994578,2025-02-26 12h36.41.522293 -0500
all_stimuli/special515/special_65267.jpg,22,0,22,22,0,,,,,,0,0,0,2,1,"[9, 21, 31, 45, 56, 68, 69]",1,1,0.5825871999841183,0.2131617000559345,None,None,None,,,,,,,,,,,0,0,0,0,0,22,22,22,275.5513047000859,,,,,,,,,,,,,,,,,,,,,,,,,,,,,,,,,,,,,,275.5170935,275.5171345000854,275.5495326000964,275.5513047000859,275.5513047000859,275.5513047000859,275.5513047000859,278.56668170006014,278.56668170006014,279.53342320001684,1,1,0.5825871999841183,0.2131617000559345,None,279.5334970999975,279.5335193000501,None,279.5335439000046,279.5335622000275,None,,,,,,,,,,,,,5,2,0,0,2025-02-26_12h21.48.497,rtmindeye,2024.2.4,59.98620317994578,2025-02-26 12h36.41.522293 -0500
all_stimuli/shared1000_notspecial/notspecial_17450.png,23,0,23,23,0,,,,,,0,0,0,2,1,"[9, 21, 31, 45, 56, 68, 69]",1,1,0.6620858000824228,0.14321249991189688,None,None,None,,,,,,,,,,,0,0,0,0,0,23,23,23,279.57180320005864,,,,,,,,,,,,,,,,,,,,,,,,,,,,,,,,,,,,,,279.53372740000486,279.5337709999876,279.57013080001343,279.57180320005864,279.57180320005864,279.57180320005864,279.57180320005864,282.58338150009513,282.58338150009513,283.55020160006825,1,1,0.6620858000824228,0.14321249991189688,None,283.5502721,283.55029350006953,None,283.55031780002173,283.55033610004466,None,,,,,,,,,,,,,5,2,0,0,2025-02-26_12h21.48.497,rtmindeye,2024.2.4,59.98620317994578,2025-02-26 12h36.41.522293 -0500
all_stimuli/MST_pairs/pair_10_14_89.png,24,0,24,24,0,,,,,,0,0,0,2,1,"[9, 21, 31, 45, 56, 68, 69]",1,1,0.6785667999647558,0.17719099996611476,None,None,None,,,,,,,,,,,0,0,0,0,0,24,24,24,283.5883832999971,,,,,,,,,,,,,,,,,,,,,,,,,,,,,,,,,,,,,,283.5504960999824,283.5505396000808,283.58656890003476,283.5883832999971,283.5883832999971,283.5883832999971,283.5883832999971,286.6001269000117,286.6001269000117,287.56683690007776,1,1,0.6785667999647558,0.17719099996611476,None,287.56691010005306,287.5669321999885,None,287.56695700006094,287.56697510008235,None,,,,,,,,,,,,,5,2,0,0,2025-02-26_12h21.48.497,rtmindeye,2024.2.4,59.98620317994578,2025-02-26 12h36.41.522293 -0500
all_stimuli/special515/special_29711.jpg,25,0,25,25,0,,,,,,0,0,0,2,1,"[9, 21, 31, 45, 56, 68, 69]",1,1,0.7615927999140695,0.15715670003555715,None,None,None,,,,,,,,,,,0,0,0,0,0,25,25,25,287.5903737,,,,,,,,,,,,,,,,,,,,,,,,,,,,,,,,,,,,,,287.5671371000353,287.5671899000881,287.58862920000684,287.5903737,287.5903737,287.5903737,287.5903737,290.5995675000595,290.5995675000595,291.5832146999892,1,1,0.7615927999140695,0.15715670003555715,None,291.5832879000809,291.58330920001026,None,291.5833337000804,291.58335169998463,None,,,,,,,,,,,,,5,2,0,0,2025-02-26_12h21.48.497,rtmindeye,2024.2.4,59.98620317994578,2025-02-26 12h36.41.522293 -0500
all_stimuli/special515/special_66278.jpg,26,0,26,26,0,,,,,,0,0,0,2,1,"[9, 21, 31, 45, 56, 68, 69]",1,1,0.6888901999918744,0.1748121000127867,None,None,None,,,,,,,,,,,0,0,0,0,0,26,26,26,291.62011950009037,,,,,,,,,,,,,,,,,,,,,,,,,,,,,,,,,,,,,,291.5835156000685,291.5835588000482,291.61826260003727,291.62011950009037,291.62011950009037,291.62011950009037,291.62011950009037,294.6334075999912,294.6334075999912,295.59998440009076,1,1,0.6888901999918744,0.1748121000127867,None,295.60005760006607,295.60007939999923,None,295.60010390006937,295.60012180008925,None,,,,,,,,,,,,,5,2,0,0,2025-02-26_12h21.48.497,rtmindeye,2024.2.4,59.98620317994578,2025-02-26 12h36.41.522293 -0500
all_stimuli/special515/special_65445.jpg,27,0,27,27,0,,,,,,0,0,0,2,1,"[9, 21, 31, 45, 56, 68, 69]",1,1,0.7424165999982506,0.17210379999596626,None,None,None,,,,,,,,,,,0,0,0,0,0,27,27,27,295.6636416000547,,,,,,,,,,,,,,,,,,,,,,,,,,,,,,,,,,,,,,295.6002875000704,295.60033110005315,295.65968290006276,295.6636416000547,295.6636416000547,295.6636416000547,295.6636416000547,298.66675730003044,298.66675730003044,299.6167576999869,1,1,0.7424165999982506,0.17210379999596626,None,299.6168312000809,299.6168532000156,None,299.6168784000911,299.61689659999683,None,,,,,,,,,,,,,5,2,0,0,2025-02-26_12h21.48.497,rtmindeye,2024.2.4,59.98620317994578,2025-02-26 12h36.41.522293 -0500
all_stimuli/special515/special_8509.jpg,28,0,28,28,0,,,,,,0,0,0,2,1,"[9, 21, 31, 45, 56, 68, 69]",1,1,0.7513562000822276,0.15695989993400872,None,None,None,,,,,,,,,,,0,0,0,0,0,28,28,28,299.6387832000619,,,,,,,,,,,,,,,,,,,,,,,,,,,,,,,,,,,,,,299.61706369998865,299.6171073000878,299.6368548000464,299.6387832000619,299.6387832000619,299.6387832000619,299.6387832000619,302.64977320004255,302.64977320004255,303.6335481000133,1,1,0.7513562000822276,0.15695989993400872,None,303.6336200000951,303.63364160002675,None,303.6336663,303.6336842000019,None,,,,,,,,,,,,,5,2,0,0,2025-02-26_12h21.48.497,rtmindeye,2024.2.4,59.98620317994578,2025-02-26 12h36.41.522293 -0500
all_stimuli/MST_pairs/pair_8_12_56.png,29,0,29,29,0,,,,,,0,0,0,2,1,"[9, 21, 31, 45, 56, 68, 69]",1,1,0.7820324999047443,0.1969596000853926,None,None,None,,,,,,,,,,,0,0,0,0,0,29,29,29,303.6539481000509,,,,,,,,,,,,,,,,,,,,,,,,,,,,,,,,,,,,,,303.63384570006747,303.6338894,303.6523122000508,303.6539481000509,303.6539481000509,303.6539481000509,303.6539481000509,306.66678140009753,306.66678140009753,307.65049660007935,1,1,0.7820324999047443,0.1969596000853926,None,307.6505653000204,307.6505868000677,None,307.6506118000252,307.65062960004434,None,,,,,,,,,,,,,5,2,0,0,2025-02-26_12h21.48.497,rtmindeye,2024.2.4,59.98620317994578,2025-02-26 12h36.41.522293 -0500
all_stimuli/shared1000_notspecial/notspecial_20702.png,30,0,30,30,0,,,,,,0,0,0,2,1,"[9, 21, 31, 45, 56, 68, 69]",1,1,0.9661841000197455,0.13768269994761795,None,None,None,,,,,,,,,,,0,0,0,0,0,30,30,30,307.6921180000063,,,,,,,,,,,,,,,,,,,,,,,,,,,,,,,,,,,,,,307.65078840008937,307.65083220007364,307.69047939998563,307.6921180000063,307.6921180000063,307.6921180000063,307.6921180000063,310.69984990009107,310.69984990009107,311.6668132999912,1,1,0.9661841000197455,0.13768269994761795,None,311.6668824000517,311.66690419998486,None,311.6669292000588,311.6669470000779,None,,,,,,,,,,,,,5,2,0,0,2025-02-26_12h21.48.497,rtmindeye,2024.2.4,59.98620317994578,2025-02-26 12h36.41.522293 -0500
blank.jpg,31,1,31,31,0,,,,,,0,0,0,2,1,"[9, 21, 31, 45, 56, 68, 69]",None,0,,,None,None,None,,,,,,,,,,,0,0,0,0,0,31,31,31,311.68364900001325,,,,,,,,,,,,,,,,,,,,,,,,,,,,,,,,,,,,,,311.66710369999055,311.6671915,311.6751127000898,311.68364900001325,311.68364900001325,311.68364900001325,311.68364900001325,314.68338509998284,314.68338509998284,315.6669947000919,None,0,,,None,315.6670542000793,315.66707470000256,None,315.6670989000704,315.66711620008573,None,315.6989668000024,315.6989668000024,,,,,,,,,,,5,2,0,0,2025-02-26_12h21.48.497,rtmindeye,2024.2.4,59.98620317994578,2025-02-26 12h36.41.522293 -0500
all_stimuli/MST_pairs/pair_40_w_escalator2.jpg,32,0,32,32,0,,,,,,0,0,0,2,1,"[9, 21, 31, 45, 56, 68, 69]",1,1,0.6811702999984846,0.2128545999294147,None,None,None,,,,,,,,,,,0,0,0,0,0,32,32,32,315.6989668000024,,,,,,,,,,,,,,,,,,,,,,,,,,,,,,,,,,,,,,315.6672682,315.66731,315.69715040002484,315.6989668000024,315.6989668000024,315.6989668000024,315.6989668000024,318.7000597000588,318.7000597000588,319.6834323,1,1,0.6811702999984846,0.2128545999294147,None,319.68350520008244,319.6835267000133,None,319.6835514,319.6835691999877,None,,,,,,,,,,,,,5,2,0,0,2025-02-26_12h21.48.497,rtmindeye,2024.2.4,59.98620317994578,2025-02-26 12h36.41.522293 -0500
all_stimuli/special515/special_46372.jpg,33,0,33,33,0,,,,,,0,0,0,2,1,"[9, 21, 31, 45, 56, 68, 69]",1,1,0.6880850000306964,0.1891104,None,None,None,,,,,,,,,,,0,0,0,0,0,33,33,33,319.75292890006676,,,,,,,,,,,,,,,,,,,,,,,,,,,,,,,,,,,,,,319.6837314000586,319.68377550004516,319.74914090009406,319.75292890006676,319.75292890006676,319.75292890006676,319.75292890006676,322.76667400007136,322.76667400007136,323.6999877000926,1,1,0.6880850000306964,0.1891104,None,323.70005900005344,323.7000810999889,None,323.7001052,323.70012320007663,None,,,,,,,,,,,,,5,2,0,0,2025-02-26_12h21.48.497,rtmindeye,2024.2.4,59.98620317994578,2025-02-26 12h36.41.522293 -0500
all_stimuli/special515/special_59994.jpg,34,0,34,34,0,,,,,,0,0,0,2,1,"[9, 21, 31, 45, 56, 68, 69]",1,1,0.8103553999681026,0.17218729993328452,None,None,None,,,,,,,,,,,0,0,0,0,0,34,34,34,323.72262250003405,,,,,,,,,,,,,,,,,,,,,,,,,,,,,,,,,,,,,,323.70027810009196,323.70032130007166,323.7207450000569,323.72262250003405,323.72262250003405,323.72262250003405,323.72262250003405,326.7330124999862,326.7330124999862,327.71666070003994,1,1,0.8103553999681026,0.17218729993328452,None,327.71673390001524,327.71675750007853,None,327.7167824000353,327.7168008,None,,,,,,,,,,,,,5,2,0,0,2025-02-26_12h21.48.497,rtmindeye,2024.2.4,59.98620317994578,2025-02-26 12h36.41.522293 -0500
all_stimuli/shared1000_notspecial/notspecial_23883.png,35,0,35,35,0,,,,,,0,0,0,2,1,"[9, 21, 31, 45, 56, 68, 69]",1,1,0.7317919000051916,0.17892069998197258,None,None,None,,,,,,,,,,,0,0,0,0,0,35,35,35,327.74640900001395,,,,,,,,,,,,,,,,,,,,,,,,,,,,,,,,,,,,,,327.71696049999446,327.71700380009133,327.74479410005733,327.74640900001395,327.74640900001395,327.74640900001395,327.74640900001395,330.74973989999853,330.74973989999853,331.73347740003373,1,1,0.7317919000051916,0.17892069998197258,None,331.7335485999938,331.73357020004187,None,331.7335941999918,331.7336120000109,None,,,,,,,,,,,,,5,2,0,0,2025-02-26_12h21.48.497,rtmindeye,2024.2.4,59.98620317994578,2025-02-26 12h36.41.522293 -0500
all_stimuli/unchosen_nsd_1000_images/unchosen_2293_cocoid_71764.png,36,0,36,36,0,,,,,,0,0,0,2,1,"[9, 21, 31, 45, 56, 68, 69]",1,1,0.9458792000077665,0.18403620005119592,None,None,None,,,,,,,,,,,0,0,0,0,0,36,36,36,331.7709377000574,,,,,,,,,,,,,,,,,,,,,,,,,,,,,,,,,,,,,,331.7337778999936,331.7338214,331.76919350004755,331.7709377000574,331.7709377000574,331.7709377000574,331.7709377000574,334.7832530000014,334.7832530000014,335.74991160002537,1,1,0.9458792000077665,0.18403620005119592,None,335.74998070008587,335.75000270002056,None,335.75002680008765,335.75004459999036,None,,,,,,,,,,,,,5,2,0,0,2025-02-26_12h21.48.497,rtmindeye,2024.2.4,59.98620317994578,2025-02-26 12h36.41.522293 -0500
all_stimuli/special515/special_27242.jpg,37,0,37,37,0,,,,,,0,0,0,2,1,"[9, 21, 31, 45, 56, 68, 69]",1,1,0.6135990000329912,0.1940076999599114,None,None,None,,,,,,,,,,,0,0,0,0,0,37,37,37,335.7783538000658,,,,,,,,,,,,,,,,,,,,,,,,,,,,,,,,,,,,,,335.75019990000874,335.7502433999907,335.77646760002244,335.7783538000658,335.7783538000658,335.7783538000658,335.7783538000658,338.78332540008705,338.78332540008705,339.76673250005115,1,1,0.6135990000329912,0.1940076999599114,None,339.7668046000181,339.76682590006385,None,339.7668498,339.76686730002984,None,,,,,,,,,,,,,5,2,0,0,2025-02-26_12h21.48.497,rtmindeye,2024.2.4,59.98620317994578,2025-02-26 12h36.41.522293 -0500
all_stimuli/special515/special_36623.jpg,38,0,38,38,0,,,,,,0,0,0,2,1,"[9, 21, 31, 45, 56, 68, 69]",1,1,0.6959443000378087,0.17312619998119771,None,None,None,,,,,,,,,,,0,0,0,0,0,38,38,38,339.8070037,,,,,,,,,,,,,,,,,,,,,,,,,,,,,,,,,,,,,,339.7670289000962,339.76707250007894,339.80513730004895,339.8070037,339.8070037,339.8070037,339.8070037,342.8167563000461,342.8167563000461,343.78337710001506,1,1,0.6959443000378087,0.17312619998119771,None,343.78344929998275,343.7834707000293,None,343.78349509998225,343.78351290000137,None,,,,,,,,,,,,,5,2,0,0,2025-02-26_12h21.48.497,rtmindeye,2024.2.4,59.98620317994578,2025-02-26 12h36.41.522293 -0500
all_stimuli/special515/special_56948.jpg,39,0,39,39,0,,,,,,0,0,0,2,1,"[9, 21, 31, 45, 56, 68, 69]",1,1,0.9483962000813335,0.17606829991564155,None,None,None,,,,,,,,,,,0,0,0,0,0,39,39,39,343.8146034000674,,,,,,,,,,,,,,,,,,,,,,,,,,,,,,,,,,,,,,343.7836704000365,343.78371350001544,343.81285250000656,343.8146034000674,343.8146034000674,343.8146034000674,343.8146034000674,346.8164097000845,346.8164097000845,347.7998951000627,1,1,0.9483962000813335,0.17606829991564155,None,347.79996850003954,347.7999896000838,None,347.8000129000284,347.80003080004826,None,,,,,,,,,,,,,5,2,0,0,2025-02-26_12h21.48.497,rtmindeye,2024.2.4,59.98620317994578,2025-02-26 12h36.41.522293 -0500
all_stimuli/special515/special_44720.jpg,40,0,40,40,0,,,,,,0,0,0,2,1,"[9, 21, 31, 45, 56, 68, 69]",1,1,0.9061698999721557,0.1980754000833258,None,None,None,,,,,,,,,,,0,0,0,0,0,40,40,40,347.8228263000492,,,,,,,,,,,,,,,,,,,,,,,,,,,,,,,,,,,,,,347.8001864000689,347.80022980005015,347.8209777000593,347.8228263000492,347.8228263000492,347.8228263000492,347.8228263000492,350.83332940004766,350.83332940004766,351.81655590003356,1,1,0.9061698999721557,0.1980754000833258,None,351.8166276999982,351.8166492000455,None,351.81667490000837,351.8166929,None,,,,,,,,,,,,,5,2,0,0,2025-02-26_12h21.48.497,rtmindeye,2024.2.4,59.98620317994578,2025-02-26 12h36.41.522293 -0500
all_stimuli/special515/special_39289.jpg,41,0,41,41,0,,,,,,0,0,0,2,1,"[9, 21, 31, 45, 56, 68, 69]",1,1,0.6834919999819249,0.20298659999389201,None,None,None,,,,,,,,,,,0,0,0,0,0,41,41,41,351.8436150000198,,,,,,,,,,,,,,,,,,,,,,,,,,,,,,,,,,,,,,351.81685250008013,351.81689560005907,351.8418779,351.8436150000198,351.8436150000198,351.8436150000198,351.8436150000198,354.8496472000843,354.8496472000843,355.8334462000057,1,1,0.6834919999819249,0.20298659999389201,None,355.8335189000936,355.83354030002374,None,355.8335653000977,355.8335834000027,None,,,,,,,,,,,,,5,2,0,0,2025-02-26_12h21.48.497,rtmindeye,2024.2.4,59.98620317994578,2025-02-26 12h36.41.522293 -0500
all_stimuli/shared1000_notspecial/notspecial_54812.png,42,0,42,42,0,,,,,,0,0,0,2,1,"[9, 21, 31, 45, 56, 68, 69]",1,1,0.8080594000639394,0.21387760003563017,None,None,None,,,,,,,,,,,0,0,0,0,0,42,42,42,355.8890258000465,,,,,,,,,,,,,,,,,,,,,,,,,,,,,,,,,,,,,,355.8337487000972,355.8337932000868,355.8873910000548,355.8890258000465,355.8890258000465,355.8890258000465,355.8890258000465,358.8996299999999,358.8996299999999,359.8499271000037,1,1,0.8080594000639394,0.21387760003563017,None,359.8499996000901,359.8500215,None,359.8500454000896,359.8500631999923,None,,,,,,,,,,,,,5,2,0,0,2025-02-26_12h21.48.497,rtmindeye,2024.2.4,59.98620317994578,2025-02-26 12h36.41.522293 -0500
all_stimuli/special515/special_36910.jpg,43,0,43,43,0,,,,,,0,0,0,2,1,"[9, 21, 31, 45, 56, 68, 69]",1,1,0.6011392,0.2648614998906851,None,None,None,,,,,,,,,,,0,0,0,0,0,43,43,43,359.88483019999694,,,,,,,,,,,,,,,,,,,,,,,,,,,,,,,,,,,,,,359.8502200000221,359.8502635000041,359.8831319999881,359.88483019999694,359.88483019999694,359.88483019999694,359.88483019999694,362.8993935000617,362.8993935000617,363.8662312000524,1,1,0.6011392,0.2648614998906851,None,363.86630300001707,363.86632660008036,None,363.8663505000295,363.8663687000517,None,,,,,,,,,,,,,5,2,0,0,2025-02-26_12h21.48.497,rtmindeye,2024.2.4,59.98620317994578,2025-02-26 12h36.41.522293 -0500
all_stimuli/special515/special_62006.jpg,44,0,44,44,0,,,,,,0,0,0,2,1,"[9, 21, 31, 45, 56, 68, 69]",1,1,0.7280587999848649,0.34417719999328256,None,None,None,,,,,,,,,,,0,0,0,0,0,44,44,44,363.89289600006305,,,,,,,,,,,,,,,,,,,,,,,,,,,,,,,,,,,,,,363.8665358000435,363.8665790000232,363.8910107000265,363.89289600006305,363.89289600006305,363.89289600006305,363.89289600006305,366.89963760005776,366.89963760005776,367.8668005,1,1,0.7280587999848649,0.34417719999328256,None,367.8668716000393,367.86689320008736,None,367.86691670003347,367.86693440005183,None,,,,,,,,,,,,,5,2,0,0,2025-02-26_12h21.48.497,rtmindeye,2024.2.4,59.98620317994578,2025-02-26 12h36.41.522293 -0500
blank.jpg,45,1,45,45,0,,,,,,0,0,0,2,1,"[9, 21, 31, 45, 56, 68, 69]",None,0,,,None,None,None,,,,,,,,,,,0,0,0,0,0,45,45,45,367.88335880008526,,,,,,,,,,,,,,,,,,,,,,,,,,,,,,,,,,,,,,367.8670926000923,367.86713979998603,367.8755807999987,367.88335880008526,367.88335880008526,367.88335880008526,367.88335880008526,370.88322690001223,370.88322690001223,371.8664987999946,None,0,,,None,371.8665572,371.86657760001253,None,371.86674810003024,371.8667668000562,None,371.89252320001833,371.89252320001833,,,,,,,,,,,5,2,0,0,2025-02-26_12h21.48.497,rtmindeye,2024.2.4,59.98620317994578,2025-02-26 12h36.41.522293 -0500
all_stimuli/shared1000_notspecial/notspecial_41482.png,46,0,46,46,0,,,,,,0,0,0,2,1,"[9, 21, 31, 45, 56, 68, 69]",1,1,0.7665955999400467,0.13286220002919436,None,None,None,,,,,,,,,,,0,0,0,0,0,46,46,46,371.89252320001833,,,,,,,,,,,,,,,,,,,,,,,,,,,,,,,,,,,,,,371.8669177000411,371.8669572999934,371.8909137999872,371.89252320001833,371.89252320001833,371.89252320001833,371.89252320001833,374.89977160003036,374.89977160003036,375.8833892000839,1,1,0.7665955999400467,0.13286220002919436,None,375.8834604,375.88348200009204,None,375.88350600004196,375.8835238000611,None,,,,,,,,,,,,,5,2,0,0,2025-02-26_12h21.48.497,rtmindeye,2024.2.4,59.98620317994578,2025-02-26 12h36.41.522293 -0500
all_stimuli/special515/special_60505.jpg,47,0,47,47,0,,,,,,0,0,0,2,1,"[9, 21, 31, 45, 56, 68, 69]",1,1,0.7011218999978155,0.1830439999466762,None,None,None,,,,,,,,,,,0,0,0,0,0,47,47,47,375.9128260000143,,,,,,,,,,,,,,,,,,,,,,,,,,,,,,,,,,,,,,375.8836827999912,375.8837266000919,375.91092380008195,375.9128260000143,375.9128260000143,375.9128260000143,375.9128260000143,378.91653120005503,378.91653120005503,379.8998778000241,1,1,0.7011218999978155,0.1830439999466762,None,379.89994989999104,379.89997140003834,None,379.89999489998445,379.9000131000066,None,,,,,,,,,,,,,5,2,0,0,2025-02-26_12h21.48.497,rtmindeye,2024.2.4,59.98620317994578,2025-02-26 12h36.41.522293 -0500
all_stimuli/unchosen_nsd_1000_images/unchosen_1761_cocoid_70347.png,48,0,48,48,0,,,,,,0,0,0,2,1,"[9, 21, 31, 45, 56, 68, 69]",1,1,0.9264273999724537,0.13520090002566576,None,None,None,,,,,,,,,,,0,0,0,0,0,48,48,48,379.9334632999962,,,,,,,,,,,,,,,,,,,,,,,,,,,,,,,,,,,,,,379.90018090000376,379.90022539999336,379.93189280002844,379.9334632999962,379.9334632999962,379.9334632999962,379.9334632999962,382.9332900000736,382.9332900000736,383.9165334000718,1,1,0.9264273999724537,0.13520090002566576,None,383.91660440003034,383.91662590007763,None,383.91665020002984,383.9166684,None,,,,,,,,,,,,,5,2,0,0,2025-02-26_12h21.48.497,rtmindeye,2024.2.4,59.98620317994578,2025-02-26 12h36.41.522293 -0500
all_stimuli/special515/special_57435.jpg,49,0,49,49,0,,,,,,0,0,0,2,1,"[9, 21, 31, 45, 56, 68, 69]",1,1,0.7338430000236258,0.17791750002652407,None,None,None,,,,,,,,,,,0,0,0,0,0,49,49,49,383.9632437999826,,,,,,,,,,,,,,,,,,,,,,,,,,,,,,,,,,,,,,383.91682739998214,383.91687320009805,383.9613660000032,383.9632437999826,383.9632437999826,383.9632437999826,383.9632437999826,386.9664122000104,386.9664122000104,387.9330966999987,1,1,0.7338430000236258,0.17791750002652407,None,387.9331711999839,387.9331922000274,None,387.9332161,387.93323419999797,None,,,,,,,,,,,,,5,2,0,0,2025-02-26_12h21.48.497,rtmindeye,2024.2.4,59.98620317994578,2025-02-26 12h36.41.522293 -0500
all_stimuli/MST_pairs/pair_13_17_89.png,50,0,50,50,0,,,,,,0,0,0,2,1,"[9, 21, 31, 45, 56, 68, 69]",1,1,0.7619763,0.18104369996581227,None,None,None,,,,,,,,,,,0,0,0,0,0,50,50,50,387.96703190007247,,,,,,,,,,,,,,,,,,,,,,,,,,,,,,,,,,,,,,387.9333928000415,387.93343610002194,387.9653752000304,387.96703190007247,387.96703190007247,387.96703190007247,387.96703190007247,390.9665547000477,390.9665547000477,391.9497711000731,1,1,0.7619763,0.18104369996581227,None,391.9498430000385,391.9498648000881,None,391.9498889000388,391.94990660005715,None,,,,,,,,,,,,,5,2,0,0,2025-02-26_12h21.48.497,rtmindeye,2024.2.4,59.98620317994578,2025-02-26 12h36.41.522293 -0500
all_stimuli/special515/special_57046.jpg,51,0,51,51,0,,,,,,0,0,0,2,1,"[9, 21, 31, 45, 56, 68, 69]",1,1,0.7441391999600455,0.18384800001513213,None,None,None,,,,,,,,,,,0,0,0,0,0,51,51,51,391.96992810000665,,,,,,,,,,,,,,,,,,,,,,,,,,,,,,,,,,,,,,391.9500646000961,391.95010790007655,391.9680085000582,391.96992810000665,391.96992810000665,391.96992810000665,391.96992810000665,394.98317470005713,394.98317470005713,395.96631270006765,1,1,0.7441391999600455,0.18384800001513213,None,395.9663857000414,395.96640760009177,None,395.9664316000417,395.96644980006386,None,,,,,,,,,,,,,5,2,0,0,2025-02-26_12h21.48.497,rtmindeye,2024.2.4,59.98620317994578,2025-02-26 12h36.41.522293 -0500
all_stimuli/unchosen_nsd_1000_images/unchosen_4911_cocoid_16927.png,52,0,52,52,0,,,,,,0,0,0,2,1,"[9, 21, 31, 45, 56, 68, 69]",1,1,0.7344000999582931,0.18081460008397698,None,None,None,,,,,,,,,,,0,0,0,0,0,52,52,52,395.99073279998265,,,,,,,,,,,,,,,,,,,,,,,,,,,,,,,,,,,,,,395.96661280002445,395.9666564000072,395.9890693000052,395.99073279998265,395.99073279998265,395.99073279998265,395.99073279998265,398.99984489998315,398.99984489998315,399.9831414000364,1,1,0.7344000999582931,0.18081460008397698,None,399.98321470001247,399.9832374000689,None,399.9832614000188,399.9832790000364,None,,,,,,,,,,,,,5,2,0,0,2025-02-26_12h21.48.497,rtmindeye,2024.2.4,59.98620317994578,2025-02-26 12h36.41.522293 -0500
all_stimuli/MST_pairs/pair_37_w_airplane_interior2.jpg,53,0,53,53,0,,,,,,0,0,0,2,1,"[9, 21, 31, 45, 56, 68, 69]",1,1,0.7508426000131294,0.1578054999699816,None,None,None,,,,,,,,,,,0,0,0,0,0,53,53,53,400.0272607000079,,,,,,,,,,,,,,,,,,,,,,,,,,,,,,,,,,,,,,399.9834443000145,399.9834874999942,400.02544770005625,400.0272607000079,400.0272607000079,400.0272607000079,400.0272607000079,403.0331085000653,403.0331085000653,403.99985810008366,1,1,0.7508426000131294,0.1578054999699816,None,403.99993130005896,403.99995299999136,None,403.99997710005846,403.9999949000776,None,,,,,,,,,,,,,5,2,0,0,2025-02-26_12h21.48.497,rtmindeye,2024.2.4,59.98620317994578,2025-02-26 12h36.41.522293 -0500
all_stimuli/shared1000_notspecial/notspecial_9847.png,54,0,54,54,0,,,,,,0,0,0,2,1,"[9, 21, 31, 45, 56, 68, 69]",1,1,0.5363988999743015,0.1818916000192985,None,None,None,,,,,,,,,,,0,0,0,0,0,54,54,54,404.04465729999356,,,,,,,,,,,,,,,,,,,,,,,,,,,,,,,,,,,,,,404.0001565000275,404.0002000000095,404.0430164000718,404.04465729999356,404.04465729999356,404.04465729999356,404.04465729999356,407.04984870005865,407.04984870005865,408.01637050008867,1,1,0.5363988999743015,0.1818916000192985,None,408.0164395,408.01646080007777,None,408.01648460002616,408.0165024000453,None,,,,,,,,,,,,,5,2,0,0,2025-02-26_12h21.48.497,rtmindeye,2024.2.4,59.98620317994578,2025-02-26 12h36.41.522293 -0500
all_stimuli/unchosen_nsd_1000_images/unchosen_4581_cocoid_15395.png,55,0,55,55,0,,,,,,0,0,0,2,1,"[9, 21, 31, 45, 56, 68, 69]",1,1,0.5827428000047803,0.19997389998752624,None,None,None,,,,,,,,,,,0,0,0,0,0,55,55,55,408.04837010009214,,,,,,,,,,,,,,,,,,,,,,,,,,,,,,,,,,,,,,408.0166653000051,408.01670919999015,408.0467405000236,408.04837010009214,408.04837010009214,408.04837010009214,408.04837010009214,411.0494622,411.0494622,412.03336700005457,1,1,0.5827428000047803,0.19997389998752624,None,412.0334378000116,412.0334593000589,None,412.0334844000172,412.03350240003783,None,,,,,,,,,,,,,5,2,0,0,2025-02-26_12h21.48.497,rtmindeye,2024.2.4,59.98620317994578,2025-02-26 12h36.41.522293 -0500
blank.jpg,56,1,56,56,0,,,,,,0,0,0,2,1,"[9, 21, 31, 45, 56, 68, 69]",None,0,,,None,None,None,,,,,,,,,,,0,0,0,0,0,56,56,56,412.04990330000874,,,,,,,,,,,,,,,,,,,,,,,,,,,,,,,,,,,,,,412.03366870002355,412.03371240000706,412.0422759000212,412.04990330000874,412.04990330000874,412.04990330000874,412.04990330000874,415.0496263,415.0496263,416.03303540009074,None,0,,,None,416.03309620008804,416.03311680001207,None,416.0331403000746,416.03315750008915,None,416.0722036000807,416.0722036000807,,,,,,,,,,,5,2,0,0,2025-02-26_12h21.48.497,rtmindeye,2024.2.4,59.98620317994578,2025-02-26 12h36.41.522293 -0500
all_stimuli/unchosen_nsd_1000_images/unchosen_1600_cocoid_4362.png,57,0,57,57,0,,,,,,0,0,0,2,1,"[9, 21, 31, 45, 56, 68, 69]",1,1,0.7017426999518648,0.18799000000581145,None,None,None,,,,,,,,,,,0,0,0,0,0,57,57,57,416.0722036000807,,,,,,,,,,,,,,,,,,,,,,,,,,,,,,,,,,,,,,416.0333111000946,416.03334870003164,416.07055820000824,416.0722036000807,416.0722036000807,416.0722036000807,416.0722036000807,419.0829534,419.0829534,420.04967610002495,1,1,0.7017426999518648,0.18799000000581145,None,420.04974960000254,420.0497710000491,None,420.04979489999823,420.04981240001507,None,,,,,,,,,,,,,5,2,0,0,2025-02-26_12h21.48.497,rtmindeye,2024.2.4,59.98620317994578,2025-02-26 12h36.41.522293 -0500
all_stimuli/unchosen_nsd_1000_images/unchosen_1787_cocoid_70434.png,58,0,58,58,0,,,,,,0,0,0,2,1,"[9, 21, 31, 45, 56, 68, 69]",1,1,0.8210287,0.17173729999922216,None,None,None,,,,,,,,,,,0,0,0,0,0,58,58,58,420.07509779999964,,,,,,,,,,,,,,,,,,,,,,,,,,,,,,,,,,,,,,420.04997550009284,420.05001870007254,420.07355189998634,420.07509779999964,420.07509779999964,420.07509779999964,420.07509779999964,423.0830777999945,423.0830777999945,424.06647700001486,1,1,0.8210287,0.17173729999922216,None,424.0665481000906,424.0665697000222,None,424.06659320008475,424.0666106999852,None,,,,,,,,,,,,,5,2,0,0,2025-02-26_12h21.48.497,rtmindeye,2024.2.4,59.98620317994578,2025-02-26 12h36.41.522293 -0500
all_stimuli/special515/special_20650.jpg,59,0,59,59,0,,,,,,0,0,0,2,1,"[9, 21, 31, 45, 56, 68, 69]",1,1,0.7825633999891579,0.14801270002499223,None,None,None,,,,,,,,,,,0,0,0,0,0,59,59,59,424.09550150006544,,,,,,,,,,,,,,,,,,,,,,,,,,,,,,,,,,,,,,424.06677220005076,424.0668153000297,424.0935974000022,424.09550150006544,424.09550150006544,424.09550150006544,424.09550150006544,427.0996239000233,427.0996239000233,428.08315200009383,1,1,0.7825633999891579,0.14801270002499223,None,428.0832245000638,428.0832501000259,None,428.0832745000953,428.0832930000033,None,,,,,,,,,,,,,5,2,0,0,2025-02-26_12h21.48.497,rtmindeye,2024.2.4,59.98620317994578,2025-02-26 12h36.41.522293 -0500
all_stimuli/unchosen_nsd_1000_images/unchosen_1055_cocoid_68359.png,60,0,60,60,0,,,,,,0,0,0,2,1,"[9, 21, 31, 45, 56, 68, 69]",1,1,0.5785946000833064,0.1778178,None,None,None,,,,,,,,,,,0,0,0,0,0,60,60,60,428.14845470001455,,,,,,,,,,,,,,,,,,,,,,,,,,,,,,,,,,,,,,428.08345720008947,428.0835009,428.14503330003936,428.14845470001455,428.14845470001455,428.14845470001455,428.14845470001455,431.1495174000738,431.1495174000738,432.0997354000574,1,1,0.5785946000833064,0.1778178,None,432.09980740002356,432.0998286000686,None,432.0998523000162,432.0998696000315,None,,,,,,,,,,,,,5,2,0,0,2025-02-26_12h21.48.497,rtmindeye,2024.2.4,59.98620317994578,2025-02-26 12h36.41.522293 -0500
all_stimuli/unchosen_nsd_1000_images/unchosen_6322_cocoid_22842.png,61,0,61,61,0,,,,,,0,0,0,2,1,"[9, 21, 31, 45, 56, 68, 69]",1,1,0.49089210003148764,0.1650971999624744,None,None,None,,,,,,,,,,,0,0,0,0,0,61,61,61,432.11909699998796,,,,,,,,,,,,,,,,,,,,,,,,,,,,,,,,,,,,,,432.10002950008493,432.10007290006615,432.1174869000679,432.11909699998796,432.11909699998796,432.11909699998796,432.11909699998796,435.13323180004954,435.13323180004954,436.11639570002444,1,1,0.49089210003148764,0.1650971999624744,None,436.1164669999853,436.11648860003334,None,436.1165134999901,436.11653100000694,None,,,,,,,,,,,,,5,2,0,0,2025-02-26_12h21.48.497,rtmindeye,2024.2.4,59.98620317994578,2025-02-26 12h36.41.522293 -0500
all_stimuli/MST_pairs/pair_6_9_11.png,62,0,62,62,0,,,,,,0,0,0,2,1,"[9, 21, 31, 45, 56, 68, 69]",1,1,0.7219839999452233,0.17693419998977333,None,None,None,,,,,,,,,,,0,0,0,0,0,62,62,62,436.1931064000819,,,,,,,,,,,,,,,,,,,,,,,,,,,,,,,,,,,,,,436.1166960999835,436.11673900007736,436.1894664,436.1931064000819,436.1931064000819,436.1931064000819,436.1931064000819,439.19958890008274,439.19958890008274,440.13340330007486,1,1,0.7219839999452233,0.17693419998977333,None,440.1334756000433,440.1334979000967,None,440.1335235000588,440.13354150007945,None,,,,,,,,,,,,,5,2,0,0,2025-02-26_12h21.48.497,rtmindeye,2024.2.4,59.98620317994578,2025-02-26 12h36.41.522293 -0500
all_stimuli/shared1000_notspecial/notspecial_26127.png,63,0,63,63,0,,,,,,0,0,0,2,1,"[9, 21, 31, 45, 56, 68, 69]",1,1,0.7398316999897361,0.12787059997208416,None,None,None,,,,,,,,,,,0,0,0,0,0,63,63,63,440.1722753000213,,,,,,,,,,,,,,,,,,,,,,,,,,,,,,,,,,,,,,440.1337061000522,440.1337493000319,440.1706699000206,440.1722753000213,440.1722753000213,440.1722753000213,440.1722753000213,443.1832383000292,443.1832383000292,444.1498548000818,1,1,0.7398316999897361,0.12787059997208416,None,444.14992660004646,444.1499475000892,None,444.14997210004367,444.14999000006355,None,,,,,,,,,,,,,5,2,0,0,2025-02-26_12h21.48.497,rtmindeye,2024.2.4,59.98620317994578,2025-02-26 12h36.41.522293 -0500
all_stimuli/special515/special_27242.jpg,64,0,64,64,0,,,,,,1,0,0,2,1,"[9, 21, 31, 45, 56, 68, 69]",2,1,1.029528500046581,0.32622869999613613,None,None,None,,,,,,,,,,,0,0,0,0,0,64,64,64,444.16628150001634,,,,,,,,,,,,,,,,,,,,,,,,,,,,,,,,,,,,,,444.15015790006146,444.1502015000442,444.1604639000725,444.16628150001634,444.16628150001634,444.16628150001634,444.16628150001634,447.1661735000089,447.1661735000089,448.1500102999853,2,1,1.029528500046581,0.32622869999613613,None,448.1500770000275,448.1500978000695,None,448.15012120001484,448.1501384000294,None,448.18613410007674,448.18613410007674,,,,,,,,,,,5,2,0,0,2025-02-26_12h21.48.497,rtmindeye,2024.2.4,59.98620317994578,2025-02-26 12h36.41.522293 -0500
all_stimuli/shared1000_notspecial/notspecial_6514.png,65,0,65,65,0,,,,,,0,0,0,2,1,"[9, 21, 31, 45, 56, 68, 69]",2,0,1.3279677999671549,0.35082390008028597,None,None,None,,,,,,,,,,,0,0,0,0,0,65,65,65,448.18613410007674,,,,,,,,,,,,,,,,,,,,,,,,,,,,,,,,,,,,,,448.1502990000881,448.15033700002823,448.1841973999981,448.18613410007674,448.18613410007674,448.18613410007674,448.18613410007674,451.19952260004357,451.19952260004357,452.16650709998794,2,0,1.3279677999671549,0.35082390008028597,None,452.16657800006215,452.16659969999455,None,452.16662350005936,452.1666413000785,None,,,,,,,,,,,,,5,2,0,0,2025-02-26_12h21.48.497,rtmindeye,2024.2.4,59.98620317994578,2025-02-26 12h36.41.522293 -0500
all_stimuli/shared1000_notspecial/notspecial_14165.png,66,0,66,66,0,,,,,,0,0,0,2,1,"[9, 21, 31, 45, 56, 68, 69]",1,1,0.8239223000127822,0.17200360004790127,None,None,None,,,,,,,,,,,0,0,0,0,0,66,66,66,452.21614610007964,,,,,,,,,,,,,,,,,,,,,,,,,,,,,,,,,,,,,,452.16680280002765,452.1668464000104,452.21452949999366,452.21614610007964,452.21614610007964,452.21614610007964,452.21614610007964,455.2163350000046,455.2163350000046,456.18324720009696,1,1,0.8239223000127822,0.17200360004790127,None,456.1833188000601,456.1833408999955,None,456.1833659000695,456.18338430009317,None,,,,,,,,,,,,,5,2,0,0,2025-02-26_12h21.48.497,rtmindeye,2024.2.4,59.98620317994578,2025-02-26 12h36.41.522293 -0500
all_stimuli/special515/special_43164.jpg,67,0,67,67,0,,,,,,0,0,0,2,1,"[9, 21, 31, 45, 56, 68, 69]",1,1,0.7318578999256715,0.2040755,None,None,None,,,,,,,,,,,0,0,0,0,0,67,67,67,456.22008440003265,,,,,,,,,,,,,,,,,,,,,,,,,,,,,,,,,,,,,,456.1835493,456.18359290005174,456.2183512999909,456.22008440003265,456.22008440003265,456.22008440003265,456.22008440003265,459.2329419000307,459.2329419000307,460.19980180007406,1,1,0.7318578999256715,0.2040755,None,460.1998769000638,460.1998983999947,None,460.1999228000641,460.1999406000832,None,,,,,,,,,,,,,5,2,0,0,2025-02-26_12h21.48.497,rtmindeye,2024.2.4,59.98620317994578,2025-02-26 12h36.41.522293 -0500
blank.jpg,68,1,68,68,0,,,,,,0,0,0,2,1,"[9, 21, 31, 45, 56, 68, 69]",None,0,,,None,None,None,,,,,,,,,,,0,0,0,0,0,68,68,68,460.2164334000554,,,,,,,,,,,,,,,,,,,,,,,,,,,,,,,,,,,,,,460.20009910000954,460.2001420999877,460.2082437000936,460.2164334000554,460.2164334000554,460.2164334000554,460.2164334000554,463.2162539000856,463.2162539000856,464.1999310000101,None,0,,,None,464.19999200000893,464.20001210004557,None,464.20003539999016,464.20005250000395,None,464.2165234000422,464.2165234000422,,,,,,,,,,,5,2,0,0,2025-02-26_12h21.48.497,rtmindeye,2024.2.4,59.98620317994578,2025-02-26 12h36.41.522293 -0500
blank.jpg,69,1,69,69,0,,,,,,0,1,0,2,0,"[9, 21, 31, 45, 56, 68, 69]",None,0,,,None,1,equal,62.094963400042616,None,18.480989600066096,None,,,,,,,0,0,0,0,0,69,69,69,464.2165234000422,,,,,,,,,,,,,,,,,,,,,,,,,,,,,,,,,,,,,,464.2002113,464.20024959999137,464.2069024000084,464.2165234000422,464.2165234000422,464.2165234000422,464.2165234000422,467.2163121000631,467.2163121000631,468.19967580004595,None,0,,,None,468.2076302000787,530.3164000000106,1,530.3164599000011,548.8163709000219,equal,468.21610600000713,468.21610600000713,468.21610600000713,468.21610600000713,62.094963400042616,None,530.3329694,530.3329694,18.480989600066096,None,,,5,2,0,0,2025-02-26_12h21.48.497,rtmindeye,2024.2.4,59.98620317994578,2025-02-26 12h36.41.522293 -0500
,,,0,0,0,,,,,,,,,,,,,,,,,,,,,,,,,,,,,0,0,0,0,,,,,,,,,,,,,,,,,,,,,,,,,,,,,,,,,,,,,,,,,,,,,,,,,,,,,,,,,,,,,,,,,,,,,,,,,,,,5,2,0,0,2025-02-26_12h21.48.497,rtmindeye,2024.2.4,59.98620317994578,2025-02-26 12h36.41.522293 -0500
all_stimuli/shared1000_notspecial/notspecial_14121.png,0,0,0,0,0,,,,,,0,0,1,2,1,"[9, 21, 31, 45, 56, 68, 69]",1,1,0.9235833000857383,0.21791939996182919,None,None,None,,,,,,,,,,,1,0,1,0,0,0,0,0,548.8854070000816,,,,,,,,,,,,,,,,,,,,,,,,,,,,,,,,,,,,,,548.8500972000184,548.8502073000418,548.8816978000104,548.8854070000816,548.8854070000816,548.8854070000816,548.8854070000816,551.8993993999902,551.8993993999902,552.8661388000473,1,1,0.9235833000857383,0.21791939996182919,None,552.8662128000287,552.8662356000859,None,552.8662610000465,552.8662802000763,None,,,,,,,,,,,,,5,2,0,0,2025-02-26_12h21.48.497,rtmindeye,2024.2.4,59.98620317994578,2025-02-26 12h36.41.522293 -0500
all_stimuli/MST_pairs/pair_44_w_log_cabin2.jpg,1,0,1,1,0,,,,,,0,0,1,2,1,"[9, 21, 31, 45, 56, 68, 69]",1,1,0.6321676999796182,0.2222360000014305,None,None,None,,,,,,,,,,,1,0,1,0,0,1,1,1,552.8895984999835,,,,,,,,,,,,,,,,,,,,,,,,,,,,,,,,,,,,,,552.8664446000475,552.8664885000326,552.8877238000277,552.8895984999835,552.8895984999835,552.8895984999835,552.8895984999835,555.8998463000171,555.8998463000171,556.8827371,1,1,0.6321676999796182,0.2222360000014305,None,556.8828084000852,556.8828294000123,None,556.8828543000855,556.8828722999897,None,,,,,,,,,,,,,5,2,0,0,2025-02-26_12h21.48.497,rtmindeye,2024.2.4,59.98620317994578,2025-02-26 12h36.41.522293 -0500
all_stimuli/MST_pairs/pair_45_w_pagoda1.jpg,2,0,2,2,0,,,,,,0,0,1,2,1,"[9, 21, 31, 45, 56, 68, 69]",1,1,0.7258748998865485,0.21191230008844286,None,None,None,,,,,,,,,,,1,0,1,0,0,2,2,2,556.9179213000461,,,,,,,,,,,,,,,,,,,,,,,,,,,,,,,,,,,,,,556.8830409999937,556.8830850000959,556.9162531000329,556.9179213000461,556.9179213000461,556.9179213000461,556.9179213000461,559.9326798000839,559.9326798000839,560.8993625000585,1,1,0.7258748998865485,0.21191230008844286,None,560.8994365000399,560.8994584000902,None,560.8994830000447,560.8995008000638,None,,,,,,,,,,,,,5,2,0,0,2025-02-26_12h21.48.497,rtmindeye,2024.2.4,59.98620317994578,2025-02-26 12h36.41.522293 -0500
all_stimuli/special515/special_39841.jpg,3,0,3,3,0,,,,,,0,0,1,2,1,"[9, 21, 31, 45, 56, 68, 69]",1,1,0.6334819999756292,0.16399240004830062,None,None,None,,,,,,,,,,,1,0,1,0,0,3,3,3,560.9265395000111,,,,,,,,,,,,,,,,,,,,,,,,,,,,,,,,,,,,,,560.8996627,560.8997066000011,560.9247303000884,560.9265395000111,560.9265395000111,560.9265395000111,560.9265395000111,563.9327126999851,563.9327126999851,564.9162350000115,1,1,0.6334819999756292,0.16399240004830062,None,564.9163071000949,564.9163288000273,None,564.9163537,564.9163715000032,None,,,,,,,,,,,,,5,2,0,0,2025-02-26_12h21.48.497,rtmindeye,2024.2.4,59.98620317994578,2025-02-26 12h36.41.522293 -0500
all_stimuli/special515/special_43224.jpg,4,0,4,4,0,,,,,,0,0,1,2,1,"[9, 21, 31, 45, 56, 68, 69]",1,1,0.4586460000136867,0.18603919993620366,None,None,None,,,,,,,,,,,1,0,1,0,0,4,4,4,564.9451561000897,,,,,,,,,,,,,,,,,,,,,,,,,,,,,,,,,,,,,,564.9165331000695,564.9165764,564.9433343,564.9451561000897,564.9451561000897,564.9451561000897,564.9451561000897,567.9492901000194,567.9492901000194,568.9325601999881,1,1,0.4586460000136867,0.18603919993620366,None,568.9326355000958,568.9326574000297,None,568.9326825999888,568.9327008000109,None,,,,,,,,,,,,,5,2,0,0,2025-02-26_12h21.48.497,rtmindeye,2024.2.4,59.98620317994578,2025-02-26 12h36.41.522293 -0500
all_stimuli/shared1000_notspecial/notspecial_70758.png,5,0,5,5,0,,,,,,0,0,1,2,1,"[9, 21, 31, 45, 56, 68, 69]",1,1,0.5299517000094056,0.19323390000499785,None,None,None,,,,,,,,,,,1,0,1,0,0,5,5,5,568.9708114000969,,,,,,,,,,,,,,,,,,,,,,,,,,,,,,,,,,,,,,568.9328650000971,568.9329089000821,568.9691636000061,568.9708114000969,568.9708114000969,568.9708114000969,568.9708114000969,571.9826633000048,571.9826633000048,572.9493799000047,1,1,0.5299517000094056,0.19323390000499785,None,572.9494527000934,572.9494741000235,None,572.9494991999818,572.9495171000017,None,,,,,,,,,,,,,5,2,0,0,2025-02-26_12h21.48.497,rtmindeye,2024.2.4,59.98620317994578,2025-02-26 12h36.41.522293 -0500
all_stimuli/special515/special_37221.jpg,6,0,6,6,0,,,,,,0,0,1,2,1,"[9, 21, 31, 45, 56, 68, 69]",1,1,0.5549995999317616,0.14999970002099872,None,None,None,,,,,,,,,,,1,0,1,0,0,6,6,6,572.9829502000939,,,,,,,,,,,,,,,,,,,,,,,,,,,,,,,,,,,,,,572.9496763000498,572.9497199000325,572.9811447,572.9829502000939,572.9829502000939,572.9829502000939,572.9829502000939,575.9826356000267,575.9826356000267,576.9662302000215,1,1,0.5549995999317616,0.14999970002099872,None,576.9663016999839,576.9663233,None,576.9663481,576.9663657000056,None,,,,,,,,,,,,,5,2,0,0,2025-02-26_12h21.48.497,rtmindeye,2024.2.4,59.98620317994578,2025-02-26 12h36.41.522293 -0500
all_stimuli/special515/special_71232.jpg,7,0,7,7,0,,,,,,0,0,1,2,1,"[9, 21, 31, 45, 56, 68, 69]",1,1,0.5881925000576302,0.1849800000200048,None,None,None,,,,,,,,,,,1,0,1,0,0,7,7,7,577.0078336000443,,,,,,,,,,,,,,,,,,,,,,,,,,,,,,,,,,,,,,576.9665243000491,576.966567,577.0059577000793,577.0078336000443,577.0078336000443,577.0078336000443,577.0078336000443,580.0161938000238,580.0161938000238,580.9826972000301,1,1,0.5881925000576302,0.1849800000200048,None,580.9827701000031,580.9827917000512,None,580.982817,580.9828348000301,None,,,,,,,,,,,,,5,2,0,0,2025-02-26_12h21.48.497,rtmindeye,2024.2.4,59.98620317994578,2025-02-26 12h36.41.522293 -0500
all_stimuli/shared1000_notspecial/notspecial_59091.png,8,0,8,8,0,,,,,,0,0,1,2,1,"[9, 21, 31, 45, 56, 68, 69]",1,1,0.6200695000588894,0.11709309997968376,None,None,None,,,,,,,,,,,1,0,1,0,0,8,8,8,581.0188101000385,,,,,,,,,,,,,,,,,,,,,,,,,,,,,,,,,,,,,,580.9829956000904,580.9830392000731,581.0170458,581.0188101000385,581.0188101000385,581.0188101000385,581.0188101000385,584.0327316999901,584.0327316999901,584.9992639999837,1,1,0.6200695000588894,0.11709309997968376,None,584.9993368000723,584.9993589000078,None,584.9993829000741,584.9994008,None,,,,,,,,,,,,,5,2,0,0,2025-02-26_12h21.48.497,rtmindeye,2024.2.4,59.98620317994578,2025-02-26 12h36.41.522293 -0500
blank.jpg,9,1,9,9,0,,,,,,0,0,1,2,1,"[9, 21, 31, 45, 56, 68, 69]",None,0,,,None,None,None,,,,,,,,,,,1,0,1,0,0,9,9,9,585.0159275000915,,,,,,,,,,,,,,,,,,,,,,,,,,,,,,,,,,,,,,584.9995611,584.9996046,585.0083651000168,585.0159275000915,585.0159275000915,585.0159275000915,585.0159275000915,588.0160812000977,588.0160812000977,588.9993918000255,None,0,,,None,588.9994542,588.9994754,None,588.9995009000413,588.9995190000627,None,589.0264747000765,589.0264747000765,,,,,,,,,,,5,2,0,0,2025-02-26_12h21.48.497,rtmindeye,2024.2.4,59.98620317994578,2025-02-26 12h36.41.522293 -0500
all_stimuli/unchosen_nsd_1000_images/unchosen_2896_cocoid_8150.png,10,0,10,10,0,,,,,,0,0,1,2,1,"[9, 21, 31, 45, 56, 68, 69]",1,1,0.6133840000256896,0.1401227000169456,None,None,None,,,,,,,,,,,1,0,1,0,0,10,10,10,589.0264747000765,,,,,,,,,,,,,,,,,,,,,,,,,,,,,,,,,,,,,,588.9996810000157,588.9997194000753,589.0248454000102,589.0264747000765,589.0264747000765,589.0264747000765,589.0264747000765,592.0325517000165,592.0325517000165,593.0160618000664,1,1,0.6133840000256896,0.1401227000169456,None,593.0161354000447,593.0161569,None,593.0161808000412,593.0161984000588,None,,,,,,,,,,,,,5,2,0,0,2025-02-26_12h21.48.497,rtmindeye,2024.2.4,59.98620317994578,2025-02-26 12h36.41.522293 -0500
all_stimuli/shared1000_notspecial/notspecial_5285.png,11,0,11,11,0,,,,,,0,0,1,2,1,"[9, 21, 31, 45, 56, 68, 69]",1,1,0.6367224999703467,0.13980020000599325,None,None,None,,,,,,,,,,,1,0,1,0,0,11,11,11,593.0562601999845,,,,,,,,,,,,,,,,,,,,,,,,,,,,,,,,,,,,,,593.0163585999981,593.0164023,593.0546449000249,593.0562601999845,593.0562601999845,593.0562601999845,593.0562601999845,596.0659309000475,596.0659309000475,597.032733,1,1,0.6367224999703467,0.13980020000599325,None,597.0328051000834,597.0328267,None,597.0328507000813,597.0328681999817,None,,,,,,,,,,,,,5,2,0,0,2025-02-26_12h21.48.497,rtmindeye,2024.2.4,59.98620317994578,2025-02-26 12h36.41.522293 -0500
all_stimuli/special515/special_9917.jpg,12,0,12,12,0,,,,,,0,0,1,2,1,"[9, 21, 31, 45, 56, 68, 69]",1,1,0.7343188999220729,0.13611300010234118,None,None,None,,,,,,,,,,,1,0,1,0,0,12,12,12,597.0715670000063,,,,,,,,,,,,,,,,,,,,,,,,,,,,,,,,,,,,,,597.0330283000367,597.0330719000194,597.0696987999836,597.0715670000063,597.0715670000063,597.0715670000063,597.0715670000063,600.0825358000584,600.0825358000584,601.0493714000331,1,1,0.7343188999220729,0.13611300010234118,None,601.0494446000084,601.0494664,None,601.0494918000186,601.0495101000415,None,,,,,,,,,,,,,5,2,0,0,2025-02-26_12h21.48.497,rtmindeye,2024.2.4,59.98620317994578,2025-02-26 12h36.41.522293 -0500
all_stimuli/MST_pairs/pair_37_w_airplane_interior1.jpg,13,0,13,13,0,,,,,,0,0,1,2,1,"[9, 21, 31, 45, 56, 68, 69]",2,0,1.0245500999735668,0.18308470002375543,None,None,None,,,,,,,,,,,1,0,1,0,0,13,13,13,601.0823412,,,,,,,,,,,,,,,,,,,,,,,,,,,,,,,,,,,,,,601.0496724999975,601.0497184999986,601.0806135000894,601.0823412,601.0823412,601.0823412,601.0823412,604.0826595,604.0826595,605.0661439000396,2,0,1.0245500999735668,0.18308470002375543,None,605.0662162000081,605.0662384000607,None,605.0662630000152,605.0662808000343,None,,,,,,,,,,,,,5,2,0,0,2025-02-26_12h21.48.497,rtmindeye,2024.2.4,59.98620317994578,2025-02-26 12h36.41.522293 -0500
all_stimuli/special515/special_25111.jpg,14,0,14,14,0,,,,,,0,0,1,2,1,"[9, 21, 31, 45, 56, 68, 69]",1,1,0.7381167,0.1899029000196606,None,None,None,,,,,,,,,,,1,0,1,0,0,14,14,14,605.0997918000212,,,,,,,,,,,,,,,,,,,,,,,,,,,,,,,,,,,,,,605.066441,605.0664846000727,605.0978487000102,605.0997918000212,605.0997918000212,605.0997918000212,605.0997918000212,608.0991709000664,608.0991709000664,609.0824765000725,1,1,0.7381167,0.1899029000196606,None,609.0825515000615,609.0825724999886,None,609.0825978000648,609.0826153000817,None,,,,,,,,,,,,,5,2,0,0,2025-02-26_12h21.48.497,rtmindeye,2024.2.4,59.98620317994578,2025-02-26 12h36.41.522293 -0500
all_stimuli/special515/special_54078.jpg,15,0,15,15,0,,,,,,1,0,1,2,1,"[9, 21, 31, 45, 56, 68, 69]",1,0,0.9647291000001132,0.1737241999944672,None,None,None,,,,,,,,,,,1,0,1,0,0,15,15,15,609.1122669000179,,,,,,,,,,,,,,,,,,,,,,,,,,,,,,,,,,,,,,609.0827756000217,609.0828192000045,609.1103740000399,609.1122669000179,609.1122669000179,609.1122669000179,609.1122669000179,612.1159409000538,612.1159409000538,613.0993119000923,1,0,0.9647291000001132,0.1737241999944672,None,613.0993826000486,613.0994033000898,None,613.0994283000473,613.0994460000657,None,,,,,,,,,,,,,5,2,0,0,2025-02-26_12h21.48.497,rtmindeye,2024.2.4,59.98620317994578,2025-02-26 12h36.41.522293 -0500
all_stimuli/special515/special_61510.jpg,16,0,16,16,0,,,,,,0,0,1,2,1,"[9, 21, 31, 45, 56, 68, 69]",1,1,0.9365523000014946,0.15904960001353174,None,None,None,,,,,,,,,,,1,0,1,0,0,16,16,16,613.1312468000688,,,,,,,,,,,,,,,,,,,,,,,,,,,,,,,,,,,,,,613.0996166000841,613.0996602000669,613.1294003000949,613.1312468000688,613.1312468000688,613.1312468000688,613.1312468000688,616.1326052000513,616.1326052000513,617.1161304999841,1,1,0.9365523000014946,0.15904960001353174,None,617.1162005000515,617.1162224999862,None,617.1162471000571,617.1162648000754,None,,,,,,,,,,,,,5,2,0,0,2025-02-26_12h21.48.497,rtmindeye,2024.2.4,59.98620317994578,2025-02-26 12h36.41.522293 -0500
all_stimuli/shared1000_notspecial/notspecial_12937.png,17,0,17,17,0,,,,,,0,0,1,2,1,"[9, 21, 31, 45, 56, 68, 69]",1,1,0.7081302,0.13768509996589273,None,None,None,,,,,,,,,,,1,0,1,0,0,17,17,17,617.1538341999985,,,,,,,,,,,,,,,,,,,,,,,,,,,,,,,,,,,,,,617.1164240000071,617.1164774000645,617.1522219000617,617.1538341999985,617.1538341999985,617.1538341999985,617.1538341999985,620.1659794000443,620.1659794000443,621.1326687000692,1,1,0.7081302,0.13768509996589273,None,621.1327435000567,621.1327652999898,None,621.1327905000653,621.1328087000875,None,,,,,,,,,,,,,5,2,0,0,2025-02-26_12h21.48.497,rtmindeye,2024.2.4,59.98620317994578,2025-02-26 12h36.41.522293 -0500
all_stimuli/special515/special_56314.jpg,18,0,18,18,0,,,,,,0,0,1,2,1,"[9, 21, 31, 45, 56, 68, 69]",1,1,0.8002658999757841,0.2006871000630781,None,None,None,,,,,,,,,,,1,0,1,0,0,18,18,18,621.1707238000818,,,,,,,,,,,,,,,,,,,,,,,,,,,,,,,,,,,,,,621.1329729000572,621.1330163000384,621.1689480000641,621.1707238000818,621.1707238000818,621.1707238000818,621.1707238000818,624.1825566000771,624.1825566000771,625.1492603000952,1,1,0.8002658999757841,0.2006871000630781,None,625.1493346000789,625.1493567000143,None,625.1493812000845,625.1493990999879,None,,,,,,,,,,,,,5,2,0,0,2025-02-26_12h21.48.497,rtmindeye,2024.2.4,59.98620317994578,2025-02-26 12h36.41.522293 -0500
all_stimuli/special515/special_48802.jpg,19,0,19,19,0,,,,,,0,0,1,2,1,"[9, 21, 31, 45, 56, 68, 69]",1,1,0.6545927999541163,0.15279150009155273,None,None,None,,,,,,,,,,,1,0,1,0,0,19,19,19,625.1683824000647,,,,,,,,,,,,,,,,,,,,,,,,,,,,,,,,,,,,,,625.1495628000703,625.1496062000515,625.1665099000093,625.1683824000647,625.1683824000647,625.1683824000647,625.1683824000647,628.1825947,628.1825947,629.1659317000303,1,1,0.6545927999541163,0.15279150009155273,None,629.1660077,629.1660292000743,None,629.1660551000386,629.1660729000578,None,,,,,,,,,,,,,5,2,0,0,2025-02-26_12h21.48.497,rtmindeye,2024.2.4,59.98620317994578,2025-02-26 12h36.41.522293 -0500
all_stimuli/unchosen_nsd_1000_images/unchosen_5567_cocoid_52445.png,20,0,20,20,0,,,,,,0,0,1,2,1,"[9, 21, 31, 45, 56, 68, 69]",1,1,0.6467988999793306,0.1539420000044629,None,None,None,,,,,,,,,,,1,0,1,0,0,20,20,20,629.2131523999851,,,,,,,,,,,,,,,,,,,,,,,,,,,,,,,,,,,,,,629.1662392000435,629.1662867000559,629.2114907000214,629.2131523999851,629.2131523999851,629.2131523999851,629.2131523999851,632.2159421000397,632.2159421000397,633.1827329000225,1,1,0.6467988999793306,0.1539420000044629,None,633.1828061999986,633.1828282000497,None,633.1828537,633.1828719000332,None,,,,,,,,,,,,,5,2,0,0,2025-02-26_12h21.48.497,rtmindeye,2024.2.4,59.98620317994578,2025-02-26 12h36.41.522293 -0500
blank.jpg,21,1,21,21,0,,,,,,0,0,1,2,1,"[9, 21, 31, 45, 56, 68, 69]",None,0,,,None,None,None,,,,,,,,,,,1,0,1,0,0,21,21,21,633.1988661000505,,,,,,,,,,,,,,,,,,,,,,,,,,,,,,,,,,,,,,633.1830348999938,633.1830784000922,633.1948611000553,633.1988661000505,633.1988661000505,633.1988661000505,633.1988661000505,636.1991920000874,636.1991920000874,637.1825624000048,None,0,,,None,637.1826224,637.1826423000311,None,637.1826669999864,637.1826847000048,None,637.2151136000175,637.2151136000175,,,,,,,,,,,5,2,0,0,2025-02-26_12h21.48.497,rtmindeye,2024.2.4,59.98620317994578,2025-02-26 12h36.41.522293 -0500
all_stimuli/special515/special_32625.jpg,22,0,22,22,0,,,,,,0,0,1,2,1,"[9, 21, 31, 45, 56, 68, 69]",1,1,0.6238674999913201,0.14472760003991425,None,None,None,,,,,,,,,,,1,0,1,0,0,22,22,22,637.2151136000175,,,,,,,,,,,,,,,,,,,,,,,,,,,,,,,,,,,,,,637.1828379000071,637.1828754000599,637.2133340000873,637.2151136000175,637.2151136000175,637.2151136000175,637.2151136000175,640.2160465000197,640.2160465000197,641.1991767000873,1,1,0.6238674999913201,0.14472760003991425,None,641.1992499000626,641.1992713999934,None,641.1992960000644,641.1993138000835,None,,,,,,,,,,,,,5,2,0,0,2025-02-26_12h21.48.497,rtmindeye,2024.2.4,59.98620317994578,2025-02-26 12h36.41.522293 -0500
all_stimuli/MST_pairs/pair_47_w_roller_coaster2.jpg,23,0,23,23,0,,,,,,0,0,1,2,1,"[9, 21, 31, 45, 56, 68, 69]",1,1,0.8372060999972746,0.15596999996341765,None,None,None,,,,,,,,,,,1,0,1,0,0,23,23,23,641.2315730000846,,,,,,,,,,,,,,,,,,,,,,,,,,,,,,,,,,,,,,641.1994764,641.1995198000222,641.2297652000561,641.2315730000846,641.2315730000846,641.2315730000846,641.2315730000846,644.2323677000822,644.2323677000822,645.2159970999928,1,1,0.8372060999972746,0.15596999996341765,None,645.2160689000739,645.2160903,None,645.2161154000787,645.2161330000963,None,,,,,,,,,,,,,5,2,0,0,2025-02-26_12h21.48.497,rtmindeye,2024.2.4,59.98620317994578,2025-02-26 12h36.41.522293 -0500
all_stimuli/unchosen_nsd_1000_images/unchosen_6217_cocoid_22381.png,24,0,24,24,0,,,,,,0,0,1,2,1,"[9, 21, 31, 45, 56, 68, 69]",1,1,0.7110658000456169,0.1751248,None,None,None,,,,,,,,,,,1,0,1,0,0,24,24,24,645.2886481999885,,,,,,,,,,,,,,,,,,,,,,,,,,,,,,,,,,,,,,645.2162926,645.2163366000168,645.2852667000843,645.2886481999885,645.2886481999885,645.2886481999885,645.2886481999885,648.2991008000681,648.2991008000681,649.2326245000586,1,1,0.7110658000456169,0.1751248,None,649.2327015000628,649.2327237999998,None,649.2327486000722,649.2327664000914,None,,,,,,,,,,,,,5,2,0,0,2025-02-26_12h21.48.497,rtmindeye,2024.2.4,59.98620317994578,2025-02-26 12h36.41.522293 -0500
all_stimuli/unchosen_nsd_1000_images/unchosen_1796_cocoid_37692.png,25,0,25,25,0,,,,,,0,0,1,2,1,"[9, 21, 31, 45, 56, 68, 69]",1,1,0.7306099000852555,0.15583829989191145,None,None,None,,,,,,,,,,,1,0,1,0,0,25,25,25,649.2623607000569,,,,,,,,,,,,,,,,,,,,,,,,,,,,,,,,,,,,,,649.2329330000794,649.2329757000552,649.2607581000775,649.2623607000569,649.2623607000569,649.2623607000569,649.2623607000569,652.2657977000345,652.2657977000345,653.2492934000911,1,1,0.7306099000852555,0.15583829989191145,None,653.2493668,653.2493889000034,None,653.2494137000758,653.2494317000965,None,,,,,,,,,,,,,5,2,0,0,2025-02-26_12h21.48.497,rtmindeye,2024.2.4,59.98620317994578,2025-02-26 12h36.41.522293 -0500
all_stimuli/MST_pairs/pair_47_w_roller_coaster1.jpg,26,0,26,26,0,,,,,,0,0,1,2,1,"[9, 21, 31, 45, 56, 68, 69]",1,1,0.6665326999500394,0.15001670003402978,None,None,None,,,,,,,,,,,1,0,1,0,0,26,26,26,653.2862173999893,,,,,,,,,,,,,,,,,,,,,,,,,,,,,,,,,,,,,,653.2495948000578,653.2496390000451,653.2844003000064,653.2862173999893,653.2862173999893,653.2862173999893,653.2862173999893,656.2990702,656.2990702,657.2657574000768,1,1,0.6665326999500394,0.15001670003402978,None,657.2658315,657.2658535999944,None,657.2658785000676,657.2658962,None,,,,,,,,,,,,,5,2,0,0,2025-02-26_12h21.48.497,rtmindeye,2024.2.4,59.98620317994578,2025-02-26 12h36.41.522293 -0500
all_stimuli/special515/special_53727.jpg,27,0,27,27,0,,,,,,0,0,1,2,1,"[9, 21, 31, 45, 56, 68, 69]",1,1,0.7115867000538856,0.1597934999736026,None,None,None,,,,,,,,,,,1,0,1,0,0,27,27,27,657.2963794,,,,,,,,,,,,,,,,,,,,,,,,,,,,,,,,,,,,,,657.2660601000534,657.2661040000385,657.2944985,657.2963794,657.2963794,657.2963794,657.2963794,660.2990809,660.2990809,661.2820560000837,1,1,0.7115867000538856,0.1597934999736026,None,661.2821309000719,661.2821521000005,None,661.2821780000813,661.2821958,None,,,,,,,,,,,,,5,2,0,0,2025-02-26_12h21.48.497,rtmindeye,2024.2.4,59.98620317994578,2025-02-26 12h36.41.522293 -0500
all_stimuli/MST_pairs/pair_43_w_lighthouse1.jpg,28,0,28,28,0,,,,,,0,0,1,2,1,"[9, 21, 31, 45, 56, 68, 69]",1,1,0.7378692999482155,0.30392710003070533,None,None,None,,,,,,,,,,,1,0,1,0,0,28,28,28,661.3239964999957,,,,,,,,,,,,,,,,,,,,,,,,,,,,,,,,,,,,,,661.2823646999896,661.2824084000895,661.3221002999926,661.3239964999957,661.3239964999957,661.3239964999957,661.3239964999957,664.3323580999859,664.3323580999859,665.2825701000402,1,1,0.7378692999482155,0.30392710003070533,None,665.2826433000155,665.2826652000658,None,665.2826899000211,665.2827078,None,,,,,,,,,,,,,5,2,0,0,2025-02-26_12h21.48.497,rtmindeye,2024.2.4,59.98620317994578,2025-02-26 12h36.41.522293 -0500
all_stimuli/shared1000_notspecial/notspecial_25059.png,29,0,29,29,0,,,,,,0,0,1,2,1,"[9, 21, 31, 45, 56, 68, 69]",1,1,0.5826147999614477,0.15595080005005002,None,None,None,,,,,,,,,,,1,0,1,0,0,29,29,29,665.3041083000135,,,,,,,,,,,,,,,,,,,,,,,,,,,,,,,,,,,,,,665.2828719000099,665.2829190000193,665.3024682999821,665.3041083000135,665.3041083000135,665.3041083000135,665.3041083000135,668.3155634000432,668.3155634000432,669.2989401000086,1,1,0.5826147999614477,0.15595080005005002,None,669.2990149999969,669.2990361000411,None,669.2990603999933,669.2990785000147,None,,,,,,,,,,,,,5,2,0,0,2025-02-26_12h21.48.497,rtmindeye,2024.2.4,59.98620317994578,2025-02-26 12h36.41.522293 -0500
all_stimuli/special515/special_12308.jpg,30,0,30,30,0,,,,,,0,0,1,2,1,"[9, 21, 31, 45, 56, 68, 69]",1,1,0.6539808000670746,0.16909689991734922,None,None,None,,,,,,,,,,,1,0,1,0,0,30,30,30,669.3807435000781,,,,,,,,,,,,,,,,,,,,,,,,,,,,,,,,,,,,,,669.2992455000058,669.2992893999908,669.3772307999898,669.3807435000781,669.3807435000781,669.3807435000781,669.3807435000781,672.3826193000423,672.3826193000423,673.3156898000743,1,1,0.6539808000670746,0.16909689991734922,None,673.3157646000618,673.3157859999919,None,673.3158107000636,673.3158303000964,None,,,,,,,,,,,,,5,2,0,0,2025-02-26_12h21.48.497,rtmindeye,2024.2.4,59.98620317994578,2025-02-26 12h36.41.522293 -0500
blank.jpg,31,1,31,31,0,,,,,,0,0,1,2,1,"[9, 21, 31, 45, 56, 68, 69]",None,0,,,None,None,None,,,,,,,,,,,1,0,1,0,0,31,31,31,673.3326101000421,,,,,,,,,,,,,,,,,,,,,,,,,,,,,,,,,,,,,,673.3159966000821,673.3161037000827,673.3238858000841,673.3326101000421,673.3326101000421,673.3326101000421,673.3326101000421,676.3323517000536,676.3323517000536,677.3157644000603,None,0,,,None,677.3158260000637,677.3158465,None,677.3158713000594,677.3158886000747,None,677.3618758000666,677.3618758000666,,,,,,,,,,,5,2,0,0,2025-02-26_12h21.48.497,rtmindeye,2024.2.4,59.98620317994578,2025-02-26 12h36.41.522293 -0500
all_stimuli/shared1000_notspecial/notspecial_13720.png,32,0,32,32,0,,,,,,0,0,1,2,1,"[9, 21, 31, 45, 56, 68, 69]",1,1,0.7350081000477076,0.1358463999349624,None,None,None,,,,,,,,,,,1,0,1,0,0,32,32,32,677.3618758000666,,,,,,,,,,,,,,,,,,,,,,,,,,,,,,,,,,,,,,677.3160438000923,677.3160811000271,677.3602692000568,677.3618758000666,677.3618758000666,677.3618758000666,677.3618758000666,680.3657917000819,680.3657917000819,681.3325023000361,1,1,0.7350081000477076,0.1358463999349624,None,681.3325770000229,681.3325986000709,None,681.3326235000277,681.3326410000445,None,,,,,,,,,,,,,5,2,0,0,2025-02-26_12h21.48.497,rtmindeye,2024.2.4,59.98620317994578,2025-02-26 12h36.41.522293 -0500
all_stimuli/MST_pairs/pair_41_w_gym2.jpg,33,0,33,33,0,,,,,,0,0,1,2,1,"[9, 21, 31, 45, 56, 68, 69]",1,1,0.6093082000734285,0.16906029998790473,None,None,None,,,,,,,,,,,1,0,1,0,0,33,33,33,681.3744113000575,,,,,,,,,,,,,,,,,,,,,,,,,,,,,,,,,,,,,,681.3328151000896,681.3328625999857,681.3727135000518,681.3744113000575,681.3744113000575,681.3744113000575,681.3744113000575,684.3824131999863,684.3824131999863,685.3492841,1,1,0.6093082000734285,0.16906029998790473,None,685.3493571000872,685.3493797000265,None,685.3494048999855,685.3494231000077,None,,,,,,,,,,,,,5,2,0,0,2025-02-26_12h21.48.497,rtmindeye,2024.2.4,59.98620317994578,2025-02-26 12h36.41.522293 -0500
all_stimuli/special515/special_38494.jpg,34,0,34,34,0,,,,,,0,0,1,2,1,"[9, 21, 31, 45, 56, 68, 69]",1,1,0.6235029000090435,0.13999140006490052,None,None,None,,,,,,,,,,,1,0,1,0,0,34,34,34,685.3722599000903,,,,,,,,,,,,,,,,,,,,,,,,,,,,,,,,,,,,,,685.3495851000771,685.3496731000487,685.3702374000568,685.3722599000903,685.3722599000903,685.3722599000903,685.3722599000903,688.3826410000911,688.3826410000911,689.3656766000204,1,1,0.6235029000090435,0.13999140006490052,None,689.3657508000033,689.3657721000491,None,689.3657974000089,689.3658155000303,None,,,,,,,,,,,,,5,2,0,0,2025-02-26_12h21.48.497,rtmindeye,2024.2.4,59.98620317994578,2025-02-26 12h36.41.522293 -0500
all_stimuli/special515/special_10471.jpg,35,0,35,35,0,,,,,,0,0,1,2,1,"[9, 21, 31, 45, 56, 68, 69]",1,1,1.0462958000134677,0.1670400999719277,None,None,None,,,,,,,,,,,1,0,1,0,0,35,35,35,689.4054588,,,,,,,,,,,,,,,,,,,,,,,,,,,,,,,,,,,,,,689.3659813000122,689.3660249,689.4037196000572,689.4054588,689.4054588,689.4054588,689.4054588,692.4157043,692.4157043,693.3825271000387,1,1,1.0462958000134677,0.1670400999719277,None,693.3825994000072,693.3826210000552,None,693.3826450000051,693.3826625,None,,,,,,,,,,,,,5,2,0,0,2025-02-26_12h21.48.497,rtmindeye,2024.2.4,59.98620317994578,2025-02-26 12h36.41.522293 -0500
all_stimuli/special515/special_25588.jpg,36,0,36,36,0,,,,,,0,0,1,2,1,"[9, 21, 31, 45, 56, 68, 69]",1,1,0.6359343999065459,0.13675290008541197,None,None,None,,,,,,,,,,,1,0,1,0,0,36,36,36,693.4200287000276,,,,,,,,,,,,,,,,,,,,,,,,,,,,,,,,,,,,,,693.3828323000344,693.3828761000186,693.4181972000515,693.4200287000276,693.4200287000276,693.4200287000276,693.4200287000276,696.4325690000551,696.4325690000551,697.3991629,1,1,0.6359343999065459,0.13675290008541197,None,697.3992352000205,697.3992571000708,None,697.3992818000261,697.3992994000437,None,,,,,,,,,,,,,5,2,0,0,2025-02-26_12h21.48.497,rtmindeye,2024.2.4,59.98620317994578,2025-02-26 12h36.41.522293 -0500
all_stimuli/special515/special_20054.jpg,37,0,37,37,0,,,,,,0,0,1,2,1,"[9, 21, 31, 45, 56, 68, 69]",1,1,0.6978718999307603,0.15595819998998195,None,None,None,,,,,,,,,,,1,0,1,0,0,37,37,37,697.4249485000037,,,,,,,,,,,,,,,,,,,,,,,,,,,,,,,,,,,,,,697.3994575000834,697.3995009000646,697.4232439000625,697.4249485000037,697.4249485000037,697.4249485000037,697.4249485000037,700.4323485000059,700.4323485000059,701.4155518,1,1,0.6978718999307603,0.15595819998998195,None,701.4156258000294,701.4156472000759,None,701.4156717000296,701.4156898,None,,,,,,,,,,,,,5,2,0,0,2025-02-26_12h21.48.497,rtmindeye,2024.2.4,59.98620317994578,2025-02-26 12h36.41.522293 -0500
all_stimuli/special515/special_56948.jpg,38,0,38,38,0,,,,,,1,0,1,2,1,"[9, 21, 31, 45, 56, 68, 69]",2,1,1.0957331999670714,0.18883280002046376,None,None,None,,,,,,,,,,,1,0,1,0,0,38,38,38,701.4320817000698,,,,,,,,,,,,,,,,,,,,,,,,,,,,,,,,,,,,,,701.4158514,701.4158946000971,701.4276320000645,701.4320817000698,701.4320817000698,701.4320817000698,701.4320817000698,704.4323833,704.4323833,705.4158070000121,2,1,1.0957331999670714,0.18883280002046376,None,705.4158762000734,705.4158965999959,None,705.4159215000691,705.4159387000836,None,705.4371896000812,705.4371896000812,,,,,,,,,,,5,2,0,0,2025-02-26_12h21.48.497,rtmindeye,2024.2.4,59.98620317994578,2025-02-26 12h36.41.522293 -0500
all_stimuli/unchosen_nsd_1000_images/unchosen_4064_cocoid_45965.png,39,0,39,39,0,,,,,,0,0,1,2,1,"[9, 21, 31, 45, 56, 68, 69]",1,1,0.8067412000382319,0.17688769998494536,None,None,None,,,,,,,,,,,1,0,1,0,0,39,39,39,705.4371896000812,,,,,,,,,,,,,,,,,,,,,,,,,,,,,,,,,,,,,,705.4160974000115,705.4161395999836,705.4355409999844,705.4371896000812,705.4371896000812,705.4371896000812,705.4371896000812,708.4491662000073,708.4491662000073,709.4324307000497,1,1,0.8067412000382319,0.17688769998494536,None,709.4325033000205,709.4325246000662,None,709.4325497000245,709.4325679000467,None,,,,,,,,,,,,,5,2,0,0,2025-02-26_12h21.48.497,rtmindeye,2024.2.4,59.98620317994578,2025-02-26 12h36.41.522293 -0500
all_stimuli/unchosen_nsd_1000_images/unchosen_8436_cocoid_64173.png,40,0,40,40,0,,,,,,0,0,1,2,1,"[9, 21, 31, 45, 56, 68, 69]",1,1,0.6989344999892637,0.16915510001126677,None,None,None,,,,,,,,,,,1,0,1,0,0,40,40,40,709.452796,,,,,,,,,,,,,,,,,,,,,,,,,,,,,,,,,,,,,,709.4327360000461,709.4327795000281,709.4510179000208,709.452796,709.452796,709.452796,709.452796,712.4654626999982,712.4654626999982,713.4488275999902,1,1,0.6989344999892637,0.16915510001126677,None,713.4489032999845,713.4489255000371,None,713.4489494999871,713.4489672000054,None,,,,,,,,,,,,,5,2,0,0,2025-02-26_12h21.48.497,rtmindeye,2024.2.4,59.98620317994578,2025-02-26 12h36.41.522293 -0500
all_stimuli/special515/special_41710.jpg,41,0,41,41,0,,,,,,0,0,1,2,1,"[9, 21, 31, 45, 56, 68, 69]",1,1,0.8155632000416517,0.12386890000198036,None,None,None,,,,,,,,,,,1,0,1,0,0,41,41,41,713.4832267999882,,,,,,,,,,,,,,,,,,,,,,,,,,,,,,,,,,,,,,713.4491304,713.4491756000789,713.4814721000148,713.4832267999882,713.4832267999882,713.4832267999882,713.4832267999882,716.4820667000022,716.4820667000022,717.4657745000441,1,1,0.8155632000416517,0.12386890000198036,None,717.4658488000277,717.4658703,None,717.4658949000295,717.4659127000486,None,,,,,,,,,,,,,5,2,0,0,2025-02-26_12h21.48.497,rtmindeye,2024.2.4,59.98620317994578,2025-02-26 12h36.41.522293 -0500
all_stimuli/special515/special_68418.jpg,42,0,42,42,0,,,,,,0,0,1,2,1,"[9, 21, 31, 45, 56, 68, 69]",1,1,0.7631658999016508,0.1438073000172153,None,None,None,,,,,,,,,,,1,0,1,0,0,42,42,42,717.4997908000369,,,,,,,,,,,,,,,,,,,,,,,,,,,,,,,,,,,,,,717.4660765000153,717.4661242000293,717.4980425999966,717.4997908000369,717.4997908000369,717.4997908000369,717.4997908000369,720.4992151,720.4992151,721.4823246999877,1,1,0.7631658999016508,0.1438073000172153,None,721.4823992000893,721.4824205000186,None,721.4824456000933,721.4824637999991,None,,,,,,,,,,,,,5,2,0,0,2025-02-26_12h21.48.497,rtmindeye,2024.2.4,59.98620317994578,2025-02-26 12h36.41.522293 -0500
all_stimuli/MST_pairs/pair_15_19_56.png,43,0,43,43,0,,,,,,0,0,1,2,1,"[9, 21, 31, 45, 56, 68, 69]",1,1,0.9183794999262318,0.14389850001316518,None,None,None,,,,,,,,,,,1,0,1,0,0,43,43,43,721.5203958000056,,,,,,,,,,,,,,,,,,,,,,,,,,,,,,,,,,,,,,721.4826239,721.4826671000337,721.5185734999832,721.5203958000056,721.5203958000056,721.5203958000056,721.5203958000056,724.5323056000052,724.5323056000052,725.4991634000326,1,1,0.9183794999262318,0.14389850001316518,None,725.4992374,725.4992594000651,None,725.4992843000218,725.4993032000493,None,,,,,,,,,,,,,5,2,0,0,2025-02-26_12h21.48.497,rtmindeye,2024.2.4,59.98620317994578,2025-02-26 12h36.41.522293 -0500
all_stimuli/MST_pairs/pair_40_w_escalator2.jpg,44,0,44,44,0,,,,,,1,0,1,2,1,"[9, 21, 31, 45, 56, 68, 69]",2,1,1.3574996999232098,0.20897959999274462,None,None,None,,,,,,,,,,,1,0,1,0,0,44,44,44,725.5153258,,,,,,,,,,,,,,,,,,,,,,,,,,,,,,,,,,,,,,725.4994651000015,725.4995085999835,725.5126362000592,725.5153258,725.5153258,725.5153258,725.5153258,728.5155902000843,728.5155902000843,729.4991742999991,2,1,1.3574996999232098,0.20897959999274462,None,729.4992429000558,729.4992636,None,729.4992882000515,729.4993058000691,None,729.5153381000273,729.5153381000273,,,,,,,,,,,5,2,0,0,2025-02-26_12h21.48.497,rtmindeye,2024.2.4,59.98620317994578,2025-02-26 12h36.41.522293 -0500
blank.jpg,45,1,45,45,0,,,,,,0,0,1,2,1,"[9, 21, 31, 45, 56, 68, 69]",None,0,,,None,None,None,,,,,,,,,,,1,0,1,0,0,45,45,45,729.5153381000273,,,,,,,,,,,,,,,,,,,,,,,,,,,,,,,,,,,,,,729.4994772000937,729.4995166000444,729.5110054999823,729.5153381000273,729.5153381000273,729.5153381000273,729.5153381000273,732.5154797000578,732.5154797000578,733.4992419000482,None,0,,,None,733.4993026000448,733.4993233,None,733.4993483000435,733.4993675000733,None,733.5313702999847,733.5313702999847,,,,,,,,,,,5,2,0,0,2025-02-26_12h21.48.497,rtmindeye,2024.2.4,59.98620317994578,2025-02-26 12h36.41.522293 -0500
all_stimuli/unchosen_nsd_1000_images/unchosen_5484_cocoid_19358.png,46,0,46,46,0,,,,,,0,0,1,2,1,"[9, 21, 31, 45, 56, 68, 69]",1,1,0.8085337999509647,0.13999120006337762,None,None,None,,,,,,,,,,,1,0,1,0,0,46,46,46,733.5313702999847,,,,,,,,,,,,,,,,,,,,,,,,,,,,,,,,,,,,,,733.4995189,733.4995569000021,733.5295786000788,733.5313702999847,733.5313702999847,733.5313702999847,733.5313702999847,736.5322388000786,736.5322388000786,737.5155447,1,1,0.8085337999509647,0.13999120006337762,None,737.5156166000525,737.5156381999841,None,737.5156623000512,737.5156800000696,None,,,,,,,,,,,,,5,2,0,0,2025-02-26_12h21.48.497,rtmindeye,2024.2.4,59.98620317994578,2025-02-26 12h36.41.522293 -0500
all_stimuli/special515/special_10107.jpg,47,0,47,47,0,,,,,,0,0,1,2,1,"[9, 21, 31, 45, 56, 68, 69]",1,1,0.7131641,0.14992050000000745,None,None,None,,,,,,,,,,,1,0,1,0,0,47,47,47,737.5586225000443,,,,,,,,,,,,,,,,,,,,,,,,,,,,,,,,,,,,,,737.5158432000317,737.5158867000137,737.5568500000518,737.5586225000443,737.5586225000443,737.5586225000443,737.5586225000443,740.5657545999857,740.5657545999857,741.5323068000143,1,1,0.7131641,0.14992050000000745,None,741.5323831000132,741.5324056000682,None,741.5324314000318,741.5324506000616,None,,,,,,,,,,,,,5,2,0,0,2025-02-26_12h21.48.497,rtmindeye,2024.2.4,59.98620317994578,2025-02-26 12h36.41.522293 -0500
all_stimuli/shared1000_notspecial/notspecial_52598.png,48,0,48,48,0,,,,,,0,0,1,2,1,"[9, 21, 31, 45, 56, 68, 69]",1,1,0.6659890000009909,0.16604479996021837,None,None,None,,,,,,,,,,,1,0,1,0,0,48,48,48,741.6288529000012,,,,,,,,,,,,,,,,,,,,,,,,,,,,,,,,,,,,,,741.5326177000534,741.5326615000376,741.6254399,741.6288529000012,741.6288529000012,741.6288529000012,741.6288529000012,744.6321063000942,744.6321063000942,745.549008,1,1,0.6659890000009909,0.16604479996021837,None,745.5490828000475,745.5491050999844,None,745.5491301000584,745.5491483000806,None,,,,,,,,,,,,,5,2,0,0,2025-02-26_12h21.48.497,rtmindeye,2024.2.4,59.98620317994578,2025-02-26 12h36.41.522293 -0500
all_stimuli/MST_pairs/pair_17_21_33.png,49,0,49,49,0,,,,,,0,0,1,2,1,"[9, 21, 31, 45, 56, 68, 69]",1,1,0.8197142999852076,0.14796850003767759,None,None,None,,,,,,,,,,,1,0,1,0,0,49,49,49,745.5969330000225,,,,,,,,,,,,,,,,,,,,,,,,,,,,,,,,,,,,,,745.5493213000009,745.5493650999852,745.5951169000473,745.5969330000225,745.5969330000225,745.5969330000225,745.5969330000225,748.5990618000505,748.5990618000505,749.5656059000175,1,1,0.8197142999852076,0.14796850003767759,None,749.5656793999951,749.5657003000379,None,749.5657247999916,749.5657427000115,None,,,,,,,,,,,,,5,2,0,0,2025-02-26_12h21.48.497,rtmindeye,2024.2.4,59.98620317994578,2025-02-26 12h36.41.522293 -0500
all_stimuli/MST_pairs/pair_40_w_escalator1.jpg,50,0,50,50,0,,,,,,0,0,1,2,1,"[9, 21, 31, 45, 56, 68, 69]",1,1,0.94617,0.17797279998194426,None,None,None,,,,,,,,,,,1,0,1,0,0,50,50,50,749.5977517000865,,,,,,,,,,,,,,,,,,,,,,,,,,,,,,,,,,,,,,749.5659058000892,749.5659489000682,749.5960401000921,749.5977517000865,749.5977517000865,749.5977517000865,749.5977517000865,752.5988760000328,752.5988760000328,753.5823372000596,1,1,0.94617,0.17797279998194426,None,753.5824097000295,753.5824313000776,None,753.5824565000366,753.5824749000603,None,,,,,,,,,,,,,5,2,0,0,2025-02-26_12h21.48.497,rtmindeye,2024.2.4,59.98620317994578,2025-02-26 12h36.41.522293 -0500
all_stimuli/unchosen_nsd_1000_images/unchosen_2603_cocoid_72583.png,51,0,51,51,0,,,,,,0,0,1,2,1,"[9, 21, 31, 45, 56, 68, 69]",1,1,0.6502310000360012,0.18483359995298088,None,None,None,,,,,,,,,,,1,0,1,0,0,51,51,51,753.6246875000652,,,,,,,,,,,,,,,,,,,,,,,,,,,,,,,,,,,,,,753.5826422000537,753.5826856000349,753.6230408999836,753.6246875000652,753.6246875000652,753.6246875000652,753.6246875000652,756.6320969000226,756.6320969000226,757.5988306000363,1,1,0.6502310000360012,0.18483359995298088,None,757.5988999999827,757.5989217000315,None,757.5989457999822,757.5989633999998,None,,,,,,,,,,,,,5,2,0,0,2025-02-26_12h21.48.497,rtmindeye,2024.2.4,59.98620317994578,2025-02-26 12h36.41.522293 -0500
all_stimuli/special515/special_65253.jpg,52,0,52,52,0,,,,,,0,0,1,2,1,"[9, 21, 31, 45, 56, 68, 69]",1,1,0.6650004000402987,0.1311094999546185,None,None,None,,,,,,,,,,,1,0,1,0,0,52,52,52,757.6318020999897,,,,,,,,,,,,,,,,,,,,,,,,,,,,,,,,,,,,,,757.5991199000273,757.5991639000131,757.6300435999874,757.6318020999897,757.6318020999897,757.6318020999897,757.6318020999897,760.6320456000976,760.6320456000976,761.6154170000227,1,1,0.6650004000402987,0.1311094999546185,None,761.6154911000049,761.6155130000552,None,761.6155390000204,761.6155569000402,None,,,,,,,,,,,,,5,2,0,0,2025-02-26_12h21.48.497,rtmindeye,2024.2.4,59.98620317994578,2025-02-26 12h36.41.522293 -0500
all_stimuli/shared1000_notspecial/notspecial_71186.png,53,0,53,53,0,,,,,,0,0,1,2,1,"[9, 21, 31, 45, 56, 68, 69]",1,1,0.8743739000055939,0.14389209996443242,None,None,None,,,,,,,,,,,1,0,1,0,0,53,53,53,761.6494141999865,,,,,,,,,,,,,,,,,,,,,,,,,,,,,,,,,,,,,,761.6157210000092,761.6157646,761.6478011000436,761.6494141999865,761.6494141999865,761.6494141999865,761.6494141999865,764.6489854999818,764.6489854999818,765.6322090000613,1,1,0.8743739000055939,0.14389209996443242,None,765.6322822000366,765.6323037000839,None,765.6323283000384,765.6323456000537,None,,,,,,,,,,,,,5,2,0,0,2025-02-26_12h21.48.497,rtmindeye,2024.2.4,59.98620317994578,2025-02-26 12h36.41.522293 -0500
all_stimuli/MST_pairs/pair_44_w_log_cabin2.jpg,54,0,54,54,0,,,,,,1,0,1,2,1,"[9, 21, 31, 45, 56, 68, 69]",2,1,0.9124104999937117,0.17699280008673668,None,None,None,,,,,,,,,,,1,0,1,0,0,54,54,54,765.6484788000816,,,,,,,,,,,,,,,,,,,,,,,,,,,,,,,,,,,,,,765.6325068000006,765.6325501999818,765.6465613000328,765.6484788000816,765.6484788000816,765.6484788000816,765.6484788000816,768.6486211,768.6486211,769.6323038000846,2,1,0.9124104999937117,0.17699280008673668,None,769.6323746000417,769.6323950000806,None,769.6324203000404,769.6324380000588,None,769.6551674,769.6551674,,,,,,,,,,,5,2,0,0,2025-02-26_12h21.48.497,rtmindeye,2024.2.4,59.98620317994578,2025-02-26 12h36.41.522293 -0500
all_stimuli/unchosen_nsd_1000_images/unchosen_7694_cocoid_28365.png,55,0,55,55,0,,,,,,0,0,1,2,1,"[9, 21, 31, 45, 56, 68, 69]",1,1,0.8846771999960765,0.19382669997867197,None,None,None,,,,,,,,,,,1,0,1,0,0,55,55,55,769.6551674,,,,,,,,,,,,,,,,,,,,,,,,,,,,,,,,,,,,,,769.6325940000825,769.6326318,769.6535405000905,769.6551674,769.6551674,769.6551674,769.6551674,772.6655569000868,772.6655569000868,773.6490904000821,1,1,0.8846771999960765,0.19382669997867197,None,773.6491661000764,773.6491881000111,None,773.6492130000843,773.6492309999885,None,,,,,,,,,,,,,5,2,0,0,2025-02-26_12h21.48.497,rtmindeye,2024.2.4,59.98620317994578,2025-02-26 12h36.41.522293 -0500
blank.jpg,56,1,56,56,0,,,,,,0,0,1,2,1,"[9, 21, 31, 45, 56, 68, 69]",None,0,,,None,None,None,,,,,,,,,,,1,0,1,0,0,56,56,56,773.6656903000548,,,,,,,,,,,,,,,,,,,,,,,,,,,,,,,,,,,,,,773.6493916000472,773.6494374000467,773.6576397999888,773.6656903000548,773.6656903000548,773.6656903000548,773.6656903000548,776.6654351000907,776.6654351000907,777.6490835000295,None,0,,,None,777.649148,777.6491689000977,None,777.6491949000629,777.6492122000782,None,777.6831389000872,777.6831389000872,,,,,,,,,,,5,2,0,0,2025-02-26_12h21.48.497,rtmindeye,2024.2.4,59.98620317994578,2025-02-26 12h36.41.522293 -0500
all_stimuli/special515/special_6521.jpg,57,0,57,57,0,,,,,,0,0,1,2,1,"[9, 21, 31, 45, 56, 68, 69]",1,1,0.7015006999718025,0.1789611999411136,None,None,None,,,,,,,,,,,1,0,1,0,0,57,57,57,777.6831389000872,,,,,,,,,,,,,,,,,,,,,,,,,,,,,,,,,,,,,,777.649368,777.6494171000086,777.6813869,777.6831389000872,777.6831389000872,777.6831389000872,777.6831389000872,780.6821229000343,780.6821229000343,781.6656387000112,1,1,0.7015006999718025,0.1789611999411136,None,781.6657113999827,781.6657321000239,None,781.6657571000978,781.6657753000036,None,,,,,,,,,,,,,5,2,0,0,2025-02-26_12h21.48.497,rtmindeye,2024.2.4,59.98620317994578,2025-02-26 12h36.41.522293 -0500
all_stimuli/special515/special_8509.jpg,58,0,58,58,0,,,,,,1,0,1,2,1,"[9, 21, 31, 45, 56, 68, 69]",1,0,0.5287325,0.17509789997711778,None,None,None,,,,,,,,,,,1,0,1,0,0,58,58,58,781.6920819000807,,,,,,,,,,,,,,,,,,,,,,,,,,,,,,,,,,,,,,781.6659343000501,781.6659778000321,781.6902121000458,781.6920819000807,781.6920819000807,781.6920819000807,781.6920819000807,784.6988851000788,784.6988851000788,785.6821452000877,1,0,0.5287325,0.17509789997711778,None,785.6822221000912,785.6822441000259,None,785.6822692999849,785.6822875000071,None,,,,,,,,,,,,,5,2,0,0,2025-02-26_12h21.48.497,rtmindeye,2024.2.4,59.98620317994578,2025-02-26 12h36.41.522293 -0500
all_stimuli/special515/special_36623.jpg,59,0,59,59,0,,,,,,1,0,1,2,1,"[9, 21, 31, 45, 56, 68, 69]",2,1,0.8964359000092372,0.2040179999312386,None,None,None,,,,,,,,,,,1,0,1,0,0,59,59,59,785.7192261000164,,,,,,,,,,,,,,,,,,,,,,,,,,,,,,,,,,,,,,785.6824571000179,785.6825005999999,785.7174401000375,785.7192261000164,785.7192261000164,785.7192261000164,785.7192261000164,788.7318894000491,788.7318894000491,789.6986847000662,2,1,0.8964359000092372,0.2040179999312386,None,789.6987666999921,789.6987889000447,None,789.6988145000068,789.6988324000267,None,,,,,,,,,,,,,5,2,0,0,2025-02-26_12h21.48.497,rtmindeye,2024.2.4,59.98620317994578,2025-02-26 12h36.41.522293 -0500
all_stimuli/MST_pairs/pair_44_w_log_cabin1.jpg,60,0,60,60,0,,,,,,0,0,1,2,1,"[9, 21, 31, 45, 56, 68, 69]",1,1,1.3326755999587476,0.2248670000117272,None,None,None,,,,,,,,,,,1,0,1,0,0,60,60,60,789.7222210000036,,,,,,,,,,,,,,,,,,,,,,,,,,,,,,,,,,,,,,789.6990002000239,789.6990439000074,789.7205219,789.7222210000036,789.7222210000036,789.7222210000036,789.7222210000036,792.7319118999876,792.7319118999876,793.7155885000248,1,1,1.3326755999587476,0.2248670000117272,None,793.7156613,793.7156829000451,None,793.7157077000011,793.7157257000217,None,,,,,,,,,,,,,5,2,0,0,2025-02-26_12h21.48.497,rtmindeye,2024.2.4,59.98620317994578,2025-02-26 12h36.41.522293 -0500
all_stimuli/shared1000_notspecial/notspecial_9978.png,61,0,61,61,0,,,,,,0,0,1,2,1,"[9, 21, 31, 45, 56, 68, 69]",1,1,1.1522707999683917,0.20506990002468228,None,None,None,,,,,,,,,,,1,0,1,0,0,61,61,61,793.7494173999876,,,,,,,,,,,,,,,,,,,,,,,,,,,,,,,,,,,,,,793.7158958000364,793.7159396000206,793.7476950000273,793.7494173999876,793.7494173999876,793.7494173999876,793.7494173999876,796.7487849000609,796.7487849000609,797.7320683000144,1,1,1.1522707999683917,0.20506990002468228,None,797.7321400000947,797.7321614000248,None,797.7321857000934,797.7322037999984,None,,,,,,,,,,,,,5,2,0,0,2025-02-26_12h21.48.497,rtmindeye,2024.2.4,59.98620317994578,2025-02-26 12h36.41.522293 -0500
all_stimuli/special515/special_45945.jpg,62,0,62,62,0,,,,,,0,0,1,2,1,"[9, 21, 31, 45, 56, 68, 69]",1,1,0.9467265999410301,0.13909990002866834,None,None,None,,,,,,,,,,,1,0,1,0,0,62,62,62,797.7648882,,,,,,,,,,,,,,,,,,,,,,,,,,,,,,,,,,,,,,797.7323655000655,797.7324083000422,797.7631315999897,797.7648882,797.7648882,797.7648882,797.7648882,800.7653837000253,800.7653837000253,801.7489608000033,1,1,0.9467265999410301,0.13909990002866834,None,801.7490349999862,801.7490569000365,None,801.7490830000024,801.7491010000231,None,,,,,,,,,,,,,5,2,0,0,2025-02-26_12h21.48.497,rtmindeye,2024.2.4,59.98620317994578,2025-02-26 12h36.41.522293 -0500
all_stimuli/MST_pairs/pair_46_w_pool1.jpg,63,0,63,63,0,,,,,,0,0,1,2,1,"[9, 21, 31, 45, 56, 68, 69]",1,1,0.8974788000341505,0.15518559992779046,None,None,None,,,,,,,,,,,1,0,1,0,0,63,63,63,801.8202473000856,,,,,,,,,,,,,,,,,,,,,,,,,,,,,,,,,,,,,,801.7492734000552,801.7493172000395,801.8168098999886,801.8202473000856,801.8202473000856,801.8202473000856,801.8202473000856,804.8317696000449,804.8317696000449,805.7655240000458,1,1,0.8974788000341505,0.15518559992779046,None,805.7655977,805.7656188000692,None,805.7656438000267,805.7656619000481,None,,,,,,,,,,,,,5,2,0,0,2025-02-26_12h21.48.497,rtmindeye,2024.2.4,59.98620317994578,2025-02-26 12h36.41.522293 -0500
all_stimuli/MST_pairs/pair_8_12_0.png,64,0,64,64,0,,,,,,0,0,1,2,1,"[9, 21, 31, 45, 56, 68, 69]",2,0,1.2771812999853864,0.19908239995129406,None,None,None,,,,,,,,,,,1,0,1,0,0,64,64,64,805.8015559000196,,,,,,,,,,,,,,,,,,,,,,,,,,,,,,,,,,,,,,805.7658271000255,805.7658706000075,805.7997541000368,805.8015559000196,805.8015559000196,805.8015559000196,805.8015559000196,808.8153769,808.8153769,809.7821418000385,2,0,1.2771812999853864,0.19908239995129406,None,809.7822165000252,809.7822389000794,None,809.7822630000301,809.7822804000461,None,,,,,,,,,,,,,5,2,0,0,2025-02-26_12h21.48.497,rtmindeye,2024.2.4,59.98620317994578,2025-02-26 12h36.41.522293 -0500
all_stimuli/special515/special_41097.jpg,65,0,65,65,0,,,,,,0,0,1,2,1,"[9, 21, 31, 45, 56, 68, 69]",1,1,0.9503356999484822,0.15677510004024953,None,None,None,,,,,,,,,,,1,0,1,0,0,65,65,65,809.8115807999857,,,,,,,,,,,,,,,,,,,,,,,,,,,,,,,,,,,,,,809.7824455000227,809.7824888000032,809.8098281000275,809.8115807999857,809.8115807999857,809.8115807999857,809.8115807999857,812.8151523000561,812.8151523000561,813.7989934000652,1,1,0.9503356999484822,0.15677510004024953,None,813.7990655000322,813.7990876,None,813.7991123000393,813.7991304000607,None,,,,,,,,,,,,,5,2,0,0,2025-02-26_12h21.48.497,rtmindeye,2024.2.4,59.98620317994578,2025-02-26 12h36.41.522293 -0500
all_stimuli/special515/special_37224.jpg,66,0,66,66,0,,,,,,0,0,1,2,1,"[9, 21, 31, 45, 56, 68, 69]",1,1,0.8113762999419123,0.17997810000088066,None,None,None,,,,,,,,,,,1,0,1,0,0,66,66,66,813.8345193000278,,,,,,,,,,,,,,,,,,,,,,,,,,,,,,,,,,,,,,813.7992929000175,813.7993403000291,813.8327852000948,813.8345193000278,813.8345193000278,813.8345193000278,813.8345193000278,816.8486128000077,816.8486128000077,817.8155400000978,1,1,0.8113762999419123,0.17997810000088066,None,817.8156111000571,817.8156327999895,None,817.8156572000589,817.8156747000758,None,,,,,,,,,,,,,5,2,0,0,2025-02-26_12h21.48.497,rtmindeye,2024.2.4,59.98620317994578,2025-02-26 12h36.41.522293 -0500
