current_image,trial_index,is_blank_trial,thisN,thisTrialN,thisRepN,press_if_repeat_2.keys,press_if_repeat_2.corr,press_if_repeat_2.rt,press_if_repeat_2.duration,all_keys_pressed_2.keys,is_repeat,is_new_run,run_num,sess_num,is_not_last_trial,all_blanks_list,press_if_repeat.keys,press_if_repeat.corr,press_if_repeat.rt,press_if_repeat.duration,all_keys_pressed.keys,key_resp_5.keys,key_resp_4.keys,key_resp_5.rt,key_resp_5.duration,key_resp_4.rt,key_resp_4.duration,practice.thisRepN,practice.thisTrialN,practice.thisN,practice.thisIndex,loop_runs.thisRepN,loop_runs.thisTrialN,loop_runs.thisN,loop_runs.thisIndex,loop_all_images.thisRepN,loop_all_images.thisTrialN,loop_all_images.thisN,loop_all_images.thisIndex,thisRow.t,notes,set_up.started,set_up.stopped,practice_continue.started,key_resp_6.started,text_6.started,practice_continue.stopped,key_resp_6.keys,key_resp_6.rt,key_resp_6.duration,practice_trial.started,image_2.started,press_if_repeat_2.started,polygon_3.started,all_keys_pressed_2.started,image_2.stopped,press_if_repeat_2.stopped,practice_trial.stopped,practice.press_if_repeat_2.keys,practice.press_if_repeat_2.corr,practice.press_if_repeat_2.rt,practice.press_if_repeat_2.duration,practice.all_keys_pressed_2.keys,testing_continue.started,key_resp_7.started,text_7.started,testing_continue.stopped,key_resp_7.keys,key_resp_7.rt,key_resp_7.duration,waiting_fmri.started,key_resp_2.started,text_3.started,waiting_fmri.stopped,key_resp_2.keys,key_resp_2.rt,key_resp_2.duration,set_skips_and_correct_key.started,set_skips_and_correct_key.stopped,trial.started,image.started,press_if_repeat.started,polygon.started,all_keys_pressed.started,image.stopped,press_if_repeat.stopped,trial.stopped,loop_all_images.press_if_repeat.keys,loop_all_images.press_if_repeat.corr,loop_all_images.press_if_repeat.rt,loop_all_images.press_if_repeat.duration,loop_all_images.all_keys_pressed.keys,run_wait2_2.started,run_wait2_2.stopped,loop_all_images.key_resp_5.keys,waiting_fmri_2.started,waiting_fmri_2.stopped,loop_all_images.key_resp_4.keys,polygon.stopped,all_keys_pressed.stopped,key_resp_5.started,text_5.started,loop_all_images.key_resp_5.rt,loop_all_images.key_resp_5.duration,key_resp_4.started,text_4.started,loop_all_images.key_resp_4.rt,loop_all_images.key_resp_4.duration,participant,session (1 2 or 3),starting_run,skip_practice,date,expName,psychopyVersion,frameRate,expStart,
,,,,,,,,,,,,,,,,,,,,,,,,,,,,,,,,,,,,,,,,,,0.0017681999888736755,0.001829899993026629,,,,,,,,,,,,,,,,,,,,,,,,,,,,,,,,,,,,,,,,,,,,,,,,,,,,,,,,,,,,,,,,,,8,1,0,0,2025-06-12_13h19.24.394,rtmindeye,2024.2.4,59.93913780355433,2025-06-12 13h19.37.622275 -0400,
,,,,,,,,,,,,,,,,,,,,,,,,,,,,,,,,,,,,,,,,,,,,0.006085799977881834,0.014299100002972409,0.014299100002972409,6.839979399985168,1,6.809489299979759,None,,,,,,,,,,,,,,,,,,,,,,,,,,,,,,,,,,,,,,,,,,,,,,,,,,,,,,,,,,,8,1,0,0,2025-06-12_13h19.24.394,rtmindeye,2024.2.4,59.93913780355433,2025-06-12 13h19.37.622275 -0400,
practice_images/w_kitchen2.jpg,0,0,0,0,0,1,0,1.3569892000232358,0.4707590999896638,None,,,,,,,,,,,,,,,,,,0,0,0,0,,,,,,,,,6.886898400000064,,,,,,,,,,,6.884373099979712,6.886898400000064,6.886898400000064,6.886898400000064,6.886898400000064,9.897833099996205,9.897833099996205,10.847853999992367,1,0,1.3569892000232358,0.4707590999896638,None,,,,,,,,,,,,,,,,,,,,,,,,,,,,,,,,,,,,,,,,,,,,,,8,1,0,0,2025-06-12_13h19.24.394,rtmindeye,2024.2.4,59.93913780355433,2025-06-12 13h19.37.622275 -0400,
practice_images/w_boardwalk2.jpg,1,0,1,1,0,1,0,0.7932258999790065,0.6201023000176065,None,,,,,,,,,,,,,,,,,,0,1,1,1,,,,,,,,,10.866542000003392,,,,,,,,,,,10.864778499992099,10.866542000003392,10.866542000003392,10.866542000003392,10.866542000003392,13.880987199983792,13.880987199983792,14.847963499982143,1,0,0.7932258999790065,0.6201023000176065,None,,,,,,,,,,,,,,,,,,,,,,,,,,,,,,,,,,,,,,,,,,,,,,8,1,0,0,2025-06-12_13h19.24.394,rtmindeye,2024.2.4,59.93913780355433,2025-06-12 13h19.37.622275 -0400,
practice_images/w_monument2.jpg,2,0,2,2,0,1,0,0.5632021000201348,0.24398749999818392,None,,,,,,,,,,,,,,,,,,0,2,2,2,,,,,,,,,14.86460959998658,,,,,,,,,,,14.860124899976654,14.86460959998658,14.86460959998658,14.86460959998658,14.86460959998658,17.864384599990444,17.864384599990444,18.847914799989667,1,0,0.5632021000201348,0.24398749999818392,None,,,,,,,,,,,,,,,,,,,,,,,,,,,,,,,,,,,,,,,,,,,,,,8,1,0,0,2025-06-12_13h19.24.394,rtmindeye,2024.2.4,59.93913780355433,2025-06-12 13h19.37.622275 -0400,
practice_images/w_auditorium2.jpg,3,0,3,3,0,1,0,0.6195072999980766,0.2970500999945216,None,,,,,,,,,,,,,,,,,,0,3,3,3,,,,,,,,,18.86419619998196,,,,,,,,,,,18.861346199992113,18.86419619998196,18.86419619998196,18.86419619998196,18.86419619998196,21.864365899993572,21.864365899993572,22.84770149999531,1,0,0.6195072999980766,0.2970500999945216,None,,,,,,,,,,,,,,,,,,,,,,,,,,,,,,,,,,,,,,,,,,,,,,8,1,0,0,2025-06-12_13h19.24.394,rtmindeye,2024.2.4,59.93913780355433,2025-06-12 13h19.37.622275 -0400,
practice_images/w_kitchen2.jpg,4,0,4,4,0,2,0,0.7864185000071302,0.2701268999953754,None,,,,,,,,,,,,,,,,,,0,4,4,4,,,,,,,,,22.864266099990346,,,,,,,,,,,22.86024149999139,22.864266099990346,22.864266099990346,22.864266099990346,22.864266099990346,25.864310499979183,25.864310499979183,26.847679999977117,2,0,0.7864185000071302,0.2701268999953754,None,,,,,,,,,,,,,,,,,,,,,,,,,,,,,,,,,,,,,,,,,,,,,,8,1,0,0,2025-06-12_13h19.24.394,rtmindeye,2024.2.4,59.93913780355433,2025-06-12 13h19.37.622275 -0400,
practice_images/w_auditorium1.jpg,5,0,5,5,0,2,0,0.817661400011275,0.29288009999436326,None,,,,,,,,,,,,,,,,,,0,5,5,5,,,,,,,,,26.87418849999085,,,,,,,,,,,26.87255499997991,26.87418849999085,26.87418849999085,26.87418849999085,26.87418849999085,29.880931799998507,29.880931799998507,30.847989699977916,2,0,0.817661400011275,0.29288009999436326,None,,,,,,,,,,,,,,,,,,,,,,,,,,,,,,,,,,,,,,,,,,,,,,8,1,0,0,2025-06-12_13h19.24.394,rtmindeye,2024.2.4,59.93913780355433,2025-06-12 13h19.37.622275 -0400,
practice_images/w_bedroom2.jpg,6,0,6,6,0,1,0,0.668833400006406,0.23590669999248348,None,,,,,,,,,,,,,,,,,,0,6,6,6,,,,,,,,,30.87204180000117,,,,,,,,,,,30.87039939998067,30.87204180000117,30.87204180000117,30.87204180000117,30.87204180000117,33.88093579999986,33.88093579999986,34.84792249999009,1,0,0.668833400006406,0.23590669999248348,None,,,,,,,,,,,,,,,,,,,,,,,,,,,,,,,,,,,,,,,,,,,,,,8,1,0,0,2025-06-12_13h19.24.394,rtmindeye,2024.2.4,59.93913780355433,2025-06-12 13h19.37.622275 -0400,
practice_images/w_kitchen1.jpg,7,0,7,7,0,2,0,0.8477904000028502,0.2111404000024777,None,,,,,,,,,,,,,,,,,,0,7,7,7,,,,,,,,,34.863908999977866,,,,,,,,,,,34.86227289997623,34.863908999977866,34.863908999977866,34.863908999977866,34.863908999977866,37.86444509998546,37.86444509998546,38.84778619999997,2,0,0.8477904000028502,0.2111404000024777,None,,,,,,,,,,,,,,,,,,,,,,,,,,,,,,,,,,,,,,,,,,,,,,8,1,0,0,2025-06-12_13h19.24.394,rtmindeye,2024.2.4,59.93913780355433,2025-06-12 13h19.37.622275 -0400,
practice_images/w_bedroom1.jpg,8,0,8,8,0,2,0,0.7467295999813359,0.21685930000967346,None,,,,,,,,,,,,,,,,,,0,8,8,8,,,,,,,,,38.864178599993465,,,,,,,,,,,38.86037059998489,38.864178599993465,38.864178599993465,38.864178599993465,38.864178599993465,41.86441379997996,41.86441379997996,42.84792679999373,2,0,0.7467295999813359,0.21685930000967346,None,,,,,,,,,,,,,,,,,,,,,,,,,,,,,,,,,,,,,,,,,,,,,,8,1,0,0,2025-06-12_13h19.24.394,rtmindeye,2024.2.4,59.93913780355433,2025-06-12 13h19.37.622275 -0400,
practice_images/w_monument2.jpg,9,0,9,9,0,2,0,0.6885517000046093,0.24691769998753443,None,,,,,,,,,,,,,,,,,,0,9,9,9,,,,,,,,,42.864234999986365,,,,,,,,,,,42.85850849997951,42.864234999986365,42.864234999986365,42.864234999986365,42.864234999986365,45.86441029998241,45.86441029998241,46.84804349998012,2,0,0.6885517000046093,0.24691769998753443,None,,,,,,,,,,,,,,,,,,,,,,,,,,,,,,,,,,,,,,,,,,,,,,8,1,0,0,2025-06-12_13h19.24.394,rtmindeye,2024.2.4,59.93913780355433,2025-06-12 13h19.37.622275 -0400,
,,,,,,,,,,,,,,,,,,,,,,,,,,,,,,,,,,,,,,,,,,,,,,,,,,,,,,,,,,,,,,,,46.905464699986624,46.908055399981095,46.908055399981095,66.4311955999874,1,19.51782240002649,None,,,,,,,,,,,,,,,,,,,,,,,,,,,,,,,,,,,,,,,8,1,0,0,2025-06-12_13h19.24.394,rtmindeye,2024.2.4,59.93913780355433,2025-06-12 13h19.37.622275 -0400,
,,,,,,,,,,,,,,,,,,,,,,,,,,,,,,,,,,,,,,,,,,,,,,,,,,,,,,,,,,,,,,,,,,,,,,,66.43123749998631,66.44733129997621,66.44733129997621,204.2140553999925,equal,137.7653844000015,None,,,,,,,,,,,,,,,,,,,,,,,,,,,,,,,,8,1,0,0,2025-06-12_13h19.24.394,rtmindeye,2024.2.4,59.93913780355433,2025-06-12 13h19.37.622275 -0400,
all_stimuli/special515/special_13613.jpg,0,0,0,0,0,,,,,,0,0,0,1,1,"[9, 21, 31, 45, 56, 68, 69]",1,1,0.7288860999979079,0.3990594999922905,None,None,None,,,,,,,,,0,0,0,0,0,0,0,0,204.30974830000196,,,,,,,,,,,,,,,,,,,,,,,,,,,,,,,,,,,,,,204.2400330999808,204.2401321999787,204.30603269999847,204.30974830000196,204.30974830000196,204.30974830000196,204.30974830000196,207.31405220000306,207.31405220000306,208.24746169999707,1,1,0.7288860999979079,0.3990594999922905,None,208.24753259998397,208.2475562999898,None,208.24757999999565,208.24759819998872,None,,,,,,,,,,,8,1,0,0,2025-06-12_13h19.24.394,rtmindeye,2024.2.4,59.93913780355433,2025-06-12 13h19.37.622275 -0400,
all_stimuli/shared1000_notspecial/notspecial_31049.png,1,0,1,1,0,,,,,,0,0,0,1,1,"[9, 21, 31, 45, 56, 68, 69]",1,1,0.7208579999860376,0.46716560001368634,None,None,None,,,,,,,,,0,0,0,0,0,1,1,1,208.28272149999975,,,,,,,,,,,,,,,,,,,,,,,,,,,,,,,,,,,,,,208.24776129997917,208.24780799998553,208.28107229998568,208.28272149999975,208.28272149999975,208.28272149999975,208.28272149999975,211.29735939999227,211.29735939999227,212.26379420000012,1,1,0.7208579999860376,0.46716560001368634,None,212.26386429998092,212.2638868999784,None,212.26391049998347,212.2639287999773,None,,,,,,,,,,,8,1,0,0,2025-06-12_13h19.24.394,rtmindeye,2024.2.4,59.93913780355433,2025-06-12 13h19.37.622275 -0400,
all_stimuli/special515/special_28096.jpg,2,0,2,2,0,,,,,,0,0,0,1,1,"[9, 21, 31, 45, 56, 68, 69]",1,1,0.717474700009916,0.2759477999934461,None,None,None,,,,,,,,,0,0,0,0,0,2,2,2,212.30108479998307,,,,,,,,,,,,,,,,,,,,,,,,,,,,,,,,,,,,,,212.26409079998848,212.26413440000033,212.298547399987,212.30108479998307,212.30108479998307,212.30108479998307,212.30108479998307,215.31423019999056,215.31423019999056,216.26434129997506,1,1,0.717474700009916,0.2759477999934461,None,216.26441219999106,216.2644337999809,None,216.26445729998522,216.264475199976,None,,,,,,,,,,,8,1,0,0,2025-06-12_13h19.24.394,rtmindeye,2024.2.4,59.93913780355433,2025-06-12 13h19.37.622275 -0400,
all_stimuli/shared1000_notspecial/notspecial_68471.png,3,0,3,3,0,,,,,,0,0,0,1,1,"[9, 21, 31, 45, 56, 68, 69]",1,1,0.6140331999922637,0.2889951000106521,None,None,None,,,,,,,,,0,0,0,0,0,3,3,3,216.29549019999104,,,,,,,,,,,,,,,,,,,,,,,,,,,,,,,,,,,,,,216.26463179997518,216.2646790999861,216.29387149997638,216.29549019999104,216.29549019999104,216.29549019999104,216.29549019999104,219.29728800000157,219.29728800000157,220.28091349999886,1,1,0.6140331999922637,0.2889951000106521,None,220.28098359997966,220.28100570000242,None,220.28102919997764,220.28104729999905,None,,,,,,,,,,,8,1,0,0,2025-06-12_13h19.24.394,rtmindeye,2024.2.4,59.93913780355433,2025-06-12 13h19.37.622275 -0400,
all_stimuli/special515/special_15506.jpg,4,0,4,4,0,,,,,,0,0,0,1,1,"[9, 21, 31, 45, 56, 68, 69]",1,1,0.6585797999869101,0.42887240002164617,None,None,None,,,,,,,,,0,0,0,0,0,4,4,4,220.3141374999832,,,,,,,,,,,,,,,,,,,,,,,,,,,,,,,,,,,,,,220.28120579998358,220.2812491999939,220.31238079999457,220.3141374999832,220.3141374999832,220.3141374999832,220.3141374999832,223.31396689999383,223.31396689999383,224.29743759997655,1,1,0.6585797999869101,0.42887240002164617,None,224.29750869999407,224.2975300999824,None,224.29755409999052,224.29757179997978,None,,,,,,,,,,,8,1,0,0,2025-06-12_13h19.24.394,rtmindeye,2024.2.4,59.93913780355433,2025-06-12 13h19.37.622275 -0400,
all_stimuli/MST_pairs1/pair_24_nsd_158_1_cocoid_2285.png,5,0,5,5,0,,,,,,0,0,0,1,1,"[9, 21, 31, 45, 56, 68, 69]",1,1,0.6904693999968003,0.5430591000185814,None,None,None,,,,,,,,,0,0,0,0,0,5,5,5,224.61210009999922,,,,,,,,,,,,,,,,,,,,,,,,,,,,,,,,,,,,,,224.2977323999803,224.2977763999952,224.60809589998098,224.61210009999922,224.61210009999922,224.61210009999922,224.61210009999922,227.61392089998117,227.61392089998117,228.31401979998918,1,1,0.6904693999968003,0.5430591000185814,None,228.31409020000137,228.3141123999958,None,228.31413559999783,228.31415369999013,None,,,,,,,,,,,8,1,0,0,2025-06-12_13h19.24.394,rtmindeye,2024.2.4,59.93913780355433,2025-06-12 13h19.37.622275 -0400,
all_stimuli/MST_pairs1/pair_10_14_89.png,6,0,6,6,0,,,,,,0,0,0,1,1,"[9, 21, 31, 45, 56, 68, 69]",1,1,0.7649043000128586,0.503864899976179,None,None,None,,,,,,,,,0,0,0,0,0,6,6,6,228.3478471999988,,,,,,,,,,,,,,,,,,,,,,,,,,,,,,,,,,,,,,228.31431089999387,228.3143552999827,228.3462163999793,228.3478471999988,228.3478471999988,228.3478471999988,228.3478471999988,231.34715239997604,231.34715239997604,232.3307810999977,1,1,0.7649043000128586,0.503864899976179,None,232.33085259998916,232.3308749999851,None,232.33089919999475,232.3309171999863,None,,,,,,,,,,,8,1,0,0,2025-06-12_13h19.24.394,rtmindeye,2024.2.4,59.93913780355433,2025-06-12 13h19.37.622275 -0400,
all_stimuli/special515/special_62015.jpg,7,0,7,7,0,,,,,,0,0,0,1,1,"[9, 21, 31, 45, 56, 68, 69]",1,1,0.8265697000024375,0.31899309999425896,None,None,None,,,,,,,,,0,0,0,0,0,7,7,7,232.36310759998742,,,,,,,,,,,,,,,,,,,,,,,,,,,,,,,,,,,,,,232.33107639997615,232.33111989998724,232.3612290000019,232.36310759998742,232.36310759998742,232.36310759998742,232.36310759998742,235.36408599998686,235.36408599998686,236.34735139997792,1,1,0.8265697000024375,0.31899309999425896,None,236.34742149998783,236.34744339997997,None,236.34746719998657,236.34748489997583,None,,,,,,,,,,,8,1,0,0,2025-06-12_13h19.24.394,rtmindeye,2024.2.4,59.93913780355433,2025-06-12 13h19.37.622275 -0400,
all_stimuli/special515/special_47687.jpg,8,0,8,8,0,,,,,,0,0,0,1,1,"[9, 21, 31, 45, 56, 68, 69]",1,1,0.8515995000198018,0.36120620000292547,None,None,None,,,,,,,,,0,0,0,0,0,8,8,8,236.38286919999518,,,,,,,,,,,,,,,,,,,,,,,,,,,,,,,,,,,,,,236.34764319998794,236.34768739997526,236.3811499000003,236.38286919999518,236.38286919999518,236.38286919999518,236.38286919999518,239.39715919998707,239.39715919998707,240.36397649999708,1,1,0.8515995000198018,0.36120620000292547,None,240.36404819999007,240.36406979997992,None,240.36409399998956,240.36411169997882,None,,,,,,,,,,,8,1,0,0,2025-06-12_13h19.24.394,rtmindeye,2024.2.4,59.93913780355433,2025-06-12 13h19.37.622275 -0400,
blank.jpg,9,1,9,9,0,,,,,,0,0,0,1,1,"[9, 21, 31, 45, 56, 68, 69]",None,0,,,None,None,None,,,,,,,,,0,0,0,0,0,9,9,9,240.52276989998063,,,,,,,,,,,,,,,,,,,,,,,,,,,,,,,,,,,,,,240.36427859999822,240.36432299998705,240.5193045999913,240.52276989998063,240.52276989998063,240.52276989998063,240.52276989998063,243.53070390000357,243.53070390000357,244.38056949997554,None,0,,,None,244.38063459997647,244.3806559999939,None,244.38067949999822,244.38069749998976,None,,,,,,,,,,,8,1,0,0,2025-06-12_13h19.24.394,rtmindeye,2024.2.4,59.93913780355433,2025-06-12 13h19.37.622275 -0400,
all_stimuli/special515/special_4249.jpg,10,0,10,10,0,,,,,,0,0,0,1,1,"[9, 21, 31, 45, 56, 68, 69]",1,1,0.6820877999998629,0.5538086000015028,None,None,None,,,,,,,,,0,0,0,0,0,10,10,10,244.41255549999187,,,,,,,,,,,,,,,,,,,,,,,,,,,,,,,,,,,,,,244.3808560000034,244.3808999999892,244.4106485999946,244.41255549999187,244.41255549999187,244.41255549999187,244.41255549999187,247.41385179999634,247.41385179999634,248.39737219997915,1,1,0.6820877999998629,0.5538086000015028,None,248.39744439997594,248.3974656999926,None,248.39748939999845,248.39750689998618,None,,,,,,,,,,,8,1,0,0,2025-06-12_13h19.24.394,rtmindeye,2024.2.4,59.93913780355433,2025-06-12 13h19.37.622275 -0400,
all_stimuli/special515/special_54361.jpg,11,0,11,11,0,,,,,,0,0,0,1,1,"[9, 21, 31, 45, 56, 68, 69]",1,1,0.6566073000140022,0.3592353999847546,None,None,None,,,,,,,,,0,0,0,0,0,11,11,11,248.44184679997852,,,,,,,,,,,,,,,,,,,,,,,,,,,,,,,,,,,,,,248.39766809999128,248.39771160000237,248.44014229997993,248.44184679997852,248.44184679997852,248.44184679997852,248.44184679997852,251.44714569998905,251.44714569998905,252.4141241000034,1,1,0.6566073000140022,0.3592353999847546,None,252.41419609999866,252.41421779998927,None,252.41424240000197,252.41426049999427,None,,,,,,,,,,,8,1,0,0,2025-06-12_13h19.24.394,rtmindeye,2024.2.4,59.93913780355433,2025-06-12 13h19.37.622275 -0400,
all_stimuli/special515/special_6489.jpg,12,0,12,12,0,,,,,,0,0,0,1,1,"[9, 21, 31, 45, 56, 68, 69]",1,1,0.7524839999969117,0.4780103999946732,None,None,None,,,,,,,,,0,0,0,0,0,12,12,12,252.45197889997507,,,,,,,,,,,,,,,,,,,,,,,,,,,,,,,,,,,,,,252.4144197999849,252.4144634999975,252.4501071999839,252.45197889997507,252.45197889997507,252.45197889997507,252.45197889997507,255.46387939999113,255.46387939999113,256.43034189997707,1,1,0.7524839999969117,0.4780103999946732,None,256.4304128999938,256.43043429998215,None,256.43045809998875,256.4304760999803,None,,,,,,,,,,,8,1,0,0,2025-06-12_13h19.24.394,rtmindeye,2024.2.4,59.93913780355433,2025-06-12 13h19.37.622275 -0400,
all_stimuli/special515/special_38641.jpg,13,0,13,13,0,,,,,,0,0,0,1,1,"[9, 21, 31, 45, 56, 68, 69]",1,1,0.752084100007778,0.5239580000052229,None,None,None,,,,,,,,,0,0,0,0,0,13,13,13,256.45952909998596,,,,,,,,,,,,,,,,,,,,,,,,,,,,,,,,,,,,,,256.43063219997566,256.4306765999936,256.45781319998787,256.45952909998596,256.45952909998596,256.45952909998596,256.45952909998596,259.46397399998386,259.46397399998386,260.43096109997714,1,1,0.752084100007778,0.5239580000052229,None,260.4310407000012,260.4310630999971,None,260.4310865000007,260.431104599993,None,,,,,,,,,,,8,1,0,0,2025-06-12_13h19.24.394,rtmindeye,2024.2.4,59.93913780355433,2025-06-12 13h19.37.622275 -0400,
all_stimuli/shared1000_notspecial/notspecial_67168.png,14,0,14,14,0,,,,,,0,0,0,1,1,"[9, 21, 31, 45, 56, 68, 69]",1,1,0.8920695999986492,0.3398289000033401,None,None,None,,,,,,,,,0,0,0,0,0,14,14,14,260.46557499998016,,,,,,,,,,,,,,,,,,,,,,,,,,,,,,,,,,,,,,260.43127599998843,260.43132069997955,260.4639430999814,260.46557499998016,260.46557499998016,260.46557499998016,260.46557499998016,263.4805645000015,263.4805645000015,264.4471160999965,1,1,0.8920695999986492,0.3398289000033401,None,264.4471877999895,264.4472097999824,None,264.44723319998593,264.4472510999767,None,,,,,,,,,,,8,1,0,0,2025-06-12_13h19.24.394,rtmindeye,2024.2.4,59.93913780355433,2025-06-12 13h19.37.622275 -0400,
all_stimuli/shared1000_notspecial/notspecial_59079.png,15,0,15,15,0,,,,,,0,0,0,1,1,"[9, 21, 31, 45, 56, 68, 69]",1,1,0.9263134000066202,0.578972099989187,None,None,None,,,,,,,,,0,0,0,0,0,15,15,15,264.48335029999726,,,,,,,,,,,,,,,,,,,,,,,,,,,,,,,,,,,,,,264.44741870000144,264.4474630999903,264.4817189000023,264.48335029999726,264.48335029999726,264.48335029999726,264.48335029999726,267.4972224999801,267.4972224999801,268.46399419999216,1,1,0.9263134000066202,0.578972099989187,None,268.46406489997753,268.46408689999953,None,268.4641107999778,268.4641288999992,None,,,,,,,,,,,8,1,0,0,2025-06-12_13h19.24.394,rtmindeye,2024.2.4,59.93913780355433,2025-06-12 13h19.37.622275 -0400,
all_stimuli/MST_pairs1/pair_2_4_89.png,16,0,16,16,0,,,,,,0,0,0,1,1,"[9, 21, 31, 45, 56, 68, 69]",1,1,0.8253374999912921,0.5282052999828011,None,None,None,,,,,,,,,0,0,0,0,0,16,16,16,268.5050945999974,,,,,,,,,,,,,,,,,,,,,,,,,,,,,,,,,,,,,,268.46428869999363,268.4643354,268.50342279998586,268.5050945999974,268.5050945999974,268.5050945999974,268.5050945999974,271.5136366999941,271.5136366999941,272.48062570000184,1,1,0.8253374999912921,0.5282052999828011,None,272.4806961999857,272.4807181999786,None,272.4807413999806,272.4807593000005,None,,,,,,,,,,,8,1,0,0,2025-06-12_13h19.24.394,rtmindeye,2024.2.4,59.93913780355433,2025-06-12 13h19.37.622275 -0400,
all_stimuli/shared1000_notspecial/notspecial_26127.png,17,0,17,17,0,,,,,,0,0,0,1,1,"[9, 21, 31, 45, 56, 68, 69]",1,1,0.7282125999918208,0.5260887000185903,None,None,None,,,,,,,,,0,0,0,0,0,17,17,17,272.5053141999815,,,,,,,,,,,,,,,,,,,,,,,,,,,,,,,,,,,,,,272.48091779998504,272.48096509999596,272.50367889998597,272.5053141999815,272.5053141999815,272.5053141999815,272.5053141999815,275.51376799997524,275.51376799997524,276.49729589998606,1,1,0.7282125999918208,0.5260887000185903,None,276.49736529999063,276.49738719998277,None,276.49741129999165,276.49742919998243,None,,,,,,,,,,,8,1,0,0,2025-06-12_13h19.24.394,rtmindeye,2024.2.4,59.93913780355433,2025-06-12 13h19.37.622275 -0400,
all_stimuli/shared1000_notspecial/notspecial_20223.png,18,0,18,18,0,,,,,,0,0,0,1,1,"[9, 21, 31, 45, 56, 68, 69]",1,1,0.7628344999975525,1.0091138000134379,None,None,None,,,,,,,,,0,0,0,0,0,18,18,18,276.5397394000029,,,,,,,,,,,,,,,,,,,,,,,,,,,,,,,,,,,,,,276.4975850999763,276.4976290999912,276.5381098999933,276.5397394000029,276.5397394000029,276.5397394000029,276.5397394000029,279.54726729998947,279.54726729998947,280.5135284999851,1,1,0.7628344999975525,1.0091138000134379,None,280.51359749998664,280.5136193999788,None,280.51364249998005,280.51366009999765,None,,,,,,,,,,,8,1,0,0,2025-06-12_13h19.24.394,rtmindeye,2024.2.4,59.93913780355433,2025-06-12 13h19.37.622275 -0400,
all_stimuli/special515/special_62015.jpg,19,0,19,19,0,,,,,,1,0,0,1,1,"[9, 21, 31, 45, 56, 68, 69]",2,1,0.7549453000247013,0.3229882000014186,None,None,None,,,,,,,,,0,0,0,0,0,19,19,19,280.5307642999978,,,,,,,,,,,,,,,,,,,,,,,,,,,,,,,,,,,,,,280.5138180999784,280.51386189999175,280.52535359998,280.5307642999978,280.5307642999978,280.5307642999978,280.5307642999978,283.5305793999869,283.5305793999869,284.5140001999971,2,1,0.7549453000247013,0.3229882000014186,None,284.5140713999863,284.5140926000022,None,284.51411619997816,284.5141383000009,None,,,,,,,,,,,8,1,0,0,2025-06-12_13h19.24.394,rtmindeye,2024.2.4,59.93913780355433,2025-06-12 13h19.37.622275 -0400,
all_stimuli/special515/special_10244.jpg,20,0,20,20,0,,,,,,0,0,0,1,1,"[9, 21, 31, 45, 56, 68, 69]",1,1,0.8314526000176556,0.5271048999857157,None,None,None,,,,,,,,,0,0,0,0,0,20,20,20,284.5691037999932,,,,,,,,,,,,,,,,,,,,,,,,,,,,,,,,,,,,,,284.5143015999929,284.51434599998174,284.56709460000275,284.5691037999932,284.5691037999932,284.5691037999932,284.5691037999932,287.5804966999858,287.5804966999858,288.5304591000022,1,1,0.8314526000176556,0.5271048999857157,None,288.5305309999967,288.5305521999835,None,288.5305759999901,288.5305938999809,None,,,,,,,,,,,8,1,0,0,2025-06-12_13h19.24.394,rtmindeye,2024.2.4,59.93913780355433,2025-06-12 13h19.37.622275 -0400,
blank.jpg,21,1,21,21,0,,,,,,0,0,0,1,1,"[9, 21, 31, 45, 56, 68, 69]",None,0,,,None,None,None,,,,,,,,,0,0,0,0,0,21,21,21,288.54717969999183,,,,,,,,,,,,,,,,,,,,,,,,,,,,,,,,,,,,,,288.53075129998615,288.5307952000003,288.53917619999265,288.54717969999183,288.54717969999183,288.54717969999183,288.54717969999183,291.54720599998836,291.54720599998836,292.53056659997674,None,0,,,None,292.53062609999324,292.53064650000306,None,292.53067009997903,292.5306875999959,None,292.5555161999946,292.5555161999946,,,,,,,,,8,1,0,0,2025-06-12_13h19.24.394,rtmindeye,2024.2.4,59.93913780355433,2025-06-12 13h19.37.622275 -0400,
all_stimuli/special515/special_28524.jpg,22,0,22,22,0,,,,,,0,0,0,1,1,"[9, 21, 31, 45, 56, 68, 69]",1,1,0.7410429000156,0.5039860999968369,None,None,None,,,,,,,,,0,0,0,0,0,22,22,22,292.5555161999946,,,,,,,,,,,,,,,,,,,,,,,,,,,,,,,,,,,,,,292.5308401999937,292.530881499988,292.5537922999938,292.5555161999946,292.5555161999946,292.5555161999946,292.5555161999946,295.5635656999948,295.5635656999948,296.5472974999866,1,1,0.7410429000156,0.5039860999968369,None,296.54736769999727,296.54738889998407,None,296.54741249998915,296.54743039997993,None,,,,,,,,,,,8,1,0,0,2025-06-12_13h19.24.394,rtmindeye,2024.2.4,59.93913780355433,2025-06-12 13h19.37.622275 -0400,
all_stimuli/special515/special_30430.jpg,23,0,23,23,0,,,,,,0,0,0,1,1,"[9, 21, 31, 45, 56, 68, 69]",1,1,0.7696135000151116,0.7549801999994088,None,None,None,,,,,,,,,0,0,0,0,0,23,23,23,296.5709894000029,,,,,,,,,,,,,,,,,,,,,,,,,,,,,,,,,,,,,,296.5475916999858,296.5476456999895,296.56923809999716,296.5709894000029,296.5709894000029,296.5709894000029,296.5709894000029,299.58053019997897,299.58053019997897,300.5638823999907,1,1,0.7696135000151116,0.7549801999994088,None,300.56395159999374,300.56397299998207,None,300.5639964999864,300.5640142999764,None,,,,,,,,,,,8,1,0,0,2025-06-12_13h19.24.394,rtmindeye,2024.2.4,59.93913780355433,2025-06-12 13h19.37.622275 -0400,
all_stimuli/MST_pairs1/pair_10_14_33.png,24,0,24,24,0,,,,,,0,0,0,1,1,"[9, 21, 31, 45, 56, 68, 69]",1,1,0.906470799993258,0.9249264000100084,None,None,None,,,,,,,,,0,0,0,0,0,24,24,24,300.59017369998037,,,,,,,,,,,,,,,,,,,,,,,,,,,,,,,,,,,,,,300.564166199998,300.5642135999806,300.5885096999991,300.59017369998037,300.59017369998037,300.59017369998037,300.59017369998037,303.59692260000156,303.59692260000156,304.580563800002,1,1,0.906470799993258,0.9249264000100084,None,304.58063739998033,304.5806596999755,None,304.58068449998973,304.58070259998203,None,,,,,,,,,,,8,1,0,0,2025-06-12_13h19.24.394,rtmindeye,2024.2.4,59.93913780355433,2025-06-12 13h19.37.622275 -0400,
all_stimuli/shared1000_notspecial/notspecial_10907.png,25,0,25,25,0,,,,,,0,0,0,1,1,"[9, 21, 31, 45, 56, 68, 69]",1,1,0.8738349000050221,0.572098200005712,None,None,None,,,,,,,,,0,0,0,0,0,25,25,25,304.6147112000035,,,,,,,,,,,,,,,,,,,,,,,,,,,,,,,,,,,,,,304.5808621000033,304.58090619998984,304.613068799983,304.6147112000035,304.6147112000035,304.6147112000035,304.6147112000035,307.6140529999975,307.6140529999975,308.59726519999094,1,1,0.8738349000050221,0.572098200005712,None,308.5973359999771,308.59735729999375,None,308.59738029999426,308.5973984999873,None,,,,,,,,,,,8,1,0,0,2025-06-12_13h19.24.394,rtmindeye,2024.2.4,59.93913780355433,2025-06-12 13h19.37.622275 -0400,
all_stimuli/special515/special_22587.jpg,26,0,26,26,0,,,,,,0,0,0,1,1,"[9, 21, 31, 45, 56, 68, 69]",1,1,1.0026513999910094,0.7271333999815397,None,None,None,,,,,,,,,0,0,0,0,0,26,26,26,308.629826599994,,,,,,,,,,,,,,,,,,,,,,,,,,,,,,,,,,,,,,308.5975571000017,308.59760149999056,308.6280754999898,308.629826599994,308.629826599994,308.629826599994,308.629826599994,311.6303944999818,311.6303944999818,312.6136618999881,1,1,1.0026513999910094,0.7271333999815397,None,312.6137318999972,312.613752699981,None,312.61377629998606,312.6137940999761,None,,,,,,,,,,,8,1,0,0,2025-06-12_13h19.24.394,rtmindeye,2024.2.4,59.93913780355433,2025-06-12 13h19.37.622275 -0400,
all_stimuli/special515/special_3687.jpg,27,0,27,27,0,,,,,,0,0,0,1,1,"[9, 21, 31, 45, 56, 68, 69]",1,1,1.1524994999927003,0.6428937999880873,None,None,None,,,,,,,,,0,0,0,0,0,27,27,27,312.64403559998027,,,,,,,,,,,,,,,,,,,,,,,,,,,,,,,,,,,,,,312.6139518999844,312.61399600000004,312.6423193999799,312.64403559998027,312.64403559998027,312.64403559998027,312.64403559998027,315.64719109999714,315.64719109999714,316.6141148000024,1,1,1.1524994999927003,0.6428937999880873,None,316.61418609999237,316.61420759998146,None,316.6142312999873,316.61424929997884,None,,,,,,,,,,,8,1,0,0,2025-06-12_13h19.24.394,rtmindeye,2024.2.4,59.93913780355433,2025-06-12 13h19.37.622275 -0400,
all_stimuli/shared1000_notspecial/notspecial_58164.png,28,0,28,28,0,,,,,,0,0,0,1,1,"[9, 21, 31, 45, 56, 68, 69]",1,1,0.9035223000100814,0.6499769999936689,None,None,None,,,,,,,,,0,0,0,0,0,28,28,28,316.64005149999866,,,,,,,,,,,,,,,,,,,,,,,,,,,,,,,,,,,,,,316.6144088000001,316.61445599998115,316.6384008000023,316.64005149999866,316.64005149999866,316.64005149999866,316.64005149999866,319.6468687999877,319.6468687999877,320.63052209999296,1,1,0.9035223000100814,0.6499769999936689,None,320.63059509999584,320.63061649998417,None,320.63063979998697,320.6306577999785,None,,,,,,,,,,,8,1,0,0,2025-06-12_13h19.24.394,rtmindeye,2024.2.4,59.93913780355433,2025-06-12 13h19.37.622275 -0400,
all_stimuli/special515/special_38494.jpg,29,0,29,29,0,,,,,,0,0,0,1,1,"[9, 21, 31, 45, 56, 68, 69]",1,1,0.839604299981147,0.7048198000120465,None,None,None,,,,,,,,,0,0,0,0,0,29,29,29,320.6699696999858,,,,,,,,,,,,,,,,,,,,,,,,,,,,,,,,,,,,,,320.63081599998986,320.63085980000324,320.66800609999336,320.6699696999858,320.6699696999858,320.6699696999858,320.6699696999858,323.6802126999828,323.6802126999828,324.6471541999781,1,1,0.839604299981147,0.7048198000120465,None,324.6472243999888,324.6472455999756,None,324.6472687999776,324.64728659999673,None,,,,,,,,,,,8,1,0,0,2025-06-12_13h19.24.394,rtmindeye,2024.2.4,59.93913780355433,2025-06-12 13h19.37.622275 -0400,
all_stimuli/MST_pairs1/pair_12_16_22.png,30,0,30,30,0,,,,,,0,0,0,1,1,"[9, 21, 31, 45, 56, 68, 69]",1,1,1.064616699994076,0.46320560001186095,None,None,None,,,,,,,,,0,0,0,0,0,30,30,30,324.6837448999868,,,,,,,,,,,,,,,,,,,,,,,,,,,,,,,,,,,,,,324.6474431999959,324.64748709998094,324.6820705999853,324.6837448999868,324.6837448999868,324.6837448999868,324.6837448999868,327.6971726999909,327.6971726999909,328.6637284999888,1,1,1.064616699994076,0.46320560001186095,None,328.66380159999244,328.66382359998534,None,328.66384679998737,328.66386469997815,None,,,,,,,,,,,8,1,0,0,2025-06-12_13h19.24.394,rtmindeye,2024.2.4,59.93913780355433,2025-06-12 13h19.37.622275 -0400,
blank.jpg,31,1,31,31,0,,,,,,0,0,0,1,1,"[9, 21, 31, 45, 56, 68, 69]",None,0,,,None,None,None,,,,,,,,,0,0,0,0,0,31,31,31,328.6806563999853,,,,,,,,,,,,,,,,,,,,,,,,,,,,,,,,,,,,,,328.66402669998934,328.6640705000027,328.6718162999896,328.6806563999853,328.6806563999853,328.6806563999853,328.6806563999853,331.6806297999865,331.6806297999865,332.66378609999083,None,0,,,None,332.6638458999805,332.6638663999911,None,332.6638898999954,332.6639074999839,None,332.6855508000008,332.6855508000008,,,,,,,,,8,1,0,0,2025-06-12_13h19.24.394,rtmindeye,2024.2.4,59.93913780355433,2025-06-12 13h19.37.622275 -0400,
all_stimuli/special515/special_66489.jpg,32,0,32,32,0,,,,,,0,0,0,1,1,"[9, 21, 31, 45, 56, 68, 69]",1,1,0.8340441999898758,0.5328761000127997,None,None,None,,,,,,,,,0,0,0,0,0,32,32,32,332.6855508000008,,,,,,,,,,,,,,,,,,,,,,,,,,,,,,,,,,,,,,332.6640582999971,332.66410009999527,332.68361690000165,332.6855508000008,332.6855508000008,332.6855508000008,332.6855508000008,335.6970567999815,335.6970567999815,336.6802861999895,1,1,0.8340441999898758,0.5328761000127997,None,336.6803570999764,336.68037839999306,None,336.68040169999585,336.6804194999859,None,,,,,,,,,,,8,1,0,0,2025-06-12_13h19.24.394,rtmindeye,2024.2.4,59.93913780355433,2025-06-12 13h19.37.622275 -0400,
all_stimuli/MST_pairs1/pair_28_nsd_547_1_cocoid_60932.png,33,0,33,33,0,,,,,,0,0,0,1,1,"[9, 21, 31, 45, 56, 68, 69]",1,1,0.8240000000223517,0.4908370999910403,None,None,None,,,,,,,,,0,0,0,0,0,33,33,33,336.73353149998,,,,,,,,,,,,,,,,,,,,,,,,,,,,,,,,,,,,,,336.6807353999757,336.68078019999666,336.73174649997964,336.73353149998,336.73353149998,336.73353149998,336.73353149998,339.747229599976,339.747229599976,340.69719819998136,1,1,0.8240000000223517,0.4908370999910403,None,340.69726859999355,340.6972906999872,None,340.69731469999533,340.6973328999884,None,,,,,,,,,,,8,1,0,0,2025-06-12_13h19.24.394,rtmindeye,2024.2.4,59.93913780355433,2025-06-12 13h19.37.622275 -0400,
all_stimuli/shared1000_notspecial/notspecial_46002.png,34,0,34,34,0,,,,,,0,0,0,1,1,"[9, 21, 31, 45, 56, 68, 69]",1,1,0.9872533000016119,0.5270151000004262,None,None,None,,,,,,,,,0,0,0,0,0,34,34,34,340.7393905999779,,,,,,,,,,,,,,,,,,,,,,,,,,,,,,,,,,,,,,340.6974904999952,340.6975379999785,340.73742009999114,340.7393905999779,340.7393905999779,340.7393905999779,340.7393905999779,343.74682969998685,343.74682969998685,344.7135980000021,1,1,0.9872533000016119,0.5270151000004262,None,344.7136711999774,344.7136934000009,None,344.7137171999784,344.7137352999998,None,,,,,,,,,,,8,1,0,0,2025-06-12_13h19.24.394,rtmindeye,2024.2.4,59.93913780355433,2025-06-12 13h19.37.622275 -0400,
all_stimuli/special515/special_30632.jpg,35,0,35,35,0,,,,,,0,0,0,1,1,"[9, 21, 31, 45, 56, 68, 69]",1,1,0.7089759999944363,0.5510448999993969,None,None,None,,,,,,,,,0,0,0,0,0,35,35,35,344.74658340000315,,,,,,,,,,,,,,,,,,,,,,,,,,,,,,,,,,,,,,344.7138990999956,344.7139430999814,344.74487480000244,344.74658340000315,344.74658340000315,344.74658340000315,344.74658340000315,347.74727449999773,347.74727449999773,348.7304236999771,1,1,0.7089759999944363,0.5510448999993969,None,348.73049649997847,348.73051829999895,None,348.7305419999757,348.7305602999986,None,,,,,,,,,,,8,1,0,0,2025-06-12_13h19.24.394,rtmindeye,2024.2.4,59.93913780355433,2025-06-12 13h19.37.622275 -0400,
all_stimuli/special515/special_31936.jpg,36,0,36,36,0,,,,,,0,0,0,1,1,"[9, 21, 31, 45, 56, 68, 69]",1,1,0.9506921000138391,0.5278115999826696,None,None,None,,,,,,,,,0,0,0,0,0,36,36,36,348.7559830999817,,,,,,,,,,,,,,,,,,,,,,,,,,,,,,,,,,,,,,348.73072500000126,348.7307693999901,348.7542438999808,348.7559830999817,348.7559830999817,348.7559830999817,348.7559830999817,351.7637300999777,351.7637300999777,352.74696530000074,1,1,0.9506921000138391,0.5278115999826696,None,352.7470352999808,352.74705689999973,None,352.7470809999795,352.74709930000245,None,,,,,,,,,,,8,1,0,0,2025-06-12_13h19.24.394,rtmindeye,2024.2.4,59.93913780355433,2025-06-12 13h19.37.622275 -0400,
all_stimuli/MST_pairs1/pair_8_12_56.png,37,0,37,37,0,,,,,,0,0,0,1,1,"[9, 21, 31, 45, 56, 68, 69]",2,0,1.115505800000392,0.31197450001491234,None,None,None,,,,,,,,,0,0,0,0,0,37,37,37,352.77201379998587,,,,,,,,,,,,,,,,,,,,,,,,,,,,,,,,,,,,,,352.74725479999324,352.74734169998555,352.77025969998795,352.77201379998587,352.77201379998587,352.77201379998587,352.77201379998587,355.78048889999627,355.78048889999627,356.76405589998467,2,0,1.115505800000392,0.31197450001491234,None,356.76412809998146,356.76414990000194,None,356.7641740999825,356.7641923999763,None,,,,,,,,,,,8,1,0,0,2025-06-12_13h19.24.394,rtmindeye,2024.2.4,59.93913780355433,2025-06-12 13h19.37.622275 -0400,
all_stimuli/special515/special_19074.jpg,38,0,38,38,0,,,,,,0,0,0,1,1,"[9, 21, 31, 45, 56, 68, 69]",1,1,1.1660565999918617,0.6000062999955844,None,None,None,,,,,,,,,0,0,0,0,0,38,38,38,356.7875202999858,,,,,,,,,,,,,,,,,,,,,,,,,,,,,,,,,,,,,,356.7643649999809,356.76440889999503,356.7855908999918,356.7875202999858,356.7875202999858,356.7875202999858,356.7875202999858,359.7970127000008,359.7970127000008,360.78027759998804,1,1,1.1660565999918617,0.6000062999955844,None,360.78034869997646,360.7803695999901,None,360.7803939000005,360.78041209999355,None,,,,,,,,,,,8,1,0,0,2025-06-12_13h19.24.394,rtmindeye,2024.2.4,59.93913780355433,2025-06-12 13h19.37.622275 -0400,
all_stimuli/shared1000_notspecial/notspecial_42648.png,39,0,39,39,0,,,,,,0,0,0,1,1,"[9, 21, 31, 45, 56, 68, 69]",1,1,0.9707570000027772,0.4400638999941293,None,None,None,,,,,,,,,0,0,0,0,0,39,39,39,360.80970049998723,,,,,,,,,,,,,,,,,,,,,,,,,,,,,,,,,,,,,,360.78056709998054,360.7806106999924,360.8080723999883,360.80970049998723,360.80970049998723,360.80970049998723,360.80970049998723,363.81354750000173,363.81354750000173,364.79716960000223,1,1,0.9707570000027772,0.4400638999941293,None,364.79723919997923,364.7972604999959,None,364.7972835999972,364.79730149998795,None,,,,,,,,,,,8,1,0,0,2025-06-12_13h19.24.394,rtmindeye,2024.2.4,59.93913780355433,2025-06-12 13h19.37.622275 -0400,
all_stimuli/MST_pairs1/pair_12_16_22.png,40,0,40,40,0,,,,,,1,0,0,1,1,"[9, 21, 31, 45, 56, 68, 69]",2,1,0.8231122000142932,0.3579228999733459,None,None,None,,,,,,,,,0,0,0,0,0,40,40,40,364.81350609997753,,,,,,,,,,,,,,,,,,,,,,,,,,,,,,,,,,,,,,364.79750719998265,364.7975518000021,364.81009709998034,364.81350609997753,364.81350609997753,364.81350609997753,364.81350609997753,367.8134560000035,367.8134560000035,368.7972659999796,2,1,0.8231122000142932,0.3579228999733459,None,368.7973318999866,368.79735269999946,None,368.7973776999861,368.7973951000022,None,368.8365325999912,368.8365325999912,,,,,,,,,8,1,0,0,2025-06-12_13h19.24.394,rtmindeye,2024.2.4,59.93913780355433,2025-06-12 13h19.37.622275 -0400,
all_stimuli/shared1000_notspecial/notspecial_3951.png,41,0,41,41,0,,,,,,0,0,0,1,1,"[9, 21, 31, 45, 56, 68, 69]",2,0,0.761846700013848,0.4041399999987334,None,None,None,,,,,,,,,0,0,0,0,0,41,41,41,368.8365325999912,,,,,,,,,,,,,,,,,,,,,,,,,,,,,,,,,,,,,,368.7975548999966,368.79759360000025,368.83488049998414,368.8365325999912,368.8365325999912,368.8365325999912,368.8365325999912,371.84690740000224,371.84690740000224,372.813373699988,2,0,0.761846700013848,0.4041399999987334,None,372.8134572999843,372.8134799999825,None,372.8135033999861,372.8135214999784,None,,,,,,,,,,,8,1,0,0,2025-06-12_13h19.24.394,rtmindeye,2024.2.4,59.93913780355433,2025-06-12 13h19.37.622275 -0400,
all_stimuli/MST_pairs1/pair_12_16_78.png,42,0,42,42,0,,,,,,0,0,0,1,1,"[9, 21, 31, 45, 56, 68, 69]",2,0,1.329996900021797,0.3529489999928046,None,None,None,,,,,,,,,0,0,0,0,0,42,42,42,372.8435320999997,,,,,,,,,,,,,,,,,,,,,,,,,,,,,,,,,,,,,,372.81368589997874,372.81373419999727,372.84163059998536,372.8435320999997,372.8435320999997,372.8435320999997,372.8435320999997,375.8471862000006,375.8471862000006,376.83039489999646,2,0,1.329996900021797,0.3529489999928046,None,376.830464699975,376.83048649999546,None,376.83050929999445,376.83052689998294,None,,,,,,,,,,,8,1,0,0,2025-06-12_13h19.24.394,rtmindeye,2024.2.4,59.93913780355433,2025-06-12 13h19.37.622275 -0400,
all_stimuli/special515/special_11952.jpg,43,0,43,43,0,,,,,,0,0,0,1,1,"[9, 21, 31, 45, 56, 68, 69]",1,1,0.8173862000112422,0.3799081999750342,None,None,None,,,,,,,,,0,0,0,0,0,43,43,43,376.8501070999773,,,,,,,,,,,,,,,,,,,,,,,,,,,,,,,,,,,,,,376.83068759998423,376.8307316999999,376.8482153999794,376.8501070999773,376.8501070999773,376.8501070999773,376.8501070999773,379.8637582999945,379.8637582999945,380.8468606999959,1,1,0.8173862000112422,0.3799081999750342,None,380.84692939999513,380.84695129998727,None,380.84697519999463,380.8469928999839,None,,,,,,,,,,,8,1,0,0,2025-06-12_13h19.24.394,rtmindeye,2024.2.4,59.93913780355433,2025-06-12 13h19.37.622275 -0400,
all_stimuli/MST_pairs1/pair_14_18_22.png,44,0,44,44,0,,,,,,0,0,0,1,1,"[9, 21, 31, 45, 56, 68, 69]",2,0,0.9798171000147704,0.3588631000020541,None,None,None,,,,,,,,,0,0,0,0,0,44,44,44,380.87678510000114,,,,,,,,,,,,,,,,,,,,,,,,,,,,,,,,,,,,,,380.84716119998484,380.84720570000354,380.875120599987,380.87678510000114,380.87678510000114,380.87678510000114,380.87678510000114,383.8800491000002,383.8800491000002,384.8638471000013,2,0,0.9798171000147704,0.3588631000020541,None,384.8639210999827,384.86394339997787,None,384.86396729998523,384.86398559997906,None,,,,,,,,,,,8,1,0,0,2025-06-12_13h19.24.394,rtmindeye,2024.2.4,59.93913780355433,2025-06-12 13h19.37.622275 -0400,
blank.jpg,45,1,45,45,0,,,,,,0,0,0,1,1,"[9, 21, 31, 45, 56, 68, 69]",None,0,,,None,None,None,,,,,,,,,0,0,0,0,0,45,45,45,384.8804701999761,,,,,,,,,,,,,,,,,,,,,,,,,,,,,,,,,,,,,,384.8641541999823,384.864198700001,384.87305219998234,384.8804701999761,384.8804701999761,384.8804701999761,384.8804701999761,387.8802732999902,387.8802732999902,388.863597699994,None,0,,,None,388.8636785999988,388.86369999998715,None,388.86372459999984,388.86374269999214,None,388.89208459999645,388.89208459999645,,,,,,,,,8,1,0,0,2025-06-12_13h19.24.394,rtmindeye,2024.2.4,59.93913780355433,2025-06-12 13h19.37.622275 -0400,
all_stimuli/MST_pairs1/pair_16_20_56.png,46,0,46,46,0,,,,,,0,0,0,1,1,"[9, 21, 31, 45, 56, 68, 69]",1,1,1.3693984000128694,0.3039242000086233,None,None,None,,,,,,,,,0,0,0,0,0,46,46,46,388.89208459999645,,,,,,,,,,,,,,,,,,,,,,,,,,,,,,,,,,,,,,388.86393979997956,388.8639795999916,388.8903235999751,388.89208459999645,388.89208459999645,388.89208459999645,388.89208459999645,391.8969230999937,391.8969230999937,392.88003989998833,1,1,1.3693984000128694,0.3039242000086233,None,392.8801160999865,392.88013839998166,None,392.8801617999852,392.880179699976,None,,,,,,,,,,,8,1,0,0,2025-06-12_13h19.24.394,rtmindeye,2024.2.4,59.93913780355433,2025-06-12 13h19.37.622275 -0400,
all_stimuli/special515/special_8933.jpg,47,0,47,47,0,,,,,,0,0,0,1,1,"[9, 21, 31, 45, 56, 68, 69]",1,1,0.861255900003016,0.473972000007052,None,None,None,,,,,,,,,0,0,0,0,0,47,47,47,392.90925499997684,,,,,,,,,,,,,,,,,,,,,,,,,,,,,,,,,,,,,,392.88034899998456,392.88039399997797,392.90723979999893,392.90925499997684,392.90925499997684,392.90925499997684,392.90925499997684,395.9134810999967,395.9134810999967,396.8972247999918,1,1,0.861255900003016,0.473972000007052,None,396.8972956999787,396.8973174999992,None,396.89734060000046,396.897358599992,None,,,,,,,,,,,8,1,0,0,2025-06-12_13h19.24.394,rtmindeye,2024.2.4,59.93913780355433,2025-06-12 13h19.37.622275 -0400,
all_stimuli/MST_pairs1/pair_16_20_56.png,48,0,48,48,0,,,,,,1,0,0,1,1,"[9, 21, 31, 45, 56, 68, 69]",2,1,0.7356638000055682,0.3580532999767456,None,None,None,,,,,,,,,0,0,0,0,0,48,48,48,396.9138321999926,,,,,,,,,,,,,,,,,,,,,,,,,,,,,,,,,,,,,,396.89751939999405,396.8975632999791,396.9054515000025,396.9138321999926,396.9138321999926,396.9138321999926,396.9138321999926,399.91353999997955,399.91353999997955,400.89723219998996,2,1,0.7356638000055682,0.3580532999767456,None,400.89729739999166,400.897318000003,None,400.8973411999759,400.8973582999897,None,400.92272579998826,400.92272579998826,,,,,,,,,8,1,0,0,2025-06-12_13h19.24.394,rtmindeye,2024.2.4,59.93913780355433,2025-06-12 13h19.37.622275 -0400,
all_stimuli/special515/special_5034.jpg,49,0,49,49,0,,,,,,0,0,0,1,1,"[9, 21, 31, 45, 56, 68, 69]",1,1,0.8066324000246823,0.43913339998107404,None,None,None,,,,,,,,,0,0,0,0,0,49,49,49,400.92272579998826,,,,,,,,,,,,,,,,,,,,,,,,,,,,,,,,,,,,,,400.897518999991,400.8975582999992,400.9207005999924,400.92272579998826,400.92272579998826,400.92272579998826,400.92272579998826,403.9303222000017,403.9303222000017,404.91349939999054,1,1,0.8066324000246823,0.43913339998107404,None,404.91356999997515,404.9135921999987,None,404.9136151999992,404.9136332999915,None,,,,,,,,,,,8,1,0,0,2025-06-12_13h19.24.394,rtmindeye,2024.2.4,59.93913780355433,2025-06-12 13h19.37.622275 -0400,
all_stimuli/MST_pairs1/pair_16_20_0.png,50,0,50,50,0,,,,,,0,0,0,1,1,"[9, 21, 31, 45, 56, 68, 69]",2,0,0.7347346999740694,0.3820953000104055,None,None,None,,,,,,,,,0,0,0,0,0,50,50,50,404.9587672999769,,,,,,,,,,,,,,,,,,,,,,,,,,,,,,,,,,,,,,404.9137925999821,404.91383649999625,404.95715499998187,404.9587672999769,404.9587672999769,404.9587672999769,404.9587672999769,407.963436799997,407.963436799997,408.9302108999982,2,0,0.7347346999740694,0.3820953000104055,None,408.93028239998966,408.9303045999841,None,408.9303280999884,408.9303461999807,None,,,,,,,,,,,8,1,0,0,2025-06-12_13h19.24.394,rtmindeye,2024.2.4,59.93913780355433,2025-06-12 13h19.37.622275 -0400,
all_stimuli/MST_pairs1/pair_46_w_pool2.jpg,51,0,51,51,0,,,,,,0,0,0,1,1,"[9, 21, 31, 45, 56, 68, 69]",1,1,0.7816367000050377,0.3589917999925092,None,None,None,,,,,,,,,0,0,0,0,0,51,51,51,408.9628421999805,,,,,,,,,,,,,,,,,,,,,,,,,,,,,,,,,,,,,,408.9305040999898,408.9305478000024,408.9611581999925,408.9628421999805,408.9628421999805,408.9628421999805,408.9628421999805,411.9634873000032,411.9634873000032,412.9471584999992,1,1,0.7816367000050377,0.3589917999925092,None,412.94723439999507,412.9472562999872,None,412.9472802999953,412.9472981999861,None,,,,,,,,,,,8,1,0,0,2025-06-12_13h19.24.394,rtmindeye,2024.2.4,59.93913780355433,2025-06-12 13h19.37.622275 -0400,
all_stimuli/special515/special_62228.jpg,52,0,52,52,0,,,,,,0,0,0,1,1,"[9, 21, 31, 45, 56, 68, 69]",1,1,0.7213630999904126,0.5648151000204962,None,None,None,,,,,,,,,0,0,0,0,0,52,52,52,412.9821090999758,,,,,,,,,,,,,,,,,,,,,,,,,,,,,,,,,,,,,,412.9474816999864,412.94753529998707,412.98011649999535,412.9821090999758,412.9821090999758,412.9821090999758,412.9821090999758,415.9969281999802,415.9969281999802,416.96337399998447,1,1,0.7213630999904126,0.5648151000204962,None,416.96344619998126,416.96346769999946,None,416.96349119997467,416.96350879999227,None,,,,,,,,,,,8,1,0,0,2025-06-12_13h19.24.394,rtmindeye,2024.2.4,59.93913780355433,2025-06-12 13h19.37.622275 -0400,
all_stimuli/MST_pairs1/pair_40_w_escalator2.jpg,53,0,53,53,0,,,,,,0,0,0,1,1,"[9, 21, 31, 45, 56, 68, 69]",1,1,0.9152732999937143,0.3891048999794293,None,None,None,,,,,,,,,0,0,0,0,0,53,53,53,416.9912197999947,,,,,,,,,,,,,,,,,,,,,,,,,,,,,,,,,,,,,,416.96366999999736,416.96371349997935,416.9895430000033,416.9912197999947,416.9912197999947,416.9912197999947,416.9912197999947,419.99712779998663,419.99712779998663,420.9801721999829,1,1,0.9152732999937143,0.3891048999794293,None,420.9802453999873,420.98026599999866,None,420.9802894000022,420.98030719999224,None,,,,,,,,,,,8,1,0,0,2025-06-12_13h19.24.394,rtmindeye,2024.2.4,59.93913780355433,2025-06-12 13h19.37.622275 -0400,
all_stimuli/MST_pairs1/pair_20_nsd_41_2_cocoid_63715.png,54,0,54,54,0,,,,,,0,0,0,1,1,"[9, 21, 31, 45, 56, 68, 69]",1,1,0.8251164999965113,0.6249229999957606,None,None,None,,,,,,,,,0,0,0,0,0,54,54,54,421.0413201999909,,,,,,,,,,,,,,,,,,,,,,,,,,,,,,,,,,,,,,420.98047039998346,420.9805154999776,421.03936509997584,421.0413201999909,421.0413201999909,421.0413201999909,421.0413201999909,424.0466782999865,424.0466782999865,424.9971348999825,1,1,0.8251164999965113,0.6249229999957606,None,424.99720589999924,424.99722739998833,None,424.997251599998,424.9972698999918,None,,,,,,,,,,,8,1,0,0,2025-06-12_13h19.24.394,rtmindeye,2024.2.4,59.93913780355433,2025-06-12 13h19.37.622275 -0400,
all_stimuli/shared1000_notspecial/notspecial_22155.png,55,0,55,55,0,,,,,,0,0,0,1,1,"[9, 21, 31, 45, 56, 68, 69]",1,1,0.7174352000001818,0.5347652999917045,None,None,None,,,,,,,,,0,0,0,0,0,55,55,55,425.027147899993,,,,,,,,,,,,,,,,,,,,,,,,,,,,,,,,,,,,,,424.99742679999326,424.9974706999783,425.02551989999483,425.027147899993,425.027147899993,425.027147899993,425.027147899993,428.0300704999827,428.0300704999827,429.01352369997767,1,1,0.7174352000001818,0.5347652999917045,None,429.01359459999367,429.01361689998885,None,429.01364019999164,429.0136578999809,None,,,,,,,,,,,8,1,0,0,2025-06-12_13h19.24.394,rtmindeye,2024.2.4,59.93913780355433,2025-06-12 13h19.37.622275 -0400,
blank.jpg,56,1,56,56,0,,,,,,0,0,0,1,1,"[9, 21, 31, 45, 56, 68, 69]",None,0,,,None,None,None,,,,,,,,,0,0,0,0,0,56,56,56,429.03036089998204,,,,,,,,,,,,,,,,,,,,,,,,,,,,,,,,,,,,,,429.01381869998295,429.0138620999933,429.0209309999773,429.03036089998204,429.03036089998204,429.03036089998204,429.03036089998204,432.0302730999829,432.0302730999829,433.0136368999956,None,0,,,None,433.01369709998835,433.0137175999989,None,433.0137410000025,433.01375869999174,None,433.04362939999555,433.04362939999555,,,,,,,,,8,1,0,0,2025-06-12_13h19.24.394,rtmindeye,2024.2.4,59.93913780355433,2025-06-12 13h19.37.622275 -0400,
all_stimuli/special515/special_11617.jpg,57,0,57,57,0,,,,,,0,0,0,1,1,"[9, 21, 31, 45, 56, 68, 69]",1,1,0.862856699997792,0.41496799999731593,None,None,None,,,,,,,,,0,0,0,0,0,57,57,57,433.04362939999555,,,,,,,,,,,,,,,,,,,,,,,,,,,,,,,,,,,,,,433.01391829998465,433.01395709998906,433.0419064000016,433.04362939999555,433.04362939999555,433.04362939999555,433.04362939999555,436.0468514999957,436.0468514999957,437.03021549998084,1,1,0.862856699997792,0.41496799999731593,None,437.0302864999976,437.03030759998364,None,437.0303307999857,437.03034849997493,None,,,,,,,,,,,8,1,0,0,2025-06-12_13h19.24.394,rtmindeye,2024.2.4,59.93913780355433,2025-06-12 13h19.37.622275 -0400,
all_stimuli/MST_pairs1/pair_14_18_22.png,58,0,58,58,0,,,,,,1,0,0,1,1,"[9, 21, 31, 45, 56, 68, 69]",2,1,0.7296579999965616,0.30917049999698065,None,None,None,,,,,,,,,0,0,0,0,0,58,58,58,437.0467791999981,,,,,,,,,,,,,,,,,,,,,,,,,,,,,,,,,,,,,,437.03050500000245,437.03054899998824,437.0429273999762,437.0467791999981,437.0467791999981,437.0467791999981,437.0467791999981,440.0471084000019,440.0471084000019,441.0301519999921,2,1,0.7296579999965616,0.30917049999698065,None,441.03021779999835,441.0302382999798,None,441.03026079997653,441.0302774999873,None,441.0600971999811,441.0600971999811,,,,,,,,,8,1,0,0,2025-06-12_13h19.24.394,rtmindeye,2024.2.4,59.93913780355433,2025-06-12 13h19.37.622275 -0400,
all_stimuli/shared1000_notspecial/notspecial_63081.png,59,0,59,59,0,,,,,,0,0,0,1,1,"[9, 21, 31, 45, 56, 68, 69]",1,1,0.7944732000178192,0.39094650000333786,None,None,None,,,,,,,,,0,0,0,0,0,59,59,59,441.0600971999811,,,,,,,,,,,,,,,,,,,,,,,,,,,,,,,,,,,,,,441.0304331999796,441.0304708999756,441.05846429997473,441.0600971999811,441.0600971999811,441.0600971999811,441.0600971999811,444.0633498999814,444.0633498999814,445.0470425999956,1,1,0.7944732000178192,0.39094650000333786,None,445.0471127999772,445.04713439999614,None,445.0471571999951,445.04717449998134,None,,,,,,,,,,,8,1,0,0,2025-06-12_13h19.24.394,rtmindeye,2024.2.4,59.93913780355433,2025-06-12 13h19.37.622275 -0400,
all_stimuli/MST_pairs1/pair_42_w_icerink2.jpg,60,0,60,60,0,,,,,,0,0,0,1,1,"[9, 21, 31, 45, 56, 68, 69]",1,1,0.7545089999912307,0.43713959999149665,None,None,None,,,,,,,,,0,0,0,0,0,60,60,60,445.0747754999902,,,,,,,,,,,,,,,,,,,,,,,,,,,,,,,,,,,,,,445.04733719999786,445.04738089998136,445.07308989999,445.0747754999902,445.0747754999902,445.0747754999902,445.0747754999902,448.0800444999768,448.0800444999768,449.0636787999829,1,1,0.7545089999912307,0.43713959999149665,None,449.0637499000004,449.0637716999918,None,449.0637951999961,449.0638127999846,None,,,,,,,,,,,8,1,0,0,2025-06-12_13h19.24.394,rtmindeye,2024.2.4,59.93913780355433,2025-06-12 13h19.37.622275 -0400,
all_stimuli/MST_pairs1/pair_46_w_pool1.jpg,61,0,61,61,0,,,,,,0,0,0,1,1,"[9, 21, 31, 45, 56, 68, 69]",2,0,0.6858809000113979,0.35604019998572767,None,None,None,,,,,,,,,0,0,0,0,0,61,61,61,449.099565099983,,,,,,,,,,,,,,,,,,,,,,,,,,,,,,,,,,,,,,449.0639752999996,449.06401939998614,449.0977470999933,449.099565099983,449.099565099983,449.099565099983,449.099565099983,452.1135481999954,452.1135481999954,453.08026119999704,2,0,0.6858809000113979,0.35604019998572767,None,453.08033129997784,453.080352399993,None,453.0803748999897,453.08039289998123,None,,,,,,,,,,,8,1,0,0,2025-06-12_13h19.24.394,rtmindeye,2024.2.4,59.93913780355433,2025-06-12 13h19.37.622275 -0400,
all_stimuli/special515/special_40840.jpg,62,0,62,62,0,,,,,,0,0,0,1,1,"[9, 21, 31, 45, 56, 68, 69]",1,1,1.0279592000006232,0.301987899991218,None,None,None,,,,,,,,,0,0,0,0,0,62,62,62,453.12042659998406,,,,,,,,,,,,,,,,,,,,,,,,,,,,,,,,,,,,,,453.0805549999932,453.0805981000012,453.1186691999901,453.12042659998406,453.12042659998406,453.12042659998406,453.12042659998406,456.130101799994,456.130101799994,457.09688899997855,1,1,1.0279592000006232,0.301987899991218,None,457.0969594999915,457.09698059997754,None,457.0970042999834,457.0970223999757,None,,,,,,,,,,,8,1,0,0,2025-06-12_13h19.24.394,rtmindeye,2024.2.4,59.93913780355433,2025-06-12 13h19.37.622275 -0400,
all_stimuli/special515/special_29837.jpg,63,0,63,63,0,,,,,,0,0,0,1,1,"[9, 21, 31, 45, 56, 68, 69]",1,1,0.9635919000138529,0.42403500000364147,None,None,None,,,,,,,,,0,0,0,0,0,63,63,63,457.1238920999749,,,,,,,,,,,,,,,,,,,,,,,,,,,,,,,,,,,,,,457.09718630000134,457.0972308999917,457.12203589998535,457.1238920999749,457.1238920999749,457.1238920999749,457.1238920999749,460.1301870000025,460.1301870000025,461.113746499992,1,1,0.9635919000138529,0.42403500000364147,None,461.11381739997887,461.113838499994,None,461.11386139999377,461.113879099983,None,,,,,,,,,,,8,1,0,0,2025-06-12_13h19.24.394,rtmindeye,2024.2.4,59.93913780355433,2025-06-12 13h19.37.622275 -0400,
all_stimuli/shared1000_notspecial/notspecial_4768.png,64,0,64,64,0,,,,,,0,0,0,1,1,"[9, 21, 31, 45, 56, 68, 69]",1,1,1.0903187999792863,0.28204839999671094,None,None,None,,,,,,,,,0,0,0,0,0,64,64,64,461.1461485000036,,,,,,,,,,,,,,,,,,,,,,,,,,,,,,,,,,,,,,461.1140363999875,461.1140832999954,461.1445327999827,461.1461485000036,461.1461485000036,461.1461485000036,461.1461485000036,464.1468791999796,464.1468791999796,465.1301359999925,1,1,1.0903187999792863,0.28204839999671094,None,465.13020569999935,465.13022719998844,None,465.1302510999958,465.1302686999843,None,,,,,,,,,,,8,1,0,0,2025-06-12_13h19.24.394,rtmindeye,2024.2.4,59.93913780355433,2025-06-12 13h19.37.622275 -0400,
all_stimuli/MST_pairs1/pair_20_nsd_41_1_cocoid_15472.png,65,0,65,65,0,,,,,,0,0,0,1,1,"[9, 21, 31, 45, 56, 68, 69]",1,1,1.0603207999956794,0.419949600007385,None,None,None,,,,,,,,,0,0,0,0,0,65,65,65,465.185152799997,,,,,,,,,,,,,,,,,,,,,,,,,,,,,,,,,,,,,,465.13042949998635,465.13047249999363,465.18334009998944,465.185152799997,465.185152799997,465.185152799997,465.185152799997,468.1966852999758,468.1966852999758,469.1466661999875,1,1,1.0603207999956794,0.419949600007385,None,469.14673629999743,469.14675869999337,None,469.14678149999236,469.1467997999862,None,,,,,,,,,,,8,1,0,0,2025-06-12_13h19.24.394,rtmindeye,2024.2.4,59.93913780355433,2025-06-12 13h19.37.622275 -0400,
all_stimuli/shared1000_notspecial/notspecial_53157.png,66,0,66,66,0,,,,,,0,0,0,1,1,"[9, 21, 31, 45, 56, 68, 69]",1,1,0.9424867999914568,0.37895049998769537,None,None,None,,,,,,,,,0,0,0,0,0,66,66,66,469.1739353000012,,,,,,,,,,,,,,,,,,,,,,,,,,,,,,,,,,,,,,469.1469588999753,469.14700299999095,469.17230099998415,469.1739353000012,469.1739353000012,469.1739353000012,469.1739353000012,472.180055099976,472.180055099976,473.1635466000007,1,1,0.9424867999914568,0.37895049998769537,None,473.16361789999064,473.1636399999843,None,473.16366439999547,473.1636818999832,None,,,,,,,,,,,8,1,0,0,2025-06-12_13h19.24.394,rtmindeye,2024.2.4,59.93913780355433,2025-06-12 13h19.37.622275 -0400,
all_stimuli/special515/special_38641.jpg,67,0,67,67,0,,,,,,1,0,0,1,1,"[9, 21, 31, 45, 56, 68, 69]",2,1,1.170357299997704,0.3370419999992009,None,None,None,,,,,,,,,0,0,0,0,0,67,67,67,473.1800387999974,,,,,,,,,,,,,,,,,,,,,,,,,,,,,,,,,,,,,,473.1638447000005,473.16388849998475,473.1760588999896,473.1800387999974,473.1800387999974,473.1800387999974,473.1800387999974,476.18019399998593,476.18019399998593,477.16385279997485,2,1,1.170357299997704,0.3370419999992009,None,477.163917799975,477.16393839998636,None,477.163962599996,477.163979999983,None,477.1804256999749,477.1804256999749,,,,,,,,,8,1,0,0,2025-06-12_13h19.24.394,rtmindeye,2024.2.4,59.93913780355433,2025-06-12 13h19.37.622275 -0400,
blank.jpg,68,1,68,68,0,,,,,,0,0,0,1,1,"[9, 21, 31, 45, 56, 68, 69]",None,0,,,None,None,None,,,,,,,,,0,0,0,0,0,68,68,68,477.1804256999749,,,,,,,,,,,,,,,,,,,,,,,,,,,,,,,,,,,,,,477.1641394000035,477.1641781999788,477.17195899999933,477.1804256999749,477.1804256999749,477.1804256999749,477.1804256999749,480.18008939997526,480.18008939997526,481.16356249997625,None,0,,,None,481.1636215999897,481.16364250000333,None,481.1636655999755,481.1636833999946,None,481.1802051999839,481.1802051999839,,,,,,,,,8,1,0,0,2025-06-12_13h19.24.394,rtmindeye,2024.2.4,59.93913780355433,2025-06-12 13h19.37.622275 -0400,
blank.jpg,69,1,69,69,0,,,,,,0,1,0,1,0,"[9, 21, 31, 45, 56, 68, 69]",None,0,,,None,1,equal,6.1084838999959175,None,27.41097009999794,None,,,,,0,0,0,0,0,69,69,69,481.1802051999839,,,,,,,,,,,,,,,,,,,,,,,,,,,,,,,,,,,,,,481.16383499998483,481.1638776999898,481.17004849997465,481.1802051999839,481.1802051999839,481.1802051999839,481.1802051999839,484.1800866999838,484.1800866999838,485.16370639999514,None,0,,,None,485.1841522999748,491.2969114999869,1,491.2969675999775,518.730153499986,equal,485.1860138999764,485.1860138999764,485.1860138999764,485.1860138999764,6.1084838999959175,None,491.31350479999674,491.31350479999674,27.41097009999794,None,8,1,0,0,2025-06-12_13h19.24.394,rtmindeye,2024.2.4,59.93913780355433,2025-06-12 13h19.37.622275 -0400,
,,,0,0,0,,,,,,,,,,,,,,,,,,,,,,,,,,,0,0,0,0,,,,,,,,,,,,,,,,,,,,,,,,,,,,,,,,,,,,,,,,,,,,,,,,,,,,,,,,,,,,,,,,,,,,,,,,,,8,1,0,0,2025-06-12_13h19.24.394,rtmindeye,2024.2.4,59.93913780355433,2025-06-12 13h19.37.622275 -0400,
all_stimuli/special515/special_71450.jpg,0,0,0,0,0,,,,,,0,0,1,1,1,"[9, 21, 31, 45, 56, 68, 69]",1,1,1.0596790999989025,0.5650996000040323,None,None,None,,,,,,,,,1,0,1,0,0,0,0,0,518.7875923999818,,,,,,,,,,,,,,,,,,,,,,,,,,,,,,,,,,,,,,518.7662167999952,518.7663174999761,518.7853764999891,518.7875923999818,518.7875923999818,518.7875923999818,518.7875923999818,521.7965015999798,521.7965015999798,522.7799662000034,1,1,1.0596790999989025,0.5650996000040323,None,522.7800415999955,522.7800629999838,None,522.7800878999988,522.7801066999964,None,,,,,,,,,,,8,1,0,0,2025-06-12_13h19.24.394,rtmindeye,2024.2.4,59.93913780355433,2025-06-12 13h19.37.622275 -0400,
all_stimuli/special515/special_38246.jpg,1,0,1,1,0,,,,,,0,0,1,1,1,"[9, 21, 31, 45, 56, 68, 69]",1,1,1.374122899986105,0.37108330000774004,None,None,None,,,,,,,,,1,0,1,0,0,1,1,1,522.8082682999957,,,,,,,,,,,,,,,,,,,,,,,,,,,,,,,,,,,,,,522.7802789999987,522.7803226999822,522.8063919999986,522.8082682999957,522.8082682999957,522.8082682999957,522.8082682999957,525.8130484999856,525.8130484999856,526.7965445999871,1,1,1.374122899986105,0.37108330000774004,None,526.7966172999877,526.7966387999768,None,526.7966617999773,526.7966795999964,None,,,,,,,,,,,8,1,0,0,2025-06-12_13h19.24.394,rtmindeye,2024.2.4,59.93913780355433,2025-06-12 13h19.37.622275 -0400,
all_stimuli/special515/special_10046.jpg,2,0,2,2,0,,,,,,0,0,1,1,1,"[9, 21, 31, 45, 56, 68, 69]",1,1,0.947593599994434,0.3750877999991644,None,None,None,,,,,,,,,1,0,1,0,0,2,2,2,526.8337204999989,,,,,,,,,,,,,,,,,,,,,,,,,,,,,,,,,,,,,,526.7968419999816,526.796886199998,526.8318445999757,526.8337204999989,526.8337204999989,526.8337204999989,526.8337204999989,529.8464899999963,529.8464899999963,530.8134063999751,1,1,0.947593599994434,0.3750877999991644,None,530.8134774999926,530.8134977000009,None,530.8135210000037,530.8135383999906,None,,,,,,,,,,,8,1,0,0,2025-06-12_13h19.24.394,rtmindeye,2024.2.4,59.93913780355433,2025-06-12 13h19.37.622275 -0400,
all_stimuli/MST_pairs1/pair_38_w_arch2.jpg,3,0,3,3,0,,,,,,0,0,1,1,1,"[9, 21, 31, 45, 56, 68, 69]",1,1,0.6661759999988135,0.3600010999944061,None,None,None,,,,,,,,,1,0,1,0,0,3,3,3,530.8602955999959,,,,,,,,,,,,,,,,,,,,,,,,,,,,,,,,,,,,,,530.813697399979,530.8137412999931,530.8585996999755,530.8602955999959,530.8602955999959,530.8602955999959,530.8602955999959,533.8631871999823,533.8631871999823,534.8300987999828,1,1,0.6661759999988135,0.3600010999944061,None,534.8301734999986,534.8301943999832,None,534.8302171999821,534.8302349000005,None,,,,,,,,,,,8,1,0,0,2025-06-12_13h19.24.394,rtmindeye,2024.2.4,59.93913780355433,2025-06-12 13h19.37.622275 -0400,
all_stimuli/special515/special_30395.jpg,4,0,4,4,0,,,,,,0,0,1,1,1,"[9, 21, 31, 45, 56, 68, 69]",1,1,0.8554708000156097,0.5080385000037495,None,None,None,,,,,,,,,1,0,1,0,0,4,4,4,534.8608821999806,,,,,,,,,,,,,,,,,,,,,,,,,,,,,,,,,,,,,,534.830398799997,534.8304421999783,534.8589806999953,534.8608821999806,534.8608821999806,534.8608821999806,534.8608821999806,537.8631326000032,537.8631326000032,538.8464934999938,1,1,0.8554708000156097,0.5080385000037495,None,538.8465641999792,538.8465843999875,None,538.8466085999971,538.8466264999879,None,,,,,,,,,,,8,1,0,0,2025-06-12_13h19.24.394,rtmindeye,2024.2.4,59.93913780355433,2025-06-12 13h19.37.622275 -0400,
all_stimuli/special515/special_38494.jpg,5,0,5,5,0,,,,,,1,0,1,1,1,"[9, 21, 31, 45, 56, 68, 69]",2,1,0.7312017000222113,0.356887599977199,None,None,None,,,,,,,,,1,0,1,0,0,5,5,5,538.8632087000005,,,,,,,,,,,,,,,,,,,,,,,,,,,,,,,,,,,,,,538.8467865999846,538.846830800001,538.8581446000026,538.8632087000005,538.8632087000005,538.8632087000005,538.8632087000005,541.8633213999856,541.8633213999856,542.8467903999845,2,1,0.7312017000222113,0.356887599977199,None,542.8468548999808,542.8468744999846,None,542.8468978999881,542.8469152000034,None,542.8674220999819,542.8674220999819,,,,,,,,,8,1,0,0,2025-06-12_13h19.24.394,rtmindeye,2024.2.4,59.93913780355433,2025-06-12 13h19.37.622275 -0400,
all_stimuli/MST_pairs1/pair_28_nsd_547_1_cocoid_60932.png,6,0,6,6,0,,,,,,1,0,1,1,1,"[9, 21, 31, 45, 56, 68, 69]",2,1,0.8280518999963533,0.3208128999976907,None,None,None,,,,,,,,,1,0,1,0,0,6,6,6,542.8674220999819,,,,,,,,,,,,,,,,,,,,,,,,,,,,,,,,,,,,,,542.8470743999933,542.8471125999931,542.8654267999809,542.8674220999819,542.8674220999819,542.8674220999819,542.8674220999819,545.8798184999905,545.8798184999905,546.8633497999981,2,1,0.8280518999963533,0.3208128999976907,None,546.8634214999911,546.8634424999764,None,546.8634652999754,546.8634831999952,None,,,,,,,,,,,8,1,0,0,2025-06-12_13h19.24.394,rtmindeye,2024.2.4,59.93913780355433,2025-06-12 13h19.37.622275 -0400,
all_stimuli/special515/special_61133.jpg,7,0,7,7,0,,,,,,0,0,1,1,1,"[9, 21, 31, 45, 56, 68, 69]",1,1,1.3774278000055347,0.5520422999979928,None,None,None,,,,,,,,,1,0,1,0,0,7,7,7,546.8989937999868,,,,,,,,,,,,,,,,,,,,,,,,,,,,,,,,,,,,,,546.8636453999789,546.8636893999937,546.8971619999793,546.8989937999868,546.8989937999868,546.8989937999868,546.8989937999868,549.9133519000025,549.9133519000025,550.8801352999872,1,1,1.3774278000055347,0.5520422999979928,None,550.8802034999826,550.8802243999962,None,550.8802468999929,550.8802649999852,None,,,,,,,,,,,8,1,0,0,2025-06-12_13h19.24.394,rtmindeye,2024.2.4,59.93913780355433,2025-06-12 13h19.37.622275 -0400,
all_stimuli/shared1000_notspecial/notspecial_16635.png,8,0,8,8,0,,,,,,0,0,1,1,1,"[9, 21, 31, 45, 56, 68, 69]",1,1,0.8002987999934703,0.547936299990397,None,None,None,,,,,,,,,1,0,1,0,0,8,8,8,550.917086899979,,,,,,,,,,,,,,,,,,,,,,,,,,,,,,,,,,,,,,550.8804222999897,550.8804694999999,550.9155052999849,550.917086899979,550.917086899979,550.917086899979,550.917086899979,553.9296762000013,553.9296762000013,554.8965341000003,1,1,0.8002987999934703,0.547936299990397,None,554.8966047999857,554.8966259000008,None,554.8966490000021,554.896666399989,None,,,,,,,,,,,8,1,0,0,2025-06-12_13h19.24.394,rtmindeye,2024.2.4,59.93913780355433,2025-06-12 13h19.37.622275 -0400,
blank.jpg,9,1,9,9,0,,,,,,0,0,1,1,1,"[9, 21, 31, 45, 56, 68, 69]",None,0,,,None,None,None,,,,,,,,,1,0,1,0,0,9,9,9,554.9135261999909,,,,,,,,,,,,,,,,,,,,,,,,,,,,,,,,,,,,,,554.8968281999987,554.896872399986,554.9055307999952,554.9135261999909,554.9135261999909,554.9135261999909,554.9135261999909,557.9130566999956,557.9130566999956,558.896842999995,None,0,,,None,558.8969037999923,558.8969238999998,None,558.8969467999996,558.896963999985,None,558.9605227999855,558.9605227999855,,,,,,,,,8,1,0,0,2025-06-12_13h19.24.394,rtmindeye,2024.2.4,59.93913780355433,2025-06-12 13h19.37.622275 -0400,
all_stimuli/MST_pairs1/pair_18_nsd_6_1_cocoid_13417.png,10,0,10,10,0,,,,,,0,0,1,1,1,"[9, 21, 31, 45, 56, 68, 69]",1,1,0.9867017000215128,0.4959905999712646,None,None,None,,,,,,,,,1,0,1,0,0,10,10,10,558.9605227999855,,,,,,,,,,,,,,,,,,,,,,,,,,,,,,,,,,,,,,558.8971269000031,558.8971651000029,558.9569539999939,558.9605227999855,558.9605227999855,558.9605227999855,558.9605227999855,561.963276800001,561.963276800001,562.9133904999762,1,1,0.9867017000215128,0.4959905999712646,None,562.9134629999753,562.9134848999965,None,562.9135077999963,562.9135254999856,None,,,,,,,,,,,8,1,0,0,2025-06-12_13h19.24.394,rtmindeye,2024.2.4,59.93913780355433,2025-06-12 13h19.37.622275 -0400,
all_stimuli/shared1000_notspecial/notspecial_21703.png,11,0,11,11,0,,,,,,0,0,1,1,1,"[9, 21, 31, 45, 56, 68, 69]",1,1,0.8829581000027247,0.4418389000056777,None,None,None,,,,,,,,,1,0,1,0,0,11,11,11,562.9564667999803,,,,,,,,,,,,,,,,,,,,,,,,,,,,,,,,,,,,,,562.9136898999859,562.9137372999976,562.9548045999836,562.9564667999803,562.9564667999803,562.9564667999803,562.9564667999803,565.9631038999942,565.9631038999942,566.9299730999919,1,1,0.8829581000027247,0.4418389000056777,None,566.9300444999826,566.930065499997,None,566.9300891000021,566.9301073999959,None,,,,,,,,,,,8,1,0,0,2025-06-12_13h19.24.394,rtmindeye,2024.2.4,59.93913780355433,2025-06-12 13h19.37.622275 -0400,
all_stimuli/special515/special_24530.jpg,12,0,12,12,0,,,,,,0,0,1,1,1,"[9, 21, 31, 45, 56, 68, 69]",1,1,0.8116481000033673,0.41999689998920076,None,None,None,,,,,,,,,1,0,1,0,0,12,12,12,566.9767543999769,,,,,,,,,,,,,,,,,,,,,,,,,,,,,,,,,,,,,,566.9302720999985,566.9303162999859,566.9748175999848,566.9767543999769,566.9767543999769,566.9767543999769,566.9767543999769,569.9798723999993,569.9798723999993,570.9464761999843,1,1,0.8116481000033673,0.41999689998920076,None,570.9465477999765,570.9465679999848,None,570.9465918999922,570.946609799983,None,,,,,,,,,,,8,1,0,0,2025-06-12_13h19.24.394,rtmindeye,2024.2.4,59.93913780355433,2025-06-12 13h19.37.622275 -0400,
all_stimuli/shared1000_notspecial/notspecial_6222.png,13,0,13,13,0,,,,,,0,0,1,1,1,"[9, 21, 31, 45, 56, 68, 69]",1,1,0.8039711999881547,0.3681209000060335,None,None,None,,,,,,,,,1,0,1,0,0,13,13,13,570.9853799999983,,,,,,,,,,,,,,,,,,,,,,,,,,,,,,,,,,,,,,570.9467700999812,570.9468133999908,570.9837281999935,570.9853799999983,570.9853799999983,570.9853799999983,570.9853799999983,573.9968692999973,573.9968692999973,574.9631580999994,1,1,0.8039711999881547,0.3681209000060335,None,574.9632299999939,574.9632509999792,None,574.9632741999812,574.9632915999973,None,,,,,,,,,,,8,1,0,0,2025-06-12_13h19.24.394,rtmindeye,2024.2.4,59.93913780355433,2025-06-12 13h19.37.622275 -0400,
all_stimuli/MST_pairs1/pair_44_w_log_cabin2.jpg,14,0,14,14,0,,,,,,0,0,1,1,1,"[9, 21, 31, 45, 56, 68, 69]",1,1,0.7823213000083342,0.5668348000035621,None,None,None,,,,,,,,,1,0,1,0,0,14,14,14,574.9921268999751,,,,,,,,,,,,,,,,,,,,,,,,,,,,,,,,,,,,,,574.9634537999809,574.9634971999913,574.9904226999788,574.9921268999751,574.9921268999751,574.9921268999751,574.9921268999751,577.9966063000029,577.9966063000029,578.9801295999787,1,1,0.7823213000083342,0.5668348000035621,None,578.9802000999916,578.9802204000007,None,578.9802431999997,578.9802605999867,None,,,,,,,,,,,8,1,0,0,2025-06-12_13h19.24.394,rtmindeye,2024.2.4,59.93913780355433,2025-06-12 13h19.37.622275 -0400,
all_stimuli/special515/special_28068.jpg,15,0,15,15,0,,,,,,0,0,1,1,1,"[9, 21, 31, 45, 56, 68, 69]",1,1,1.009070200001588,0.5129046000074595,None,None,None,,,,,,,,,1,0,1,0,0,15,15,15,579.01441969999,,,,,,,,,,,,,,,,,,,,,,,,,,,,,,,,,,,,,,578.9804179999919,578.9804615999747,579.0126184999826,579.01441969999,579.01441969999,579.01441969999,579.01441969999,582.0298463999934,582.0298463999934,582.9964745999896,1,1,1.009070200001588,0.5129046000074595,None,582.9965470999887,582.9965681999747,None,582.996591699979,582.9966094999982,None,,,,,,,,,,,8,1,0,0,2025-06-12_13h19.24.394,rtmindeye,2024.2.4,59.93913780355433,2025-06-12 13h19.37.622275 -0400,
all_stimuli/shared1000_notspecial/notspecial_60978.png,16,0,16,16,0,,,,,,0,0,1,1,1,"[9, 21, 31, 45, 56, 68, 69]",1,1,0.7183088999881875,0.5891926000185777,None,None,None,,,,,,,,,1,0,1,0,0,16,16,16,583.0309577999869,,,,,,,,,,,,,,,,,,,,,,,,,,,,,,,,,,,,,,582.9967701999994,582.9968139999837,583.0290442999976,583.0309577999869,583.0309577999869,583.0309577999869,583.0309577999869,586.0300602999923,586.0300602999923,587.0130187999748,1,1,0.7183088999881875,0.5891926000185777,None,587.0130888999847,587.0131096999976,None,587.013132299995,587.0131495999813,None,,,,,,,,,,,8,1,0,0,2025-06-12_13h19.24.394,rtmindeye,2024.2.4,59.93913780355433,2025-06-12 13h19.37.622275 -0400,
all_stimuli/MST_pairs1/pair_2_4_22.png,17,0,17,17,0,,,,,,0,0,1,1,1,"[9, 21, 31, 45, 56, 68, 69]",1,1,0.7284038999932818,0.50011789999553,None,None,None,,,,,,,,,1,0,1,0,0,17,17,17,587.0708584999957,,,,,,,,,,,,,,,,,,,,,,,,,,,,,,,,,,,,,,587.0133181999845,587.0133623000002,587.0691899999802,587.0708584999957,587.0708584999957,587.0708584999957,587.0708584999957,590.080098699982,590.080098699982,591.0134162999748,1,1,0.7284038999932818,0.50011789999553,None,591.0134901999845,591.0135112999997,None,591.0135347000032,591.013552199991,None,,,,,,,,,,,8,1,0,0,2025-06-12_13h19.24.394,rtmindeye,2024.2.4,59.93913780355433,2025-06-12 13h19.37.622275 -0400,
all_stimuli/shared1000_notspecial/notspecial_46160.png,18,0,18,18,0,,,,,,0,0,1,1,1,"[9, 21, 31, 45, 56, 68, 69]",1,1,0.7398455999791622,0.5880223000131082,None,None,None,,,,,,,,,1,0,1,0,0,18,18,18,591.0455336000014,,,,,,,,,,,,,,,,,,,,,,,,,,,,,,,,,,,,,,591.0137115999823,591.0137551999942,591.0437592999951,591.0455336000014,591.0455336000014,591.0455336000014,591.0455336000014,594.0464005999966,594.0464005999966,595.0301248999895,1,1,0.7398455999791622,0.5880223000131082,None,595.0301966999832,595.0302183000022,None,595.0302415999759,595.0302592999942,None,,,,,,,,,,,8,1,0,0,2025-06-12_13h19.24.394,rtmindeye,2024.2.4,59.93913780355433,2025-06-12 13h19.37.622275 -0400,
all_stimuli/special515/special_64880.jpg,19,0,19,19,0,,,,,,0,0,1,1,1,"[9, 21, 31, 45, 56, 68, 69]",1,1,0.6629684999934398,0.4819532999827061,None,None,None,,,,,,,,,1,0,1,0,0,19,19,19,595.0633978999977,,,,,,,,,,,,,,,,,,,,,,,,,,,,,,,,,,,,,,595.0304266999883,595.0304708999756,595.0616462999897,595.0633978999977,595.0633978999977,595.0633978999977,595.0633978999977,598.0631925999769,598.0631925999769,599.0464727999934,1,1,0.6629684999934398,0.4819532999827061,None,599.0465440999833,599.0465646999946,None,599.0465876999951,599.0466056999867,None,,,,,,,,,,,8,1,0,0,2025-06-12_13h19.24.394,rtmindeye,2024.2.4,59.93913780355433,2025-06-12 13h19.37.622275 -0400,
all_stimuli/MST_pairs1/pair_36_nsd_949_1_cocoid_43196.png,20,0,20,20,0,,,,,,0,0,1,1,1,"[9, 21, 31, 45, 56, 68, 69]",1,1,0.7331100000010338,0.3570086999970954,None,None,None,,,,,,,,,1,0,1,0,0,20,20,20,599.0931788999878,,,,,,,,,,,,,,,,,,,,,,,,,,,,,,,,,,,,,,599.0467730999808,599.0468170999957,599.0913714999915,599.0931788999878,599.0931788999878,599.0931788999878,599.0931788999878,602.096386899997,602.096386899997,603.0629666000023,1,1,0.7331100000010338,0.3570086999970954,None,603.0630415999913,603.0630654999986,None,603.0630885999999,603.0631061999884,None,,,,,,,,,,,8,1,0,0,2025-06-12_13h19.24.394,rtmindeye,2024.2.4,59.93913780355433,2025-06-12 13h19.37.622275 -0400,
blank.jpg,21,1,21,21,0,,,,,,0,0,1,1,1,"[9, 21, 31, 45, 56, 68, 69]",None,0,,,None,None,None,,,,,,,,,1,0,1,0,0,21,21,21,603.0796892999788,,,,,,,,,,,,,,,,,,,,,,,,,,,,,,,,,,,,,,603.0632793999976,603.0633290999976,603.071719599975,603.0796892999788,603.0796892999788,603.0796892999788,603.0796892999788,606.0800255999784,606.0800255999784,607.0632971999876,None,0,,,None,607.063357099978,607.0633762999787,None,607.0634001999861,607.0634176000021,None,607.0798072999751,607.0798072999751,,,,,,,,,8,1,0,0,2025-06-12_13h19.24.394,rtmindeye,2024.2.4,59.93913780355433,2025-06-12 13h19.37.622275 -0400,
all_stimuli/special515/special_30632.jpg,22,0,22,22,0,,,,,,1,0,1,1,1,"[9, 21, 31, 45, 56, 68, 69]",2,1,0.7965855999791529,0.37189950002357364,None,None,None,,,,,,,,,1,0,1,0,0,22,22,22,607.0798072999751,,,,,,,,,,,,,,,,,,,,,,,,,,,,,,,,,,,,,,607.0635754999821,607.0636167999764,607.0755952000036,607.0798072999751,607.0798072999751,607.0798072999751,607.0798072999751,610.0800250000029,610.0800250000029,611.0632743999886,2,1,0.7965855999791529,0.37189950002357364,None,611.0633397999918,611.0633589999925,None,611.0633826999983,611.0634000999853,None,611.084151099989,611.084151099989,,,,,,,,,8,1,0,0,2025-06-12_13h19.24.394,rtmindeye,2024.2.4,59.93913780355433,2025-06-12 13h19.37.622275 -0400,
all_stimuli/MST_pairs1/pair_20_nsd_41_2_cocoid_63715.png,23,0,23,23,0,,,,,,1,0,1,1,1,"[9, 21, 31, 45, 56, 68, 69]",2,1,0.7620323000010103,0.361267800006317,None,None,None,,,,,,,,,1,0,1,0,0,23,23,23,611.084151099989,,,,,,,,,,,,,,,,,,,,,,,,,,,,,,,,,,,,,,611.0635603999835,611.0636026999855,611.0822314999823,611.084151099989,611.084151099989,611.084151099989,611.084151099989,614.0965218999772,614.0965218999772,615.080089199997,2,1,0.7620323000010103,0.361267800006317,None,615.0801600999839,615.0801818000036,None,615.0802056999819,615.080223500001,None,,,,,,,,,,,8,1,0,0,2025-06-12_13h19.24.394,rtmindeye,2024.2.4,59.93913780355433,2025-06-12 13h19.37.622275 -0400,
all_stimuli/MST_pairs1/pair_22_nsd_115_2_cocoid_65194.png,24,0,24,24,0,,,,,,0,0,1,1,1,"[9, 21, 31, 45, 56, 68, 69]",1,1,0.6970021000015549,0.29890540000633337,None,None,None,,,,,,,,,1,0,1,0,0,24,24,24,615.1353216999851,,,,,,,,,,,,,,,,,,,,,,,,,,,,,,,,,,,,,,615.0803832999954,615.0804308999795,615.1334684999892,615.1353216999851,615.1353216999851,615.1353216999851,615.1353216999851,618.1464795999927,618.1464795999927,619.0962684999977,1,1,0.6970021000015549,0.29890540000633337,None,619.0963413999998,619.0963628999889,None,619.0963859999902,619.0964040999825,None,,,,,,,,,,,8,1,0,0,2025-06-12_13h19.24.394,rtmindeye,2024.2.4,59.93913780355433,2025-06-12 13h19.37.622275 -0400,
all_stimuli/shared1000_notspecial/notspecial_26292.png,25,0,25,25,0,,,,,,0,0,1,1,1,"[9, 21, 31, 45, 56, 68, 69]",1,1,0.6944794000010006,0.3278709999867715,None,None,None,,,,,,,,,1,0,1,0,0,25,25,25,619.1238221999956,,,,,,,,,,,,,,,,,,,,,,,,,,,,,,,,,,,,,,619.0965652999876,619.0966085999971,619.1220926999813,619.1238221999956,619.1238221999956,619.1238221999956,619.1238221999956,622.1299142999924,622.1299142999924,623.112922499975,1,1,0.6944794000010006,0.3278709999867715,None,623.1129965999862,623.1130184999784,None,623.1130428999895,623.1130611999833,None,,,,,,,,,,,8,1,0,0,2025-06-12_13h19.24.394,rtmindeye,2024.2.4,59.93913780355433,2025-06-12 13h19.37.622275 -0400,
all_stimuli/special515/special_6489.jpg,26,0,26,26,0,,,,,,1,0,1,1,1,"[9, 21, 31, 45, 56, 68, 69]",1,0,1.3665412000264041,0.3279815999849234,None,None,None,,,,,,,,,1,0,1,0,0,26,26,26,623.1297930000001,,,,,,,,,,,,,,,,,,,,,,,,,,,,,,,,,,,,,,623.1132282000035,623.1132756999868,623.1247094999999,623.1297930000001,623.1297930000001,623.1297930000001,623.1297930000001,626.1299604999949,626.1299604999949,627.1132864999818,1,0,1.3665412000264041,0.3279815999849234,None,627.1133532999957,627.1133731000009,None,627.1133962000022,627.1134139999922,None,627.1526244999841,627.1526244999841,,,,,,,,,8,1,0,0,2025-06-12_13h19.24.394,rtmindeye,2024.2.4,59.93913780355433,2025-06-12 13h19.37.622275 -0400,
all_stimuli/special515/special_55678.jpg,27,0,27,27,0,,,,,,0,0,1,1,1,"[9, 21, 31, 45, 56, 68, 69]",1,1,0.8506122000108007,0.3000541999936104,None,None,None,,,,,,,,,1,0,1,0,0,27,27,27,627.1526244999841,,,,,,,,,,,,,,,,,,,,,,,,,,,,,,,,,,,,,,627.1135766999796,627.1136152999825,627.1507506999769,627.1526244999841,627.1526244999841,627.1526244999841,627.1526244999841,630.1631853999861,630.1631853999861,631.1295971999934,1,1,0.8506122000108007,0.3000541999936104,None,631.129669499991,631.1296901000023,None,631.1297135999775,631.1297312999959,None,,,,,,,,,,,8,1,0,0,2025-06-12_13h19.24.394,rtmindeye,2024.2.4,59.93913780355433,2025-06-12 13h19.37.622275 -0400,
all_stimuli/special515/special_40909.jpg,28,0,28,28,0,,,,,,0,0,1,1,1,"[9, 21, 31, 45, 56, 68, 69]",1,1,1.5217200000188313,0.28573420000611804,None,None,None,,,,,,,,,1,0,1,0,0,28,28,28,631.1557528999983,,,,,,,,,,,,,,,,,,,,,,,,,,,,,,,,,,,,,,631.1298943999864,631.1299376999959,631.153891599999,631.1557528999983,631.1557528999983,631.1557528999983,631.1557528999983,634.1630972999847,634.1630972999847,635.1300863999932,1,1,1.5217200000188313,0.28573420000611804,None,635.130156899977,635.1301773999876,None,635.1302008999919,635.1302189999842,None,,,,,,,,,,,8,1,0,0,2025-06-12_13h19.24.394,rtmindeye,2024.2.4,59.93913780355433,2025-06-12 13h19.37.622275 -0400,
all_stimuli/special515/special_70360.jpg,29,0,29,29,0,,,,,,0,0,1,1,1,"[9, 21, 31, 45, 56, 68, 69]",1,1,1.3227553000033367,0.28496990000712685,None,None,None,,,,,,,,,1,0,1,0,0,29,29,29,635.1595556999964,,,,,,,,,,,,,,,,,,,,,,,,,,,,,,,,,,,,,,635.1303901999781,635.130434199993,635.1578787999752,635.1595556999964,635.1595556999964,635.1595556999964,635.1595556999964,638.163298200001,638.163298200001,639.1463851000008,1,1,1.3227553000033367,0.28496990000712685,None,639.1464573999983,639.1464778999798,None,639.1465021999902,639.1465202999825,None,,,,,,,,,,,8,1,0,0,2025-06-12_13h19.24.394,rtmindeye,2024.2.4,59.93913780355433,2025-06-12 13h19.37.622275 -0400,
all_stimuli/MST_pairs1/pair_42_w_icerink1.jpg,30,0,30,30,0,,,,,,0,0,1,1,1,"[9, 21, 31, 45, 56, 68, 69]",1,1,1.1958968999970239,0.3091986999788787,None,None,None,,,,,,,,,1,0,1,0,0,30,30,30,639.1682546999946,,,,,,,,,,,,,,,,,,,,,,,,,,,,,,,,,,,,,,639.146682999999,639.1467265999818,639.1665514999768,639.1682546999946,639.1682546999946,639.1682546999946,639.1682546999946,642.18003399999,642.18003399999,643.1630211999873,1,1,1.1958968999970239,0.3091986999788787,None,643.1630985999946,643.1631201999844,None,643.1631441999925,643.1631621999841,None,,,,,,,,,,,8,1,0,0,2025-06-12_13h19.24.394,rtmindeye,2024.2.4,59.93913780355433,2025-06-12 13h19.37.622275 -0400,
blank.jpg,31,1,31,31,0,,,,,,0,0,1,1,1,"[9, 21, 31, 45, 56, 68, 69]",None,0,,,None,None,None,,,,,,,,,1,0,1,0,0,31,31,31,643.1798918999848,,,,,,,,,,,,,,,,,,,,,,,,,,,,,,,,,,,,,,643.1633651999873,643.1634213999787,643.1710340999998,643.1798918999848,643.1798918999848,643.1798918999848,643.1798918999848,646.1799122999946,646.1799122999946,647.1633023999748,None,0,,,None,647.1633651999873,647.1633848999918,None,647.1634081999946,647.1634261999861,None,647.1797632999951,647.1797632999951,,,,,,,,,8,1,0,0,2025-06-12_13h19.24.394,rtmindeye,2024.2.4,59.93913780355433,2025-06-12 13h19.37.622275 -0400,
all_stimuli/special515/special_30430.jpg,32,0,32,32,0,,,,,,1,0,1,1,1,"[9, 21, 31, 45, 56, 68, 69]",1,0,1.0275777999777347,0.34196170000359416,None,None,None,,,,,,,,,1,0,1,0,0,32,32,32,647.1797632999951,,,,,,,,,,,,,,,,,,,,,,,,,,,,,,,,,,,,,,647.1635996999976,647.1636400999851,647.1747173999902,647.1797632999951,647.1797632999951,647.1797632999951,647.1797632999951,650.1798075999832,650.1798075999832,651.1631053999881,1,0,1.0275777999777347,0.34196170000359416,None,651.1631737999851,651.1631931999873,None,651.1632167999924,651.1632341999793,None,651.2035716999962,651.2035716999962,,,,,,,,,8,1,0,0,2025-06-12_13h19.24.394,rtmindeye,2024.2.4,59.93913780355433,2025-06-12 13h19.37.622275 -0400,
all_stimuli/shared1000_notspecial/notspecial_43746.png,33,0,33,33,0,,,,,,0,0,1,1,1,"[9, 21, 31, 45, 56, 68, 69]",1,1,0.9307400000107009,0.26291399999172427,None,None,None,,,,,,,,,1,0,1,0,0,33,33,33,651.2035716999962,,,,,,,,,,,,,,,,,,,,,,,,,,,,,,,,,,,,,,651.1633917999861,651.1634293999814,651.2019339999824,651.2035716999962,651.2035716999962,651.2035716999962,651.2035716999962,654.2129602999776,654.2129602999776,655.1799752999796,1,1,0.9307400000107009,0.26291399999172427,None,655.1800514999777,655.1800730999967,None,655.1800968000025,655.180114399991,None,,,,,,,,,,,8,1,0,0,2025-06-12_13h19.24.394,rtmindeye,2024.2.4,59.93913780355433,2025-06-12 13h19.37.622275 -0400,
all_stimuli/MST_pairs1/pair_34_nsd_875_1_cocoid_67762.png,34,0,34,34,0,,,,,,0,0,1,1,1,"[9, 21, 31, 45, 56, 68, 69]",1,1,0.9821095999795943,0.24993830002495088,None,None,None,,,,,,,,,1,0,1,0,0,34,34,34,655.2252681999817,,,,,,,,,,,,,,,,,,,,,,,,,,,,,,,,,,,,,,655.180280599976,655.1803243999893,655.2233509999933,655.2252681999817,655.2252681999817,655.2252681999817,655.2252681999817,658.2297166999779,658.2297166999779,659.1965255999821,1,1,0.9821095999795943,0.24993830002495088,None,659.1965977999789,659.1966189999948,None,659.1966415999923,659.1966594999831,None,,,,,,,,,,,8,1,0,0,2025-06-12_13h19.24.394,rtmindeye,2024.2.4,59.93913780355433,2025-06-12 13h19.37.622275 -0400,
all_stimuli/MST_pairs1/pair_12_16_78.png,35,0,35,35,0,,,,,,1,0,1,1,1,"[9, 21, 31, 45, 56, 68, 69]",2,1,0.7082614999962971,0.29198849998647347,None,None,None,,,,,,,,,1,0,1,0,0,35,35,35,659.2129585999937,,,,,,,,,,,,,,,,,,,,,,,,,,,,,,,,,,,,,,659.1968220999988,659.1968659999839,659.2095603999915,659.2129585999937,659.2129585999937,659.2129585999937,659.2129585999937,662.2130864999781,662.2130864999781,663.1964594000019,2,1,0.7082614999962971,0.29198849998647347,None,663.1965273999958,663.1965479999781,None,663.1965721999877,663.196589500003,None,663.2130538999918,663.2130538999918,,,,,,,,,8,1,0,0,2025-06-12_13h19.24.394,rtmindeye,2024.2.4,59.93913780355433,2025-06-12 13h19.37.622275 -0400,
all_stimuli/special515/special_4249.jpg,36,0,36,36,0,,,,,,1,0,1,1,1,"[9, 21, 31, 45, 56, 68, 69]",2,1,0.9052403999958187,0.28405909999855794,None,None,None,,,,,,,,,1,0,1,0,0,36,36,36,663.2130538999918,,,,,,,,,,,,,,,,,,,,,,,,,,,,,,,,,,,,,,663.1967581999779,663.1968023999943,663.2092970999947,663.2130538999918,663.2130538999918,663.2130538999918,663.2130538999918,666.2129144999781,666.2129144999781,667.1963182000036,2,1,0.9052403999958187,0.28405909999855794,None,667.1963832999754,667.1964027999784,None,667.1964253999759,667.1964424999896,None,667.2129458999843,667.2129458999843,,,,,,,,,8,1,0,0,2025-06-12_13h19.24.394,rtmindeye,2024.2.4,59.93913780355433,2025-06-12 13h19.37.622275 -0400,
all_stimuli/MST_pairs1/pair_42_w_icerink2.jpg,37,0,37,37,0,,,,,,1,0,1,1,1,"[9, 21, 31, 45, 56, 68, 69]",2,1,1.0424105999991298,0.34896000000298955,None,None,None,,,,,,,,,1,0,1,0,0,37,37,37,667.2129458999843,,,,,,,,,,,,,,,,,,,,,,,,,,,,,,,,,,,,,,667.1966026999871,667.1966409999877,667.2084994000033,667.2129458999843,667.2129458999843,667.2129458999843,667.2129458999843,670.2130983999814,670.2130983999814,671.1965270999935,2,1,1.0424105999991298,0.34896000000298955,None,671.1965957999928,671.1966163000034,None,671.1966391000024,671.1966564999893,None,671.2309987999906,671.2309987999906,,,,,,,,,8,1,0,0,2025-06-12_13h19.24.394,rtmindeye,2024.2.4,59.93913780355433,2025-06-12 13h19.37.622275 -0400,
all_stimuli/shared1000_notspecial/notspecial_70038.png,38,0,38,38,0,,,,,,0,0,1,1,1,"[9, 21, 31, 45, 56, 68, 69]",2,0,0.8812758999993093,0.27187599998433143,None,None,None,,,,,,,,,1,0,1,0,0,38,38,38,671.2309987999906,,,,,,,,,,,,,,,,,,,,,,,,,,,,,,,,,,,,,,671.1968180999975,671.1968558999943,671.2293680000002,671.2309987999906,671.2309987999906,671.2309987999906,671.2309987999906,674.2465505999862,674.2465505999862,675.2129722999816,2,0,0.8812758999993093,0.27187599998433143,None,675.2130441999761,675.2130651999905,None,675.2130887999956,675.2131066999864,None,,,,,,,,,,,8,1,0,0,2025-06-12_13h19.24.394,rtmindeye,2024.2.4,59.93913780355433,2025-06-12 13h19.37.622275 -0400,
all_stimuli/special515/special_53155.jpg,39,0,39,39,0,,,,,,0,0,1,1,1,"[9, 21, 31, 45, 56, 68, 69]",1,1,0.6939331000030506,0.3468734000052791,None,None,None,,,,,,,,,1,0,1,0,0,39,39,39,675.2443627999746,,,,,,,,,,,,,,,,,,,,,,,,,,,,,,,,,,,,,,675.2132711999875,675.2133153000032,675.2426395999792,675.2443627999746,675.2443627999746,675.2443627999746,675.2443627999746,678.2463205999811,678.2463205999811,679.2299932999886,1,1,0.6939331000030506,0.3468734000052791,None,679.2300652999838,679.2300864999997,None,679.230109600001,679.230126999988,None,,,,,,,,,,,8,1,0,0,2025-06-12_13h19.24.394,rtmindeye,2024.2.4,59.93913780355433,2025-06-12 13h19.37.622275 -0400,
all_stimuli/special515/special_24530.jpg,40,0,40,40,0,,,,,,1,0,1,1,1,"[9, 21, 31, 45, 56, 68, 69]",2,1,0.7631736000184901,0.30793009998160414,None,None,None,,,,,,,,,1,0,1,0,0,40,40,40,679.2460826000024,,,,,,,,,,,,,,,,,,,,,,,,,,,,,,,,,,,,,,679.2302890999999,679.2304047999787,679.2423794999777,679.2460826000024,679.2460826000024,679.2460826000024,679.2460826000024,682.2463870999927,682.2463870999927,683.230130299984,2,1,0.7631736000184901,0.30793009998160414,None,683.2301964999933,683.2302162999986,None,683.2302399999753,683.2302580999967,None,683.2674996999849,683.2674996999849,,,,,,,,,8,1,0,0,2025-06-12_13h19.24.394,rtmindeye,2024.2.4,59.93913780355433,2025-06-12 13h19.37.622275 -0400,
all_stimuli/special515/special_32232.jpg,41,0,41,41,0,,,,,,0,0,1,1,1,"[9, 21, 31, 45, 56, 68, 69]",1,1,0.7058703000075184,0.3237838000059128,None,None,None,,,,,,,,,1,0,1,0,0,41,41,41,683.2674996999849,,,,,,,,,,,,,,,,,,,,,,,,,,,,,,,,,,,,,,683.230418799998,683.2304608999984,683.2655886999855,683.2674996999849,683.2674996999849,683.2674996999849,683.2674996999849,686.2799216999847,686.2799216999847,687.2464807999786,1,1,0.7058703000075184,0.3237838000059128,None,687.2465520999976,687.2465728999814,None,687.246596299985,687.2466142999765,None,,,,,,,,,,,8,1,0,0,2025-06-12_13h19.24.394,rtmindeye,2024.2.4,59.93913780355433,2025-06-12 13h19.37.622275 -0400,
all_stimuli/special515/special_41814.jpg,42,0,42,42,0,,,,,,0,0,1,1,1,"[9, 21, 31, 45, 56, 68, 69]",1,1,0.8107078000030015,0.5288377999968361,None,None,None,,,,,,,,,1,0,1,0,0,42,42,42,687.2746884999797,,,,,,,,,,,,,,,,,,,,,,,,,,,,,,,,,,,,,,687.2467785999761,687.246822599991,687.2728245999897,687.2746884999797,687.2746884999797,687.2746884999797,687.2746884999797,690.2797537999868,690.2797537999868,691.2634856999794,1,1,0.8107078000030015,0.5288377999968361,None,691.2635555999877,691.2635761999991,None,691.2635989999981,691.2636167999881,None,,,,,,,,,,,8,1,0,0,2025-06-12_13h19.24.394,rtmindeye,2024.2.4,59.93913780355433,2025-06-12 13h19.37.622275 -0400,
all_stimuli/shared1000_notspecial/notspecial_23883.png,43,0,43,43,0,,,,,,0,0,1,1,1,"[9, 21, 31, 45, 56, 68, 69]",2,0,1.393090099998517,0.2760925999900792,None,None,None,,,,,,,,,1,0,1,0,0,43,43,43,691.2861578000011,,,,,,,,,,,,,,,,,,,,,,,,,,,,,,,,,,,,,,691.2637740999926,691.2638279999956,691.2845283999923,691.2861578000011,691.2861578000011,691.2861578000011,691.2861578000011,694.2963455999852,694.2963455999852,695.2797744999989,2,0,1.393090099998517,0.2760925999900792,None,695.2798454999865,695.2798665000009,None,695.2798896000022,695.2799073999922,None,,,,,,,,,,,8,1,0,0,2025-06-12_13h19.24.394,rtmindeye,2024.2.4,59.93913780355433,2025-06-12 13h19.37.622275 -0400,
all_stimuli/shared1000_notspecial/notspecial_4436.png,44,0,44,44,0,,,,,,0,0,1,1,1,"[9, 21, 31, 45, 56, 68, 69]",1,1,1.3750700999808032,0.3500895000179298,None,None,None,,,,,,,,,1,0,1,0,0,44,44,44,695.3122366000025,,,,,,,,,,,,,,,,,,,,,,,,,,,,,,,,,,,,,,695.2800717999926,695.2801158999791,695.3106283999805,695.3122366000025,695.3122366000025,695.3122366000025,695.3122366000025,698.3128798999824,698.3128798999824,699.2966299999971,1,1,1.3750700999808032,0.3500895000179298,None,699.2967015999893,699.2967224000022,None,699.2967451000004,699.2967624999874,None,,,,,,,,,,,8,1,0,0,2025-06-12_13h19.24.394,rtmindeye,2024.2.4,59.93913780355433,2025-06-12 13h19.37.622275 -0400,
blank.jpg,45,1,45,45,0,,,,,,0,0,1,1,1,"[9, 21, 31, 45, 56, 68, 69]",None,0,,,None,None,None,,,,,,,,,1,0,1,0,0,45,45,45,699.3130572999944,,,,,,,,,,,,,,,,,,,,,,,,,,,,,,,,,,,,,,699.2969202999957,699.2969639999792,699.3055269999895,699.3130572999944,699.3130572999944,699.3130572999944,699.3130572999944,702.3127969999914,702.3127969999914,703.2964482999814,None,0,,,None,703.2965090999787,703.2965289999847,None,703.2965529999929,703.2965702999791,None,703.31293309998,703.31293309998,,,,,,,,,8,1,0,0,2025-06-12_13h19.24.394,rtmindeye,2024.2.4,59.93913780355433,2025-06-12 13h19.37.622275 -0400,
all_stimuli/special515/special_61133.jpg,46,0,46,46,0,,,,,,1,0,1,1,1,"[9, 21, 31, 45, 56, 68, 69]",2,1,0.8113553000148386,0.2898724999977276,None,None,None,,,,,,,,,1,0,1,0,0,46,46,46,703.31293309998,,,,,,,,,,,,,,,,,,,,,,,,,,,,,,,,,,,,,,703.2967288999935,703.2967675999971,703.3097942000022,703.31293309998,703.31293309998,703.31293309998,703.31293309998,706.3129666000023,706.3129666000023,707.2963006999926,2,1,0.8113553000148386,0.2898724999977276,None,707.2963652999897,707.2963855999988,None,707.2964088000008,707.2964263999893,None,707.3661483000033,707.3661483000033,,,,,,,,,8,1,0,0,2025-06-12_13h19.24.394,rtmindeye,2024.2.4,59.93913780355433,2025-06-12 13h19.37.622275 -0400,
all_stimuli/MST_pairs1/pair_24_nsd_158_2_cocoid_3673.png,47,0,47,47,0,,,,,,0,0,1,1,1,"[9, 21, 31, 45, 56, 68, 69]",2,0,1.171282399998745,0.3277482000121381,None,None,None,,,,,,,,,1,0,1,0,0,47,47,47,707.3661483000033,,,,,,,,,,,,,,,,,,,,,,,,,,,,,,,,,,,,,,707.2965829999885,707.2966210999875,707.362507199985,707.3661483000033,707.3661483000033,707.3661483000033,707.3661483000033,710.3797074999893,710.3797074999893,711.3129485999816,2,0,1.171282399998745,0.3277482000121381,None,711.3130189999938,711.3130406999844,None,711.3130639999872,711.3130814999749,None,,,,,,,,,,,8,1,0,0,2025-06-12_13h19.24.394,rtmindeye,2024.2.4,59.93913780355433,2025-06-12 13h19.37.622275 -0400,
all_stimuli/MST_pairs1/pair_34_nsd_875_2_cocoid_72398.png,48,0,48,48,0,,,,,,0,0,1,1,1,"[9, 21, 31, 45, 56, 68, 69]",2,0,0.7850397999864072,0.32702250001602806,None,None,None,,,,,,,,,1,0,1,0,0,48,48,48,711.3771711000009,,,,,,,,,,,,,,,,,,,,,,,,,,,,,,,,,,,,,,711.3132464999799,711.3132912000001,711.3738453999977,711.3771711000009,711.3771711000009,711.3771711000009,711.3771711000009,714.3796637999767,714.3796637999767,715.329434299987,2,0,0.7850397999864072,0.32702250001602806,None,715.3295083999983,715.3295294999843,None,715.3295533999917,715.3295707999787,None,,,,,,,,,,,8,1,0,0,2025-06-12_13h19.24.394,rtmindeye,2024.2.4,59.93913780355433,2025-06-12 13h19.37.622275 -0400,
all_stimuli/shared1000_notspecial/notspecial_51965.png,49,0,49,49,0,,,,,,0,0,1,1,1,"[9, 21, 31, 45, 56, 68, 69]",1,1,0.7324209999933373,0.2959915999963414,None,None,None,,,,,,,,,1,0,1,0,0,49,49,49,715.362870699988,,,,,,,,,,,,,,,,,,,,,,,,,,,,,,,,,,,,,,715.3297327999899,715.3297782999871,715.3612159999902,715.362870699988,715.362870699988,715.362870699988,715.362870699988,718.3630410999758,718.3630410999758,719.3298986000009,1,1,0.7324209999933373,0.2959915999963414,None,719.3299697999901,719.3299913999799,None,719.3300151999865,719.330032799975,None,,,,,,,,,,,8,1,0,0,2025-06-12_13h19.24.394,rtmindeye,2024.2.4,59.93913780355433,2025-06-12 13h19.37.622275 -0400,
all_stimuli/MST_pairs1/pair_30_nsd_676_1_cocoid_48729.png,50,0,50,50,0,,,,,,0,0,1,1,1,"[9, 21, 31, 45, 56, 68, 69]",1,1,0.9268014999979641,0.4170365000027232,None,None,None,,,,,,,,,1,0,1,0,0,50,50,50,719.4054021999764,,,,,,,,,,,,,,,,,,,,,,,,,,,,,,,,,,,,,,719.3301917999925,719.330235100002,719.4015415999747,719.4054021999764,719.4054021999764,719.4054021999764,719.4054021999764,722.4128334999841,722.4128334999841,723.3462170999846,1,1,0.9268014999979641,0.4170365000027232,None,723.346292000002,723.3463134999911,None,723.3463374999992,723.3463546999847,None,,,,,,,,,,,8,1,0,0,2025-06-12_13h19.24.394,rtmindeye,2024.2.4,59.93913780355433,2025-06-12 13h19.37.622275 -0400,
all_stimuli/shared1000_notspecial/notspecial_52328.png,51,0,51,51,0,,,,,,0,0,1,1,1,"[9, 21, 31, 45, 56, 68, 69]",1,1,0.827424199989764,0.350847599998815,None,None,None,,,,,,,,,1,0,1,0,0,51,51,51,723.3789592999965,,,,,,,,,,,,,,,,,,,,,,,,,,,,,,,,,,,,,,723.3465206999972,723.346565099986,723.3773370999843,723.3789592999965,723.3789592999965,723.3789592999965,723.3789592999965,726.379666599998,726.379666599998,727.3628699999826,1,1,0.827424199989764,0.350847599998815,None,727.3629405999964,727.3629613999801,None,727.3629841999791,727.3630017999967,None,,,,,,,,,,,8,1,0,0,2025-06-12_13h19.24.394,rtmindeye,2024.2.4,59.93913780355433,2025-06-12 13h19.37.622275 -0400,
all_stimuli/MST_pairs1/pair_4_6_44.png,52,0,52,52,0,,,,,,0,0,1,1,1,"[9, 21, 31, 45, 56, 68, 69]",1,1,0.7415088000125252,0.4359716000035405,None,None,None,,,,,,,,,1,0,1,0,0,52,52,52,727.6638327999972,,,,,,,,,,,,,,,,,,,,,,,,,,,,,,,,,,,,,,727.363159200002,727.363203099987,727.6597928999981,727.6638327999972,727.6638327999972,727.6638327999972,727.6638327999972,730.6628102999821,730.6628102999821,731.3796348999895,1,1,0.7415088000125252,0.4359716000035405,None,731.3797108999861,731.3797329999798,None,731.3797573999909,731.3797751999809,None,,,,,,,,,,,8,1,0,0,2025-06-12_13h19.24.394,rtmindeye,2024.2.4,59.93913780355433,2025-06-12 13h19.37.622275 -0400,
all_stimuli/MST_pairs1/pair_48_w_runway1.jpg,53,0,53,53,0,,,,,,0,0,1,1,1,"[9, 21, 31, 45, 56, 68, 69]",1,1,0.8725007999746595,0.4531260000076145,None,None,None,,,,,,,,,1,0,1,0,0,53,53,53,731.4107090999896,,,,,,,,,,,,,,,,,,,,,,,,,,,,,,,,,,,,,,731.3799411999935,731.3799851999793,731.4090129999968,731.4107090999896,731.4107090999896,731.4107090999896,731.4107090999896,734.4129038999963,734.4129038999963,735.3963286999788,1,1,0.8725007999746595,0.4531260000076145,None,735.3964007999748,735.3964212999854,None,735.3964446999889,735.396462499979,None,,,,,,,,,,,8,1,0,0,2025-06-12_13h19.24.394,rtmindeye,2024.2.4,59.93913780355433,2025-06-12 13h19.37.622275 -0400,
all_stimuli/special515/special_40840.jpg,54,0,54,54,0,,,,,,1,0,1,1,1,"[9, 21, 31, 45, 56, 68, 69]",2,1,1.3177038000139873,0.3661337999801617,None,None,None,,,,,,,,,1,0,1,0,0,54,54,54,735.4143932999868,,,,,,,,,,,,,,,,,,,,,,,,,,,,,,,,,,,,,,735.3966240999871,735.396668100002,735.4125532000035,735.4143932999868,735.4143932999868,735.4143932999868,735.4143932999868,738.4297053999908,738.4297053999908,739.413037499995,2,1,1.3177038000139873,0.3661337999801617,None,739.4131082999811,739.4131285999902,None,739.4131510999869,739.4131685000029,None,,,,,,,,,,,8,1,0,0,2025-06-12_13h19.24.394,rtmindeye,2024.2.4,59.93913780355433,2025-06-12 13h19.37.622275 -0400,
all_stimuli/shared1000_notspecial/notspecial_12487.png,55,0,55,55,0,,,,,,0,0,1,1,1,"[9, 21, 31, 45, 56, 68, 69]",1,1,0.9829705000156537,0.42402770000626333,None,None,None,,,,,,,,,1,0,1,0,0,55,55,55,739.4622075999796,,,,,,,,,,,,,,,,,,,,,,,,,,,,,,,,,,,,,,739.4133258999791,739.4133728999877,739.4605941999762,739.4622075999796,739.4622075999796,739.4622075999796,739.4622075999796,742.4629561999755,742.4629561999755,743.4297594999953,1,1,0.9829705000156537,0.42402770000626333,None,743.4298323999974,743.4298531999812,None,743.4298760999809,743.4298935999977,None,,,,,,,,,,,8,1,0,0,2025-06-12_13h19.24.394,rtmindeye,2024.2.4,59.93913780355433,2025-06-12 13h19.37.622275 -0400,
blank.jpg,56,1,56,56,0,,,,,,0,0,1,1,1,"[9, 21, 31, 45, 56, 68, 69]",None,0,,,None,None,None,,,,,,,,,1,0,1,0,0,56,56,56,743.4464952999842,,,,,,,,,,,,,,,,,,,,,,,,,,,,,,,,,,,,,,743.4300583000004,743.4301021999854,743.43848479999,743.4464952999842,743.4464952999842,743.4464952999842,743.4464952999842,746.4461598999915,746.4461598999915,747.4294723999919,None,0,,,None,747.4295313999755,747.4295511999808,None,747.4295739999798,747.4295906999905,None,747.4457941000001,747.4457941000001,,,,,,,,,8,1,0,0,2025-06-12_13h19.24.394,rtmindeye,2024.2.4,59.93913780355433,2025-06-12 13h19.37.622275 -0400,
all_stimuli/MST_pairs1/pair_16_20_0.png,57,0,57,57,0,,,,,,1,0,1,1,1,"[9, 21, 31, 45, 56, 68, 69]",2,1,0.8384038000076544,0.29695809999248013,None,None,None,,,,,,,,,1,0,1,0,0,57,57,57,747.4457941000001,,,,,,,,,,,,,,,,,,,,,,,,,,,,,,,,,,,,,,747.4297452000028,747.4297825999965,747.4434722999868,747.4457941000001,747.4457941000001,747.4457941000001,747.4457941000001,750.4462504999829,750.4462504999829,751.4297470999882,2,1,0.8384038000076544,0.29695809999248013,None,751.4298135999998,751.4298375999788,None,751.429860299977,751.4298775999923,None,751.4551449999854,751.4551449999854,,,,,,,,,8,1,0,0,2025-06-12_13h19.24.394,rtmindeye,2024.2.4,59.93913780355433,2025-06-12 13h19.37.622275 -0400,
all_stimuli/shared1000_notspecial/notspecial_12685.png,58,0,58,58,0,,,,,,0,0,1,1,1,"[9, 21, 31, 45, 56, 68, 69]",1,1,1.138126799982274,0.2990363000135403,None,None,None,,,,,,,,,1,0,1,0,0,58,58,58,751.4551449999854,,,,,,,,,,,,,,,,,,,,,,,,,,,,,,,,,,,,,,751.4300478999794,751.4300876999914,751.4535802000028,751.4551449999854,751.4551449999854,751.4551449999854,751.4551449999854,754.4627030999982,754.4627030999982,755.446214800002,1,1,1.138126799982274,0.2990363000135403,None,755.4462869999988,755.4463085999887,None,755.4463319999923,755.4463497999823,None,,,,,,,,,,,8,1,0,0,2025-06-12_13h19.24.394,rtmindeye,2024.2.4,59.93913780355433,2025-06-12 13h19.37.622275 -0400,
all_stimuli/MST_pairs1/pair_36_nsd_949_2_cocoid_60031.png,59,0,59,59,0,,,,,,0,0,1,1,1,"[9, 21, 31, 45, 56, 68, 69]",1,1,1.0921862999966834,0.42686169999069534,None,None,None,,,,,,,,,1,0,1,0,0,59,59,59,755.4931259999867,,,,,,,,,,,,,,,,,,,,,,,,,,,,,,,,,,,,,,755.4465169999748,755.4465606999875,755.4912464999943,755.4931259999867,755.4931259999867,755.4931259999867,755.4931259999867,758.4961903999792,758.4961903999792,759.4629340999818,1,1,1.0921862999966834,0.42686169999069534,None,759.4630041999917,759.4630250999762,None,759.463047999976,759.4630654999928,None,,,,,,,,,,,8,1,0,0,2025-06-12_13h19.24.394,rtmindeye,2024.2.4,59.93913780355433,2025-06-12 13h19.37.622275 -0400,
all_stimuli/shared1000_notspecial/notspecial_34068.png,60,0,60,60,0,,,,,,0,0,1,1,1,"[9, 21, 31, 45, 56, 68, 69]",1,1,1.1829623999947216,0.3090194000105839,None,None,None,,,,,,,,,1,0,1,0,0,60,60,60,759.5322270999895,,,,,,,,,,,,,,,,,,,,,,,,,,,,,,,,,,,,,,759.4632274000032,759.4632711999875,759.52883689999,759.5322270999895,759.5322270999895,759.5322270999895,759.5322270999895,762.5463412999816,762.5463412999816,763.4794622999907,1,1,1.1829623999947216,0.3090194000105839,None,763.4795351999928,763.479557099985,None,763.4795804999885,763.47959849998,None,,,,,,,,,,,8,1,0,0,2025-06-12_13h19.24.394,rtmindeye,2024.2.4,59.93913780355433,2025-06-12 13h19.37.622275 -0400,
all_stimuli/special515/special_11159.jpg,61,0,61,61,0,,,,,,0,0,1,1,1,"[9, 21, 31, 45, 56, 68, 69]",1,1,0.8082036999985576,0.34282039999379776,None,None,None,,,,,,,,,1,0,1,0,0,61,61,61,763.512118899991,,,,,,,,,,,,,,,,,,,,,,,,,,,,,,,,,,,,,,763.4797627999797,763.4798070999968,763.510354500002,763.512118899991,763.512118899991,763.512118899991,763.512118899991,766.5130831999995,766.5130831999995,767.4961482999788,1,1,0.8082036999985576,0.34282039999379776,None,767.4962205999764,767.49624149999,None,767.4962649999943,767.4962827999843,None,,,,,,,,,,,8,1,0,0,2025-06-12_13h19.24.394,rtmindeye,2024.2.4,59.93913780355433,2025-06-12 13h19.37.622275 -0400,
all_stimuli/MST_pairs1/pair_34_nsd_875_2_cocoid_72398.png,62,0,62,62,0,,,,,,1,0,1,1,1,"[9, 21, 31, 45, 56, 68, 69]",2,1,1.0033012999920174,0.27004969998961315,None,None,None,,,,,,,,,1,0,1,0,0,62,62,62,767.518952399987,,,,,,,,,,,,,,,,,,,,,,,,,,,,,,,,,,,,,,767.4964468999824,767.4964900999912,767.5169403000036,767.518952399987,767.518952399987,767.518952399987,767.518952399987,770.5295366999926,770.5295366999926,771.5129966999812,2,1,1.0033012999920174,0.27004969998961315,None,771.5130730999808,771.5130956999783,None,771.5131184999773,771.5131363999972,None,,,,,,,,,,,8,1,0,0,2025-06-12_13h19.24.394,rtmindeye,2024.2.4,59.93913780355433,2025-06-12 13h19.37.622275 -0400,
all_stimuli/special515/special_67742.jpg,63,0,63,63,0,,,,,,0,0,1,1,1,"[9, 21, 31, 45, 56, 68, 69]",1,1,0.6914869000029285,0.42309639998711646,None,None,None,,,,,,,,,1,0,1,0,0,63,63,63,771.5417280999827,,,,,,,,,,,,,,,,,,,,,,,,,,,,,,,,,,,,,,771.5132974000007,771.5133419999911,771.5396314999962,771.5417280999827,771.5417280999827,771.5417280999827,771.5417280999827,774.5464462999953,774.5464462999953,775.5295747999917,1,1,0.6914869000029285,0.42309639998711646,None,775.529647599993,775.5296686999791,None,775.5296921999834,775.5297097000002,None,,,,,,,,,,,8,1,0,0,2025-06-12_13h19.24.394,rtmindeye,2024.2.4,59.93913780355433,2025-06-12 13h19.37.622275 -0400,
all_stimuli/MST_pairs1/pair_48_w_runway2.jpg,64,0,64,64,0,,,,,,0,0,1,1,1,"[9, 21, 31, 45, 56, 68, 69]",1,1,0.9671339000051375,0.2898455999966245,None,None,None,,,,,,,,,1,0,1,0,0,64,64,64,775.573095699976,,,,,,,,,,,,,,,,,,,,,,,,,,,,,,,,,,,,,,775.5298828999803,775.5299267999944,775.5713966999901,775.573095699976,775.573095699976,775.573095699976,775.573095699976,778.5797668999876,778.5797668999876,779.5460666999861,1,1,0.9671339000051375,0.2898455999966245,None,779.5461440999934,779.5461648999772,None,779.5461883999815,779.5462062000006,None,,,,,,,,,,,8,1,0,0,2025-06-12_13h19.24.394,rtmindeye,2024.2.4,59.93913780355433,2025-06-12 13h19.37.622275 -0400,
all_stimuli/MST_pairs1/pair_40_w_escalator1.jpg,65,0,65,65,0,,,,,,0,0,1,1,1,"[9, 21, 31, 45, 56, 68, 69]",1,1,1.5188148000161164,0.2900946000008844,None,None,None,,,,,,,,,1,0,1,0,0,65,65,65,779.5794124999957,,,,,,,,,,,,,,,,,,,,,,,,,,,,,,,,,,,,,,779.5463718999818,779.5464160999982,779.5776999999944,779.5794124999957,779.5794124999957,779.5794124999957,779.5794124999957,782.5794844999909,782.5794844999909,783.5628111999831,1,1,1.5188148000161164,0.2900946000008844,None,783.5628839999845,783.5629046999966,None,783.5629284000024,783.5629461999924,None,,,,,,,,,,,8,1,0,0,2025-06-12_13h19.24.394,rtmindeye,2024.2.4,59.93913780355433,2025-06-12 13h19.37.622275 -0400,
all_stimuli/special515/special_62228.jpg,66,0,66,66,0,,,,,,1,0,1,1,1,"[9, 21, 31, 45, 56, 68, 69]",1,0,1.3830672999902163,0.44501699999091215,None,None,None,,,,,,,,,1,0,1,0,0,66,66,66,783.5792232999811,,,,,,,,,,,,,,,,,,,,,,,,,,,,,,,,,,,,,,783.563115500001,783.5631594999868,783.5751215999771,783.5792232999811,783.5792232999811,783.5792232999811,783.5792232999811,786.5793009999907,786.5793009999907,787.5626795999997,1,0,1.3830672999902163,0.44501699999091215,None,787.5627442999976,787.5627638000005,None,787.5627871000033,787.5628043999895,None,787.621785700001,787.621785700001,,,,,,,,,8,1,0,0,2025-06-12_13h19.24.394,rtmindeye,2024.2.4,59.93913780355433,2025-06-12 13h19.37.622275 -0400,
