current_image,trial_index,is_blank_trial,thisN,thisTrialN,thisRepN,press_if_repeat_2.keys,press_if_repeat_2.corr,all_keys_pressed_2.keys,is_repeat,is_new_run,run_num,sess_num,is_not_last_trial,all_blanks_list,press_if_repeat.keys,press_if_repeat.corr,press_if_repeat.rt,press_if_repeat.duration,all_keys_pressed.keys,key_resp_5.keys,key_resp_4.keys,all_keys_pressed.rt,all_keys_pressed.duration,key_resp_5.rt,key_resp_5.duration,key_resp_4.rt,key_resp_4.duration,practice.thisRepN,practice.thisTrialN,practice.thisN,practice.thisIndex,loop_runs.thisRepN,loop_runs.thisTrialN,loop_runs.thisN,loop_runs.thisIndex,loop_all_images.thisRepN,loop_all_images.thisTrialN,loop_all_images.thisN,loop_all_images.thisIndex,thisRow.t,notes,set_up.started,set_up.stopped,practice_continue.started,practice_continue.stopped,key_resp_6.keys,practice_trial.started,practice_trial.stopped,practice.press_if_repeat_2.keys,practice.press_if_repeat_2.corr,practice.all_keys_pressed_2.keys,testing_continue.started,testing_continue.stopped,key_resp_7.keys,waiting_fmri.started,key_resp_2.started,text_3.started,waiting_fmri.stopped,key_resp_2.keys,key_resp_2.rt,key_resp_2.duration,set_skips_and_correct_key.started,set_skips_and_correct_key.stopped,trial.started,image.started,press_if_repeat.started,polygon.started,all_keys_pressed.started,image.stopped,press_if_repeat.stopped,trial.stopped,loop_all_images.press_if_repeat.keys,loop_all_images.press_if_repeat.corr,loop_all_images.press_if_repeat.rt,loop_all_images.press_if_repeat.duration,loop_all_images.all_keys_pressed.keys,run_wait2_2.started,run_wait2_2.stopped,loop_all_images.key_resp_5.keys,waiting_fmri_2.started,waiting_fmri_2.stopped,loop_all_images.key_resp_4.keys,loop_all_images.all_keys_pressed.rt,loop_all_images.all_keys_pressed.duration,key_resp_5.started,text_5.started,loop_all_images.key_resp_5.rt,loop_all_images.key_resp_5.duration,key_resp_4.started,text_4.started,loop_all_images.key_resp_4.rt,loop_all_images.key_resp_4.duration,participant,session (1 2 or 3),starting_run,skip_practice,date,expName,psychopyVersion,frameRate,expStart
,,,,,,,,,,,,,,,,,,,,,,,,,,,,,,,,,,,,,,,,,,0.002836833,0.002912833,,,,,,,,,,,,,,,,,,,,,,,,,,,,,,,,,,,,,,,,,,,,,,,,,,2,7,0,1,2025-01-28_13h57.40.060,rtmindeye,2024.2.3,None,2025-01-28 13h57.54.800313 -0500
,,,,,,,,,,,,,,,,,,,,,,,,,,,,,,,,,,,,,,,,,,,,0.007129416,0.00714775,None,,,,,,,,,,,,,,,,,,,,,,,,,,,,,,,,,,,,,,,,,,,,,,,2,7,0,1,2025-01-28_13h57.40.060,rtmindeye,2024.2.3,None,2025-01-28 13h57.54.800313 -0500
practice_images/w_kitchen2.jpg,0,0,0,0,0,None,0,None,,,,,,,,,,,,,,,,,,,,0,0,0,0,,,,,,,,,0.5918224160050158,,,,,,,0.095247125,0.095291083,None,0,None,,,,,,,,,,,,,,,,,,,,,,,,,,,,,,,,,,,,,,,,,,2,7,0,1,2025-01-28_13h57.40.060,rtmindeye,2024.2.3,None,2025-01-28 13h57.54.800313 -0500
practice_images/w_boardwalk2.jpg,1,0,1,1,0,None,0,None,,,,,,,,,,,,,,,,,,,,0,1,1,1,,,,,,,,,0.5918224160050158,,,,,,,0.1694984160058084,0.16954695800086483,None,0,None,,,,,,,,,,,,,,,,,,,,,,,,,,,,,,,,,,,,,,,,,,2,7,0,1,2025-01-28_13h57.40.060,rtmindeye,2024.2.3,None,2025-01-28 13h57.54.800313 -0500
practice_images/w_monument2.jpg,2,0,2,2,0,None,0,None,,,,,,,,,,,,,,,,,,,,0,2,2,2,,,,,,,,,0.5918224160050158,,,,,,,0.1966284580048523,0.19667216599918902,None,0,None,,,,,,,,,,,,,,,,,,,,,,,,,,,,,,,,,,,,,,,,,,2,7,0,1,2025-01-28_13h57.40.060,rtmindeye,2024.2.3,None,2025-01-28 13h57.54.800313 -0500
practice_images/w_auditorium2.jpg,3,0,3,3,0,None,0,None,,,,,,,,,,,,,,,,,,,,0,3,3,3,,,,,,,,,0.5918224160050158,,,,,,,0.25712641599966446,0.257202208,None,0,None,,,,,,,,,,,,,,,,,,,,,,,,,,,,,,,,,,,,,,,,,,2,7,0,1,2025-01-28_13h57.40.060,rtmindeye,2024.2.3,None,2025-01-28 13h57.54.800313 -0500
practice_images/w_kitchen2.jpg,4,0,4,4,0,None,0,None,,,,,,,,,,,,,,,,,,,,0,4,4,4,,,,,,,,,0.5918224160050158,,,,,,,0.2779130830022041,0.27799804100504844,None,0,None,,,,,,,,,,,,,,,,,,,,,,,,,,,,,,,,,,,,,,,,,,2,7,0,1,2025-01-28_13h57.40.060,rtmindeye,2024.2.3,None,2025-01-28 13h57.54.800313 -0500
practice_images/w_auditorium1.jpg,5,0,5,5,0,None,0,None,,,,,,,,,,,,,,,,,,,,0,5,5,5,,,,,,,,,0.5918224160050158,,,,,,,0.36396912499913014,0.3640476660002605,None,0,None,,,,,,,,,,,,,,,,,,,,,,,,,,,,,,,,,,,,,,,,,,2,7,0,1,2025-01-28_13h57.40.060,rtmindeye,2024.2.3,None,2025-01-28 13h57.54.800313 -0500
practice_images/w_bedroom2.jpg,6,0,6,6,0,None,0,None,,,,,,,,,,,,,,,,,,,,0,6,6,6,,,,,,,,,0.5918224160050158,,,,,,,0.42654412500269245,0.42662154100253247,None,0,None,,,,,,,,,,,,,,,,,,,,,,,,,,,,,,,,,,,,,,,,,,2,7,0,1,2025-01-28_13h57.40.060,rtmindeye,2024.2.3,None,2025-01-28 13h57.54.800313 -0500
practice_images/w_kitchen1.jpg,7,0,7,7,0,None,0,None,,,,,,,,,,,,,,,,,,,,0,7,7,7,,,,,,,,,0.5918224160050158,,,,,,,0.48495925000315765,0.4850332080022781,None,0,None,,,,,,,,,,,,,,,,,,,,,,,,,,,,,,,,,,,,,,,,,,2,7,0,1,2025-01-28_13h57.40.060,rtmindeye,2024.2.3,None,2025-01-28 13h57.54.800313 -0500
practice_images/w_bedroom1.jpg,8,0,8,8,0,None,0,None,,,,,,,,,,,,,,,,,,,,0,8,8,8,,,,,,,,,0.5918224160050158,,,,,,,0.5454551250004442,0.5455349580006441,None,0,None,,,,,,,,,,,,,,,,,,,,,,,,,,,,,,,,,,,,,,,,,,2,7,0,1,2025-01-28_13h57.40.060,rtmindeye,2024.2.3,None,2025-01-28 13h57.54.800313 -0500
practice_images/w_monument2.jpg,9,0,9,9,0,None,0,None,,,,,,,,,,,,,,,,,,,,0,9,9,9,,,,,,,,,0.5918224160050158,,,,,,,0.5681372910039499,0.5682796660039457,None,0,None,,,,,,,,,,,,,,,,,,,,,,,,,,,,,,,,,,,,,,,,,,2,7,0,1,2025-01-28_13h57.40.060,rtmindeye,2024.2.3,None,2025-01-28 13h57.54.800313 -0500
,,,,,,,,,,,,,,,,,,,,,,,,,,,,,,,,,,,,,,,,,,,,,,,,,,,,0.5858185410033911,0.5858565000016824,None,,,,,,,,,,,,,,,,,,,,,,,,,,,,,,,,,,,,,,,2,7,0,1,2025-01-28_13h57.40.060,rtmindeye,2024.2.3,None,2025-01-28 13h57.54.800313 -0500
,,,,,,,,,,,,,,,,,,,,,,,,,,,,,,,,,,,,,,,,,,,,,,,,,,,,,,,0.5858949579996988,0.5918224160050158,0.5918224160050158,97.72844808300579,equal,97.00194425,None,,,,,,,,,,,,,,,,,,,,,,,,,,,,,,,,2,7,0,1,2025-01-28_13h57.40.060,rtmindeye,2024.2.3,None,2025-01-28 13h57.54.800313 -0500
all_stimuli/special515/special_13613.jpg,0,0,0,0,0,,,,0,0,0,7,1,"[9, 21, 31, 45, 56, 68, 69]",1,1,0.7652772910005297,0.24301166700024623,None,None,None,,,,,,,,,,,0,0,0,0,0,0,0,0,97.86735133299953,,,,,,,,,,,,,,,,,,,,,,97.79988199999934,97.79993695799931,97.85633791600412,97.86735133299953,97.86735133299953,97.86735133299953,97.86735133299953,100.85835112500354,100.85835112500354,101.8044100410043,1,1,0.7652772910005297,0.24301166700024623,None,101.80476975000056,101.80497483300132,None,101.8050894160042,101.80517637500452,None,,,,,,,,,,,2,7,0,1,2025-01-28_13h57.40.060,rtmindeye,2024.2.3,None,2025-01-28 13h57.54.800313 -0500
all_stimuli/shared1000_notspecial/notspecial_31049.png,1,0,1,1,0,,,,0,0,0,7,1,"[9, 21, 31, 45, 56, 68, 69]",1,1,0.6661076669988688,0.23401516600279137,None,None,None,,,,,,,,,,,0,0,0,0,0,1,1,1,101.89453566600423,,,,,,,,,,,,,,,,,,,,,,101.80596700000024,101.80636770799902,101.89095375000034,101.89453566600423,101.89453566600423,101.89453566600423,101.89453566600423,104.89174258300045,104.89174258300045,105.80891362500552,1,1,0.6661076669988688,0.23401516600279137,None,105.80907695800124,105.80912250000256,None,105.8091799160029,105.8092160830056,None,,,,,,,,,,,2,7,0,1,2025-01-28_13h57.40.060,rtmindeye,2024.2.3,None,2025-01-28 13h57.54.800313 -0500
all_stimuli/special515/special_28096.jpg,2,0,2,2,0,,,,0,0,0,7,1,"[9, 21, 31, 45, 56, 68, 69]",1,1,0.9715838749980321,0.21896362499683164,None,None,None,,,,,,,,,,,0,0,0,0,0,2,2,2,105.88107541600039,,,,,,,,,,,,,,,,,,,,,,105.80958666600054,105.80972729100176,105.87766491599905,105.88107541600039,105.88107541600039,105.88107541600039,105.88107541600039,108.87557329099945,108.87557329099945,109.82108208299906,1,1,0.9715838749980321,0.21896362499683164,None,109.82129912500386,109.8213537910051,None,109.82142366600601,109.82149308299995,None,,,,,,,,,,,2,7,0,1,2025-01-28_13h57.40.060,rtmindeye,2024.2.3,None,2025-01-28 13h57.54.800313 -0500
all_stimuli/shared1000_notspecial/notspecial_68471.png,3,0,3,3,0,,,,0,0,0,7,1,"[9, 21, 31, 45, 56, 68, 69]",1,1,0.8280045419960516,0.24798304100113455,None,None,None,,,,,,,,,,,0,0,0,0,0,3,3,3,109.9236723330032,,,,,,,,,,,,,,,,,,,,,,109.82196441600536,109.82214612499956,109.91983562500536,109.9236723330032,109.9236723330032,109.9236723330032,109.9236723330032,112.92111566600215,112.92111566600215,113.82500975000585,1,1,0.8280045419960516,0.24798304100113455,None,113.82516554100584,113.82521012500365,None,113.82525700000406,113.82529958300438,None,,,,,,,,,,,2,7,0,1,2025-01-28_13h57.40.060,rtmindeye,2024.2.3,None,2025-01-28 13h57.54.800313 -0500
all_stimuli/special515/special_15506.jpg,4,0,4,4,0,,,,0,0,0,7,1,"[9, 21, 31, 45, 56, 68, 69]",1,1,0.8192251660002512,0.2109749999945052,None,None,None,,,,,,,,,,,0,0,0,0,0,4,4,4,113.87742270799936,,,,,,,,,,,,,,,,,,,,,,113.82568824999908,113.82588287500403,113.87299929100118,113.87742270799936,113.87742270799936,113.87742270799936,113.87742270799936,116.87464487500256,116.87464487500256,117.83784729100444,1,1,0.8192251660002512,0.2109749999945052,None,117.83802000000287,117.83806583299884,None,117.8381257910005,117.83816645800107,None,,,,,,,,,,,2,7,0,1,2025-01-28_13h57.40.060,rtmindeye,2024.2.3,None,2025-01-28 13h57.54.800313 -0500
all_stimuli/MST_pairs1/pair_24_nsd_158_1_cocoid_2285.png,5,0,5,5,0,,,,0,0,0,7,1,"[9, 21, 31, 45, 56, 68, 69]",1,1,1.0115466250063037,0.21897795800032327,None,None,None,,,,,,,,,,,0,0,0,0,0,5,5,5,117.90218695800286,,,,,,,,,,,,,,,,,,,,,,117.83859137500258,117.83876504100044,117.89882924999984,117.90218695800286,117.90218695800286,117.90218695800286,117.90218695800286,120.89202550000482,120.89202550000482,121.84198295800161,1,1,1.0115466250063037,0.21897795800032327,None,121.84216162500525,121.84222041600151,None,121.84227433300111,121.84230995800317,None,,,,,,,,,,,2,7,0,1,2025-01-28_13h57.40.060,rtmindeye,2024.2.3,None,2025-01-28 13h57.54.800313 -0500
all_stimuli/MST_pairs1/pair_10_14_89.png,6,0,6,6,0,,,,0,0,0,7,1,"[9, 21, 31, 45, 56, 68, 69]",1,1,1.2192611249993206,0.18605183299951022,None,None,None,,,,,,,,,,,0,0,0,0,0,6,6,6,121.89445450000494,,,,,,,,,,,,,,,,,,,,,,121.84271662500396,121.84291520799889,121.89080658300372,121.89445450000494,121.89445450000494,121.89445450000494,121.89445450000494,124.89129012500052,124.89129012500052,125.85490087500511,1,1,1.2192611249993206,0.18605183299951022,None,125.85520295800234,125.85526637500152,None,125.85533383300208,125.85537837500306,None,,,,,,,,,,,2,7,0,1,2025-01-28_13h57.40.060,rtmindeye,2024.2.3,None,2025-01-28 13h57.54.800313 -0500
all_stimuli/special515/special_62015.jpg,7,0,7,7,0,,,,0,0,0,7,1,"[9, 21, 31, 45, 56, 68, 69]",1,1,1.0367302919985377,0.19400745799794095,None,None,None,,,,,,,,,,,0,0,0,0,0,7,7,7,125.90096295800322,,,,,,,,,,,,,,,,,,,,,,125.8558729580036,125.85619079100434,125.8974144,125.90096295800322,125.90096295800322,125.90096295800322,125.90096295800322,128.89013787500153,128.89013787500153,129.85845604100177,1,1,1.0367302919985377,0.19400745799794095,None,129.85864112499985,129.85869012500189,None,129.8587481659997,129.8587861660053,None,,,,,,,,,,,2,7,0,1,2025-01-28_13h57.40.060,rtmindeye,2024.2.3,None,2025-01-28 13h57.54.800313 -0500
all_stimuli/special515/special_47687.jpg,8,0,8,8,0,,,,0,0,0,7,1,"[9, 21, 31, 45, 56, 68, 69]",1,1,0.9470972499984782,0.21399633299733978,None,None,None,,,,,,,,,,,0,0,0,0,0,8,8,8,129.96857425000053,,,,,,,,,,,,,,,,,,,,,,129.85919370800548,129.85939241600136,129.9634936250004,129.96857425000053,129.96857425000053,129.96857425000053,129.96857425000053,132.95860104100575,132.95860104100575,133.87149191600474,1,1,0.9470972499984782,0.21399633299733978,None,133.8717713330043,133.87183145800373,None,133.87189541599946,133.87194312499923,None,,,,,,,,,,,2,7,0,1,2025-01-28_13h57.40.060,rtmindeye,2024.2.3,None,2025-01-28 13h57.54.800313 -0500
blank.jpg,9,1,9,9,0,,,,0,0,0,7,1,"[9, 21, 31, 45, 56, 68, 69]",None,0,,,None,None,None,,,,,,,,,,,0,0,0,0,0,9,9,9,133.92445154100278,,,,,,,,,,,,,,,,,,,,,,133.87235241600138,133.87252479100425,133.91938566600584,133.92445154100278,133.92445154100278,133.92445154100278,133.92445154100278,136.92099854100525,136.92099854100525,137.8762377910025,None,0,,,None,137.87637729100243,137.87641787499888,None,137.87646087499888,137.8764923330018,None,,,,,,,,,,,2,7,0,1,2025-01-28_13h57.40.060,rtmindeye,2024.2.3,None,2025-01-28 13h57.54.800313 -0500
all_stimuli/special515/special_4249.jpg,10,0,10,10,0,,,,0,0,0,7,1,"[9, 21, 31, 45, 56, 68, 69]",1,1,0.9933658750014729,0.2560231669995119,None,None,None,,,,,,,,,,,0,0,0,0,0,10,10,10,137.9192840830001,,,,,,,,,,,,,,,,,,,,,,137.8768175830046,137.8769560830042,137.91491504100122,137.9192840830001,137.9192840830001,137.9192840830001,137.9192840830001,140.9076151660047,140.9076151660047,141.88808679100475,1,1,0.9933658750014729,0.2560231669995119,None,141.8883352910052,141.8884071249995,None,141.88846975000342,141.8885129160044,None,,,,,,,,,,,2,7,0,1,2025-01-28_13h57.40.060,rtmindeye,2024.2.3,None,2025-01-28 13h57.54.800313 -0500
all_stimuli/special515/special_54361.jpg,11,0,11,11,0,,,,0,0,0,7,1,"[9, 21, 31, 45, 56, 68, 69]",1,1,1.0774943750002421,0.20396083399828058,None,None,None,,,,,,,,,,,0,0,0,0,0,11,11,11,141.95917824999924,,,,,,,,,,,,,,,,,,,,,,141.88898370800598,141.88918629100226,141.95469545800006,141.95917824999924,141.95917824999924,141.95917824999924,141.95917824999924,144.95436116600467,144.95436116600467,145.89133141600178,1,1,1.0774943750002421,0.20396083399828058,None,145.89152695800294,145.8915739160002,None,145.89162233300158,145.89165850000427,None,,,,,,,,,,,2,7,0,1,2025-01-28_13h57.40.060,rtmindeye,2024.2.3,None,2025-01-28 13h57.54.800313 -0500
all_stimuli/special515/special_6489.jpg,12,0,12,12,0,,,,0,0,0,7,1,"[9, 21, 31, 45, 56, 68, 69]",1,1,0.9277550420010812,0.2089627500026836,None,None,None,,,,,,,,,,,0,0,0,0,0,12,12,12,145.9369880000013,,,,,,,,,,,,,,,,,,,,,,145.8920420409995,145.89221295800235,145.9329507500006,145.9369880000013,145.9369880000013,145.9369880000013,145.9369880000013,148.9251080000031,148.9251080000031,149.90459708300477,1,1,0.9277550420010812,0.2089627500026836,None,149.90484149999975,149.90494091599976,None,149.90501466600108,149.90506912500132,None,,,,,,,,,,,2,7,0,1,2025-01-28_13h57.40.060,rtmindeye,2024.2.3,None,2025-01-28 13h57.54.800313 -0500
all_stimuli/special515/special_38641.jpg,13,0,13,13,0,,,,0,0,0,7,1,"[9, 21, 31, 45, 56, 68, 69]",1,1,1.503406374999031,0.19805991600151174,None,None,None,,,,,,,,,,,0,0,0,0,0,13,13,13,149.95120837500144,,,,,,,,,,,,,,,,,,,,,,149.90560166600335,149.90581933300564,149.94642820800073,149.95120837500144,149.95120837500144,149.95120837500144,149.95120837500144,152.9422200830013,152.9422200830013,153.90849937500025,1,1,1.503406374999031,0.19805991600151174,None,153.90861525000219,153.90865354100242,None,153.90869450000173,153.90872429100273,None,,,,,,,,,,,2,7,0,1,2025-01-28_13h57.40.060,rtmindeye,2024.2.3,None,2025-01-28 13h57.54.800313 -0500
all_stimuli/shared1000_notspecial/notspecial_67168.png,14,0,14,14,0,,,,0,0,0,7,1,"[9, 21, 31, 45, 56, 68, 69]",1,1,1.4251354169973638,0.18499962500209222,None,None,None,,,,,,,,,,,0,0,0,0,0,14,14,14,154.00563975000114,,,,,,,,,,,,,,,,,,,,,,153.90902358300082,153.9091225000011,154.00188970800082,154.00563975000114,154.00563975000114,154.00563975000114,154.00563975000114,157.00432070800161,157.00432070800161,157.92111591600406,1,1,1.4251354169973638,0.18499962500209222,None,157.92137037499924,157.92145225000422,None,157.92153962500015,157.92166787500173,None,,,,,,,,,,,2,7,0,1,2025-01-28_13h57.40.060,rtmindeye,2024.2.3,None,2025-01-28 13h57.54.800313 -0500
all_stimuli/shared1000_notspecial/notspecial_59079.png,15,0,15,15,0,,,,0,0,0,7,1,"[9, 21, 31, 45, 56, 68, 69]",1,1,0.8877768749953248,0.20196712500182912,None,None,None,,,,,,,,,,,0,0,0,0,0,15,15,15,157.9969180410044,,,,,,,,,,,,,,,,,,,,,,157.9222714580028,157.92250583300483,157.9918515410027,157.9969180410044,157.9969180410044,157.9969180410044,157.9969180410044,160.99095479099924,160.99095479099924,161.92527120800514,1,1,0.8877768749953248,0.20196712500182912,None,161.9254487500002,161.9254981250051,None,161.92554145800386,161.92557300000044,None,,,,,,,,,,,2,7,0,1,2025-01-28_13h57.40.060,rtmindeye,2024.2.3,None,2025-01-28 13h57.54.800313 -0500
all_stimuli/MST_pairs1/pair_2_4_89.png,16,0,16,16,0,,,,0,0,0,7,1,"[9, 21, 31, 45, 56, 68, 69]",1,1,0.7598295420029899,0.21700808299647179,None,None,None,,,,,,,,,,,0,0,0,0,0,16,16,16,162.0019497500034,,,,,,,,,,,,,,,,,,,,,,161.92594350000581,161.92609029100277,161.99825175000296,162.0019497500034,162.0019497500034,162.0019497500034,162.0019497500034,164.99148683300155,164.99148683300155,165.93792045800365,1,1,0.7598295420029899,0.21700808299647179,None,165.9383065410002,165.93844333300513,None,165.93852979100484,165.93858945800457,None,,,,,,,,,,,2,7,0,1,2025-01-28_13h57.40.060,rtmindeye,2024.2.3,None,2025-01-28 13h57.54.800313 -0500
all_stimuli/shared1000_notspecial/notspecial_26127.png,17,0,17,17,0,,,,0,0,0,7,1,"[9, 21, 31, 45, 56, 68, 69]",1,1,0.8128454580000835,0.21201366699824575,None,None,None,,,,,,,,,,,0,0,0,0,0,17,17,17,166.02082370800053,,,,,,,,,,,,,,,,,,,,,,165.93916783299937,165.93943191600556,166.01609929100232,166.02082370800053,166.02082370800053,166.02082370800053,166.02082370800053,169.00805208300153,169.00805208300153,169.94147545799933,1,1,0.8128454580000835,0.21201366699824575,None,169.94166729100107,169.94171595800435,None,169.94176870800584,169.94180512500316,None,,,,,,,,,,,2,7,0,1,2025-01-28_13h57.40.060,rtmindeye,2024.2.3,None,2025-01-28 13h57.54.800313 -0500
all_stimuli/shared1000_notspecial/notspecial_20223.png,18,0,18,18,0,,,,0,0,0,7,1,"[9, 21, 31, 45, 56, 68, 69]",1,1,1.195842833003553,0.22402074999990873,None,None,None,,,,,,,,,,,0,0,0,0,0,18,18,18,170.02489675000106,,,,,,,,,,,,,,,,,,,,,,169.94226091600285,169.9424641250007,170.02115937499912,170.02489675000106,170.02489675000106,170.02489675000106,170.02489675000106,173.0210398,173.0210398,173.9545209,1,1,1.195842833003553,0.22402074999990873,None,173.95478579100018,173.95487212500302,None,173.9549330410009,173.9549717080008,None,,,,,,,,,,,2,7,0,1,2025-01-28_13h57.40.060,rtmindeye,2024.2.3,None,2025-01-28 13h57.54.800313 -0500
all_stimuli/special515/special_62015.jpg,19,0,19,19,0,,,,1,0,0,7,1,"[9, 21, 31, 45, 56, 68, 69]",2,1,1.6854678329982562,0.30606112500390736,None,None,None,,,,,,,,,,,0,0,0,0,0,19,19,19,174.00624049999897,,,,,,,,,,,,,,,,,,,,,,173.95534920800128,173.95550908300356,174.00231970800087,174.00624049999897,174.00624049999897,174.00624049999897,174.00624049999897,177.00440150000213,177.00440150000213,177.95865508299903,2,1,1.6854678329982562,0.30606112500390736,None,177.95885466600157,177.95889975000318,None,177.95895883300545,177.95899433299928,None,,,,,,,,,,,2,7,0,1,2025-01-28_13h57.40.060,rtmindeye,2024.2.3,None,2025-01-28 13h57.54.800313 -0500
all_stimuli/special515/special_10244.jpg,20,0,20,20,0,,,,0,0,0,7,1,"[9, 21, 31, 45, 56, 68, 69]",1,1,1.6026189170006546,0.20793195800069952,None,None,None,,,,,,,,,,,0,0,0,0,0,20,20,20,178.0151448750039,,,,,,,,,,,,,,,,,,,,,,177.9594076659996,177.95963545799896,178.01023616600287,178.0151448750039,178.0151448750039,178.0151448750039,178.0151448750039,181.00774204100162,181.00774204100162,181.97159962500155,1,1,1.6026189170006546,0.20793195800069952,None,181.97193312500167,181.9720187,None,181.97210208300385,181.97216850000405,None,,,,,,,,,,,2,7,0,1,2025-01-28_13h57.40.060,rtmindeye,2024.2.3,None,2025-01-28 13h57.54.800313 -0500
blank.jpg,21,1,21,21,0,,,,0,0,0,7,1,"[9, 21, 31, 45, 56, 68, 69]",None,0,,,None,None,None,,,,,,,,,,,0,0,0,0,0,21,21,21,182.01984816600452,,,,,,,,,,,,,,,,,,,,,,181.972839,181.97317675000522,182.01486149999982,182.01984816600452,182.01984816600452,182.01984816600452,182.01984816600452,185.00857854100468,185.00857854100468,185.97471304100327,None,0,,,None,185.97490562500025,185.9749567500039,None,185.9750133750058,185.97505516600359,None,,,,,,,,,,,2,7,0,1,2025-01-28_13h57.40.060,rtmindeye,2024.2.3,None,2025-01-28 13h57.54.800313 -0500
all_stimuli/special515/special_28524.jpg,22,0,22,22,0,,,,0,0,0,7,1,"[9, 21, 31, 45, 56, 68, 69]",1,1,0.9589798330052872,0.20492458399530733,None,None,None,,,,,,,,,,,0,0,0,0,0,22,22,22,186.02185141600057,,,,,,,,,,,,,,,,,,,,,,185.97543679099908,185.97560941600386,186.01849604100425,186.02185141600057,186.02185141600057,186.02185141600057,186.02185141600057,189.0078340830005,189.0078340830005,189.98774841600243,1,1,0.9589798330052872,0.20492458399530733,None,189.98795225000504,189.9880074160028,None,189.98806691600475,189.98812100000214,None,,,,,,,,,,,2,7,0,1,2025-01-28_13h57.40.060,rtmindeye,2024.2.3,None,2025-01-28 13h57.54.800313 -0500
all_stimuli/special515/special_30430.jpg,23,0,23,23,0,,,,0,0,0,7,1,"[9, 21, 31, 45, 56, 68, 69]",1,1,0.9634385840035975,0.1980418750026729,None,None,None,,,,,,,,,,,0,0,0,0,0,23,23,23,190.03833679100353,,,,,,,,,,,,,,,,,,,,,,189.98862295800063,189.98880700000154,190.03415566600597,190.03833679100353,190.03833679100353,190.03833679100353,190.03833679100353,193.0247722080021,193.0247722080021,193.9912900000054,1,1,0.9634385840035975,0.1980418750026729,None,193.99149041600322,193.99153762499918,None,193.99159287500515,193.99162787500245,None,,,,,,,,,,,2,7,0,1,2025-01-28_13h57.40.060,rtmindeye,2024.2.3,None,2025-01-28 13h57.54.800313 -0500
all_stimuli/MST_pairs1/pair_10_14_33.png,24,0,24,24,0,,,,0,0,0,7,1,"[9, 21, 31, 45, 56, 68, 69]",1,1,2.091973041999154,0.21605541699682362,None,None,None,,,,,,,,,,,0,0,0,0,0,24,24,24,194.07182433300477,,,,,,,,,,,,,,,,,,,,,,193.99204575000476,193.99224445800064,194.06810858300014,194.07182433300477,194.07182433300477,194.07182433300477,194.07182433300477,197.07098520800355,197.07098520800355,198.0045121660005,1,1,2.091973041999154,0.21605541699682362,None,198.00474512499932,198.00480008299928,None,198.0048652500045,198.0049141250056,None,,,,,,,,,,,2,7,0,1,2025-01-28_13h57.40.060,rtmindeye,2024.2.3,None,2025-01-28 13h57.54.800313 -0500
all_stimuli/shared1000_notspecial/notspecial_10907.png,25,0,25,25,0,,,,0,0,0,7,1,"[9, 21, 31, 45, 56, 68, 69]",1,1,1.4802752920004423,0.20799020800041035,None,None,None,,,,,,,,,,,0,0,0,0,0,25,25,25,198.08455225000216,,,,,,,,,,,,,,,,,,,,,,198.0053470000057,198.00552275000518,198.08122679100052,198.08455225000216,198.08455225000216,198.08455225000216,198.08455225000216,201.07448158300394,201.07448158300394,202.00810716600245,1,1,1.4802752920004423,0.20799020800041035,None,202.00830787500308,202.00835645800544,None,202.0085194580024,202.0085912909999,None,,,,,,,,,,,2,7,0,1,2025-01-28_13h57.40.060,rtmindeye,2024.2.3,None,2025-01-28 13h57.54.800313 -0500
all_stimuli/special515/special_22587.jpg,26,0,26,26,0,,,,0,0,0,7,1,"[9, 21, 31, 45, 56, 68, 69]",1,1,1.5128821249963949,0.19398166699829744,None,None,None,,,,,,,,,,,0,0,0,0,0,26,26,26,202.0529275000008,,,,,,,,,,,,,,,,,,,,,,202.00896741600445,202.0091203330012,202.04830483299884,202.0529275000008,202.0529275000008,202.0529275000008,202.0529275000008,205.04218533300445,205.04218533300445,206.0212189580052,1,1,1.5128821249963949,0.19398166699829744,None,206.0214610000039,206.02158983299887,None,206.02170416599984,206.0217994160048,None,,,,,,,,,,,2,7,0,1,2025-01-28_13h57.40.060,rtmindeye,2024.2.3,None,2025-01-28 13h57.54.800313 -0500
all_stimuli/special515/special_3687.jpg,27,0,27,27,0,,,,0,0,0,7,1,"[9, 21, 31, 45, 56, 68, 69]",1,1,1.1017499580048025,0.1859861249977257,None,None,None,,,,,,,,,,,0,0,0,0,0,27,27,27,206.07099825000478,,,,,,,,,,,,,,,,,,,,,,206.02242591600225,206.02264275000198,206.06608708300337,206.07099825000478,206.07099825000478,206.07099825000478,206.07099825000478,209.0580062500012,209.0580062500012,210.03879574999883,1,1,1.1017499580048025,0.1859861249977257,None,210.0389804160004,210.03902212500543,None,210.03906862500298,210.03910112500307,None,,,,,,,,,,,2,7,0,1,2025-01-28_13h57.40.060,rtmindeye,2024.2.3,None,2025-01-28 13h57.54.800313 -0500
all_stimuli/shared1000_notspecial/notspecial_58164.png,28,0,28,28,0,,,,0,0,0,7,1,"[9, 21, 31, 45, 56, 68, 69]",1,1,1.324275792001572,0.1659243329995661,None,None,None,,,,,,,,,,,0,0,0,0,0,28,28,28,210.12856687500607,,,,,,,,,,,,,,,,,,,,,,210.03956395800196,210.03985575000115,210.1181623750017,210.12856687500607,210.12856687500607,210.12856687500607,210.12856687500607,213.11999029100116,213.11999029100116,214.0421097080034,1,1,1.324275792001572,0.1659243329995661,None,214.0422837080041,214.04232787500223,None,214.04237495800044,214.04240700000082,None,,,,,,,,,,,2,7,0,1,2025-01-28_13h57.40.060,rtmindeye,2024.2.3,None,2025-01-28 13h57.54.800313 -0500
all_stimuli/special515/special_38494.jpg,29,0,29,29,0,,,,0,0,0,7,1,"[9, 21, 31, 45, 56, 68, 69]",1,1,1.017961582998396,0.22702054199908162,None,None,None,,,,,,,,,,,0,0,0,0,0,29,29,29,214.08589416600444,,,,,,,,,,,,,,,,,,,,,,214.04279099999985,214.0429582910001,214.0817249160027,214.08589416600444,214.08589416600444,214.08589416600444,214.08589416600444,217.07523420800135,217.07523420800135,218.0544443,1,1,1.017961582998396,0.22702054199908162,None,218.05464504100382,218.0547004580003,None,218.05475675000343,218.05480745800014,None,,,,,,,,,,,2,7,0,1,2025-01-28_13h57.40.060,rtmindeye,2024.2.3,None,2025-01-28 13h57.54.800313 -0500
all_stimuli/MST_pairs1/pair_12_16_22.png,30,0,30,30,0,,,,0,0,0,7,1,"[9, 21, 31, 45, 56, 68, 69]",1,1,1.697908833,0.22600712499843212,None,None,None,,,,,,,,,,,0,0,0,0,0,30,30,30,218.09689450000587,,,,,,,,,,,,,,,,,,,,,,218.0552734580051,218.05543983300595,218.09341666600085,218.09689450000587,218.09689450000587,218.09689450000587,218.09689450000587,221.09119654100505,221.09119654100505,222.05850579099933,1,1,1.697908833,0.22600712499843212,None,222.05864645800466,222.05869920799887,None,222.05874737500562,222.05877920800413,None,,,,,,,,,,,2,7,0,1,2025-01-28_13h57.40.060,rtmindeye,2024.2.3,None,2025-01-28 13h57.54.800313 -0500
blank.jpg,31,1,31,31,0,,,,0,0,0,7,1,"[9, 21, 31, 45, 56, 68, 69]",None,0,,,None,None,None,,,,,,,,,,,0,0,0,0,0,31,31,31,222.09369804100425,,,,,,,,,,,,,,,,,,,,,,222.0591121250036,222.05925766600558,222.0891637080058,222.09369804100425,222.09369804100425,222.09369804100425,222.09369804100425,225.0911832080019,225.0911832080019,226.07128070800536,None,0,,,None,226.0714724999998,226.07155641600548,None,226.07162804100517,226.07169504100602,None,,,,,,,,,,,2,7,0,1,2025-01-28_13h57.40.060,rtmindeye,2024.2.3,None,2025-01-28 13h57.54.800313 -0500
all_stimuli/special515/special_66489.jpg,32,0,32,32,0,,,,0,0,0,7,1,"[9, 21, 31, 45, 56, 68, 69]",1,1,1.164293624999118,0.1900642499967944,None,None,None,,,,,,,,,,,0,0,0,0,0,32,32,32,226.14052320799965,,,,,,,,,,,,,,,,,,,,,,226.07229216600535,226.07250558300439,226.13712099999975,226.14052320799965,226.14052320799965,226.14052320799965,226.14052320799965,229.13793712500046,229.13793712500046,230.07527591600228,1,1,1.164293624999118,0.1900642499967944,None,230.0754545000018,230.07550983300462,None,230.07556566600397,230.07561129100213,None,,,,,,,,,,,2,7,0,1,2025-01-28_13h57.40.060,rtmindeye,2024.2.3,None,2025-01-28 13h57.54.800313 -0500
all_stimuli/MST_pairs1/pair_28_nsd_547_1_cocoid_60932.png,33,0,33,33,0,,,,0,0,0,7,1,"[9, 21, 31, 45, 56, 68, 69]",1,1,0.9751175839992356,0.19009791599819437,None,None,None,,,,,,,,,,,0,0,0,0,0,33,33,33,230.14773579100438,,,,,,,,,,,,,,,,,,,,,,230.07604783300485,230.07625291600561,230.14436800000112,230.14773579100438,230.14773579100438,230.14773579100438,230.14773579100438,233.14119587500318,233.14119587500318,234.0878105830052,1,1,0.9751175839992356,0.19009791599819437,None,234.08802337499947,234.08809775000555,None,234.0882486660048,234.08832337499916,None,,,,,,,,,,,2,7,0,1,2025-01-28_13h57.40.060,rtmindeye,2024.2.3,None,2025-01-28 13h57.54.800313 -0500
all_stimuli/shared1000_notspecial/notspecial_46002.png,34,0,34,34,0,,,,0,0,0,7,1,"[9, 21, 31, 45, 56, 68, 69]",1,1,1.6456019999968703,0.1860263750058948,None,None,None,,,,,,,,,,,0,0,0,0,0,34,34,34,234.1992396659989,,,,,,,,,,,,,,,,,,,,,,234.08891000000585,234.08912050000072,234.18883262500458,234.1992396659989,234.1992396659989,234.1992396659989,234.1992396659989,237.19153808300325,237.19153808300325,238.0920268,1,1,1.6456019999968703,0.1860263750058948,None,238.09220829100377,238.09225325000443,None,238.09230316600588,238.09233841600508,None,,,,,,,,,,,2,7,0,1,2025-01-28_13h57.40.060,rtmindeye,2024.2.3,None,2025-01-28 13h57.54.800313 -0500
all_stimuli/special515/special_30632.jpg,35,0,35,35,0,,,,0,0,0,7,1,"[9, 21, 31, 45, 56, 68, 69]",1,1,1.3834710830051336,0.23504329199931817,None,None,None,,,,,,,,,,,0,0,0,0,0,35,35,35,238.14433879100397,,,,,,,,,,,,,,,,,,,,,,238.09272958300426,238.09291633300018,238.13953070800198,238.14433879100397,238.14433879100397,238.14433879100397,238.14433879100397,241.14294954100478,241.14294954100478,242.1043927080027,1,1,1.3834710830051336,0.23504329199931817,None,242.104591,242.10466616600024,None,242.1047262,242.1047668329993,None,,,,,,,,,,,2,7,0,1,2025-01-28_13h57.40.060,rtmindeye,2024.2.3,None,2025-01-28 13h57.54.800313 -0500
all_stimuli/special515/special_31936.jpg,36,0,36,36,0,,,,0,0,0,7,1,"[9, 21, 31, 45, 56, 68, 69]",1,1,1.696813957998529,0.18105554200155893,None,None,None,,,,,,,,,,,0,0,0,0,0,36,36,36,242.1520278,,,,,,,,,,,,,,,,,,,,,,242.10523208300583,242.1054202910018,242.14800283300428,242.1520278,242.1520278,242.1520278,242.1520278,245.1417959160026,245.1417959160026,246.1140883,1,1,1.696813957998529,0.18105554200155893,None,246.11418183299975,246.1142128749998,None,246.11424691600405,246.11427116599953,None,,,,,,,,,,,2,7,0,1,2025-01-28_13h57.40.060,rtmindeye,2024.2.3,None,2025-01-28 13h57.54.800313 -0500
all_stimuli/MST_pairs1/pair_8_12_56.png,37,0,37,37,0,,,,0,0,0,7,1,"[9, 21, 31, 45, 56, 68, 69]",1,1,1.427790334004385,0.21603816599963466,None,None,None,,,,,,,,,,,0,0,0,0,0,37,37,37,246.15813304100448,,,,,,,,,,,,,,,,,,,,,,246.1145240410042,246.11531654099963,246.15513470800215,246.15813304100448,246.15813304100448,246.15813304100448,246.15813304100448,249.15560212499986,249.15560212499986,250.1217466,1,1,1.427790334004385,0.21603816599963466,None,250.12207829100225,250.12215066600038,None,250.12222320800356,250.12228804100596,None,,,,,,,,,,,2,7,0,1,2025-01-28_13h57.40.060,rtmindeye,2024.2.3,None,2025-01-28 13h57.54.800313 -0500
all_stimuli/special515/special_19074.jpg,38,0,38,38,0,,,,0,0,0,7,1,"[9, 21, 31, 45, 56, 68, 69]",1,1,1.623630415997468,0.22200683399569243,None,None,None,,,,,,,,,,,0,0,0,0,0,38,38,38,250.16717729100492,,,,,,,,,,,,,,,,,,,,,,250.1228272080043,250.12314412500564,250.16206441599934,250.16717729100492,250.16717729100492,250.16717729100492,250.16717729100492,253.15899962500407,253.15899962500407,254.12563175000105,1,1,1.623630415997468,0.22200683399569243,None,254.12581162500283,254.12585791600577,None,254.1259137,254.12595504100318,None,,,,,,,,,,,2,7,0,1,2025-01-28_13h57.40.060,rtmindeye,2024.2.3,None,2025-01-28 13h57.54.800313 -0500
all_stimuli/shared1000_notspecial/notspecial_42648.png,39,0,39,39,0,,,,0,0,0,7,1,"[9, 21, 31, 45, 56, 68, 69]",1,1,2.1298067919997266,0.20199183299700962,None,None,None,,,,,,,,,,,0,0,0,0,0,39,39,39,254.2170464160008,,,,,,,,,,,,,,,,,,,,,,254.12636012500298,254.12658487500448,254.2124052500003,254.2170464160008,254.2170464160008,254.2170464160008,254.2170464160008,257.20839012500073,257.20839012500073,258.13764279099996,1,1,2.1298067919997266,0.20199183299700962,None,258.13773716600554,258.13776745799987,None,258.13780062500155,258.1378246250024,None,,,,,,,,,,,2,7,0,1,2025-01-28_13h57.40.060,rtmindeye,2024.2.3,None,2025-01-28 13h57.54.800313 -0500
all_stimuli/MST_pairs1/pair_12_16_22.png,40,0,40,40,0,,,,1,0,0,7,1,"[9, 21, 31, 45, 56, 68, 69]",2,1,1.3228615830012131,0.2589441669988446,None,None,None,,,,,,,,,,,0,0,0,0,0,40,40,40,258.2060534160046,,,,,,,,,,,,,,,,,,,,,,258.13807695799915,258.13815187500586,258.20253149999917,258.2060534160046,258.2060534160046,258.2060534160046,258.2060534160046,261.2044765410028,261.2044765410028,262.1415589160024,2,1,1.3228615830012131,0.2589441669988446,None,262.1416908750034,262.14173187500273,None,262.14177333300177,262.14180283300084,None,,,,,,,,,,,2,7,0,1,2025-01-28_13h57.40.060,rtmindeye,2024.2.3,None,2025-01-28 13h57.54.800313 -0500
all_stimuli/shared1000_notspecial/notspecial_3951.png,41,0,41,41,0,,,,0,0,0,7,1,"[9, 21, 31, 45, 56, 68, 69]",1,1,1.0222250830047415,0.2200379999994766,None,None,None,,,,,,,,,,,0,0,0,0,0,41,41,41,262.23856933299976,,,,,,,,,,,,,,,,,,,,,,262.1421382080007,262.1422487910022,262.2332652080004,262.23856933299976,262.23856933299976,262.23856933299976,262.23856933299976,265.22457150000264,265.22457150000264,266.14300266600185,1,1,1.0222250830047415,0.2200379999994766,None,266.14311208300205,266.14314912500413,None,266.1431900410025,266.1432234,None,,,,,,,,,,,2,7,0,1,2025-01-28_13h57.40.060,rtmindeye,2024.2.3,None,2025-01-28 13h57.54.800313 -0500
all_stimuli/MST_pairs1/pair_12_16_78.png,42,0,42,42,0,,,,0,0,0,7,1,"[9, 21, 31, 45, 56, 68, 69]",None,0,,,['2'],None,None,[3.109082583003328],[0.22998499999812339],,,,,,,,,0,0,0,0,0,42,42,42,266.19789308300096,,,,,,,,,,,,,,,,,,,,,,266.1435493750032,266.14366008300567,266.193514,266.19789308300096,266.19789308300096,266.19789308300096,266.19789308300096,269.1914543330058,269.1914543330058,270.15436291600054,None,0,,,['2'],270.15455129100155,270.1545882909995,None,270.15462883299915,270.15466474999994,None,[3.109082583003328],[0.22998499999812339],,,,,,,,,2,7,0,1,2025-01-28_13h57.40.060,rtmindeye,2024.2.3,None,2025-01-28 13h57.54.800313 -0500
all_stimuli/special515/special_11952.jpg,43,0,43,43,0,,,,0,0,0,7,1,"[9, 21, 31, 45, 56, 68, 69]",1,1,1.0669743749967893,0.19607558300049277,None,None,None,,,,,,,,,,,0,0,0,0,0,43,43,43,270.2049071250003,,,,,,,,,,,,,,,,,,,,,,270.1549585,270.1550488749999,270.20120200000383,270.2049071250003,270.2049071250003,270.2049071250003,270.2049071250003,273.1912332080028,273.1912332080028,274.1591482500007,1,1,1.0669743749967893,0.19607558300049277,None,274.15930775000015,274.15935279100086,None,274.1594011660054,274.15943787500146,None,,,,,,,,,,,2,7,0,1,2025-01-28_13h57.40.060,rtmindeye,2024.2.3,None,2025-01-28 13h57.54.800313 -0500
all_stimuli/MST_pairs1/pair_14_18_22.png,44,0,44,44,0,,,,0,0,0,7,1,"[9, 21, 31, 45, 56, 68, 69]",1,1,1.4660839999996824,0.19503070799692068,None,None,None,,,,,,,,,,,0,0,0,0,0,44,44,44,274.20686191600544,,,,,,,,,,,,,,,,,,,,,,274.1597925829992,274.15998058300465,274.20327658300084,274.20686191600544,274.20686191600544,274.20686191600544,274.20686191600544,277.20440366600087,277.20440366600087,278.17159133300447,1,1,1.4660839999996824,0.19503070799692068,None,278.17192420799984,278.17202704100055,None,278.17210620800324,278.17216287500196,None,,,,,,,,,,,2,7,0,1,2025-01-28_13h57.40.060,rtmindeye,2024.2.3,None,2025-01-28 13h57.54.800313 -0500
blank.jpg,45,1,45,45,0,,,,0,0,0,7,1,"[9, 21, 31, 45, 56, 68, 69]",None,0,,,None,None,None,,,,,,,,,,,0,0,0,0,0,45,45,45,278.21236537500226,,,,,,,,,,,,,,,,,,,,,,278.17270558300515,278.17294191600377,278.2075095410037,278.21236537500226,278.21236537500226,278.21236537500226,278.21236537500226,281.2218048750001,281.2218048750001,282.1730483749998,None,0,,,None,282.1731494160049,282.17318620800506,None,282.17322754100314,282.17325800000253,None,,,,,,,,,,,2,7,0,1,2025-01-28_13h57.40.060,rtmindeye,2024.2.3,None,2025-01-28 13h57.54.800313 -0500
all_stimuli/MST_pairs1/pair_16_20_56.png,46,0,46,46,0,,,,0,0,0,7,1,"[9, 21, 31, 45, 56, 68, 69]",1,1,1.3864891249977518,0.19102358400414232,None,None,None,,,,,,,,,,,0,0,0,0,0,46,46,46,282.2164579160017,,,,,,,,,,,,,,,,,,,,,,282.1735725410035,282.17367083299905,282.21319733300334,282.2164579160017,282.2164579160017,282.2164579160017,282.2164579160017,285.2068240410008,285.2068240410008,286.17523800000345,1,1,1.3864891249977518,0.19102358400414232,None,286.17540841600567,286.17545204100315,None,286.1755044160018,286.1755420000045,None,,,,,,,,,,,2,7,0,1,2025-01-28_13h57.40.060,rtmindeye,2024.2.3,None,2025-01-28 13h57.54.800313 -0500
all_stimuli/special515/special_8933.jpg,47,0,47,47,0,,,,0,0,0,7,1,"[9, 21, 31, 45, 56, 68, 69]",1,1,1.0104368749962305,0.1869320840050932,None,None,None,,,,,,,,,,,0,0,0,0,0,47,47,47,286.2225805830021,,,,,,,,,,,,,,,,,,,,,,286.17594174999977,286.1761106660051,286.2189264580011,286.2225805830021,286.2225805830021,286.2225805830021,286.2225805830021,289.2211482909988,289.2211482909988,290.1877602080058,1,1,1.0104368749962305,0.1869320840050932,None,290.1879229,290.18798416600475,None,290.18803645799926,290.1880725830051,None,,,,,,,,,,,2,7,0,1,2025-01-28_13h57.40.060,rtmindeye,2024.2.3,None,2025-01-28 13h57.54.800313 -0500
all_stimuli/MST_pairs1/pair_16_20_56.png,48,0,48,48,0,,,,1,0,0,7,1,"[9, 21, 31, 45, 56, 68, 69]",2,1,0.5301386669962085,0.2620204580016434,None,None,None,,,,,,,,,,,0,0,0,0,0,48,48,48,290.26479554099933,,,,,,,,,,,,,,,,,,,,,,290.18848812500073,290.18866487500054,290.26147708300414,290.26479554099933,290.26479554099933,290.26479554099933,290.26479554099933,293.25929216600343,293.25929216600343,294.1899409580001,2,1,0.5301386669962085,0.2620204580016434,None,294.1900460830002,294.1900829580045,None,294.1901238330029,294.19015333300194,None,,,,,,,,,,,2,7,0,1,2025-01-28_13h57.40.060,rtmindeye,2024.2.3,None,2025-01-28 13h57.54.800313 -0500
all_stimuli/special515/special_5034.jpg,49,0,49,49,0,,,,0,0,0,7,1,"[9, 21, 31, 45, 56, 68, 69]",1,1,0.8291918750037439,0.21102320800127927,None,None,None,,,,,,,,,,,0,0,0,0,0,49,49,49,294.24379520799994,,,,,,,,,,,,,,,,,,,,,,294.1904751,294.19056483299937,294.2407636249991,294.24379520799994,294.24379520799994,294.24379520799994,294.24379520799994,297.23767970799963,297.23767970799963,298.19198908300314,1,1,0.8291918750037439,0.21102320800127927,None,298.19217129100434,298.1922323750041,None,298.19228295799985,298.19231887500064,None,,,,,,,,,,,2,7,0,1,2025-01-28_13h57.40.060,rtmindeye,2024.2.3,None,2025-01-28 13h57.54.800313 -0500
all_stimuli/MST_pairs1/pair_16_20_0.png,50,0,50,50,0,,,,0,0,0,7,1,"[9, 21, 31, 45, 56, 68, 69]",2,0,0.37242691699793795,0.2530315830008476,None,None,None,,,,,,,,,,,0,0,0,0,0,50,50,50,298.2445211250015,,,,,,,,,,,,,,,,,,,,,,298.19271283299895,298.1929252500049,298.24096787500457,298.2445211250015,298.2445211250015,298.2445211250015,298.2445211250015,301.24128308299987,301.24128308299987,302.20513120800024,2,0,0.37242691699793795,0.2530315830008476,None,302.2053486250006,302.20540825000353,None,302.20547604100284,302.20552250000037,None,,,,,,,,,,,2,7,0,1,2025-01-28_13h57.40.060,rtmindeye,2024.2.3,None,2025-01-28 13h57.54.800313 -0500
all_stimuli/MST_pairs1/pair_46_w_pool2.jpg,51,0,51,51,0,,,,0,0,0,7,1,"[9, 21, 31, 45, 56, 68, 69]",1,1,1.6918494999990799,0.1469187500042608,None,None,None,,,,,,,,,,,0,0,0,0,0,51,51,51,302.2531309,,,,,,,,,,,,,,,,,,,,,,302.2060121250033,302.2062492910045,302.24873275000573,302.2531309,302.2531309,302.2531309,302.2531309,305.2423345,305.2423345,306.2207592910054,1,1,1.6918494999990799,0.1469187500042608,None,306.2208821660024,306.2209281250034,None,306.2209697080034,306.2209999160041,None,,,,,,,,,,,2,7,0,1,2025-01-28_13h57.40.060,rtmindeye,2024.2.3,None,2025-01-28 13h57.54.800313 -0500
all_stimuli/special515/special_62228.jpg,52,0,52,52,0,,,,0,0,0,7,1,"[9, 21, 31, 45, 56, 68, 69]",1,1,1.5197715410031378,0.19609541699901456,None,None,None,,,,,,,,,,,0,0,0,0,0,52,52,52,306.26922483300586,,,,,,,,,,,,,,,,,,,,,,306.22132920800505,306.2214254999999,306.2670663750032,306.26922483300586,306.26922483300586,306.26922483300586,306.26922483300586,309.2579509999996,309.2579509999996,310.22535920800146,1,1,1.5197715410031378,0.19609541699901456,None,310.22550933300226,310.22556050000276,None,310.22561279100046,310.22565350000514,None,,,,,,,,,,,2,7,0,1,2025-01-28_13h57.40.060,rtmindeye,2024.2.3,None,2025-01-28 13h57.54.800313 -0500
all_stimuli/MST_pairs1/pair_40_w_escalator2.jpg,53,0,53,53,0,,,,0,0,0,7,1,"[9, 21, 31, 45, 56, 68, 69]",1,1,1.0775806669989834,0.20103112499782583,None,None,None,,,,,,,,,,,0,0,0,0,0,53,53,53,310.2733586250033,,,,,,,,,,,,,,,,,,,,,,310.22602037500474,310.22619141600444,310.2686751250003,310.2733586250033,310.2733586250033,310.2733586250033,310.2733586250033,313.2713742910055,313.2713742910055,314.23837504100084,1,1,1.0775806669989834,0.20103112499782583,None,314.2386532080054,314.23872166599904,None,314.2387925830044,314.2388467500059,None,,,,,,,,,,,2,7,0,1,2025-01-28_13h57.40.060,rtmindeye,2024.2.3,None,2025-01-28 13h57.54.800313 -0500
all_stimuli/MST_pairs1/pair_20_nsd_41_2_cocoid_63715.png,54,0,54,54,0,,,,0,0,0,7,1,"[9, 21, 31, 45, 56, 68, 69]",1,1,1.1007979580026586,0.17296983300184365,None,None,None,,,,,,,,,,,0,0,0,0,0,54,54,54,314.2992680410025,,,,,,,,,,,,,,,,,,,,,,314.23939154099935,314.2396427499989,314.29605625000113,314.2992680410025,314.2992680410025,314.2992680410025,314.2992680410025,317.2915010830038,317.2915010830038,318.24209079100547,1,1,1.1007979580026586,0.17296983300184365,None,318.2422633,318.2423085410046,None,318.24235162500554,318.2423863,None,,,,,,,,,,,2,7,0,1,2025-01-28_13h57.40.060,rtmindeye,2024.2.3,None,2025-01-28 13h57.54.800313 -0500
all_stimuli/shared1000_notspecial/notspecial_22155.png,55,0,55,55,0,,,,0,0,0,7,1,"[9, 21, 31, 45, 56, 68, 69]",1,1,1.3479925419960637,0.14803795800253283,None,None,None,,,,,,,,,,,0,0,0,0,0,55,55,55,318.3399419,,,,,,,,,,,,,,,,,,,,,,318.2427920410046,318.2429572500041,318.3353495830015,318.3399419,318.3399419,318.3399419,318.3399419,321.3379692910021,321.3379692910021,322.2546609160054,1,1,1.3479925419960637,0.14803795800253283,None,322.25492420800583,322.2549954999995,None,322.25508800000534,322.2551929580004,None,,,,,,,,,,,2,7,0,1,2025-01-28_13h57.40.060,rtmindeye,2024.2.3,None,2025-01-28 13h57.54.800313 -0500
blank.jpg,56,1,56,56,0,,,,0,0,0,7,1,"[9, 21, 31, 45, 56, 68, 69]",None,0,,,None,None,None,,,,,,,,,,,0,0,0,0,0,56,56,56,322.3180697909993,,,,,,,,,,,,,,,,,,,,,,322.25577145800344,322.25598875000287,322.3130374579996,322.3180697909993,322.3180697909993,322.3180697909993,322.3180697909993,325.3090247500004,325.3090247500004,326.2591890830008,None,0,,,None,326.2593159579992,326.25935729100456,None,326.25939954099886,326.2594315000024,None,,,,,,,,,,,2,7,0,1,2025-01-28_13h57.40.060,rtmindeye,2024.2.3,None,2025-01-28 13h57.54.800313 -0500
all_stimuli/special515/special_11617.jpg,57,0,57,57,0,,,,0,0,0,7,1,"[9, 21, 31, 45, 56, 68, 69]",1,1,0.7507518330021412,0.19997491699905368,None,None,None,,,,,,,,,,,0,0,0,0,0,57,57,57,326.3153227080038,,,,,,,,,,,,,,,,,,,,,,326.25974666600086,326.2598991250052,326.31111679100286,326.3153227080038,326.3153227080038,326.3153227080038,326.3153227080038,329.3079971660045,329.3079971660045,330.27172079100274,1,1,0.7507518330021412,0.19997491699905368,None,330.27205245799996,330.2721312909998,None,330.2722060830056,330.27227900000435,None,,,,,,,,,,,2,7,0,1,2025-01-28_13h57.40.060,rtmindeye,2024.2.3,None,2025-01-28 13h57.54.800313 -0500
all_stimuli/MST_pairs1/pair_14_18_22.png,58,0,58,58,0,,,,1,0,0,7,1,"[9, 21, 31, 45, 56, 68, 69]",2,1,1.3010076670034323,0.2660641670008772,None,None,None,,,,,,,,,,,0,0,0,0,0,58,58,58,330.33095554100146,,,,,,,,,,,,,,,,,,,,,,330.27285516600386,330.27315645800263,330.3272079580056,330.33095554100146,330.33095554100146,330.33095554100146,330.33095554100146,333.3252679159996,333.3252679159996,334.27541162499983,2,1,1.3010076670034323,0.2660641670008772,None,334.2755985,334.2756555830056,None,334.27571120799985,334.27575237500423,None,,,,,,,,,,,2,7,0,1,2025-01-28_13h57.40.060,rtmindeye,2024.2.3,None,2025-01-28 13h57.54.800313 -0500
all_stimuli/shared1000_notspecial/notspecial_63081.png,59,0,59,59,0,,,,0,0,0,7,1,"[9, 21, 31, 45, 56, 68, 69]",1,1,1.0787368749952293,0.21599570900434628,None,None,None,,,,,,,,,,,0,0,0,0,0,59,59,59,334.38832125000044,,,,,,,,,,,,,,,,,,,,,,334.27616066600604,334.27636220800196,334.3842848330023,334.38832125000044,334.38832125000044,334.38832125000044,334.38832125000044,337.3748198750036,337.3748198750036,338.28795950000494,1,1,1.0787368749952293,0.21599570900434628,None,338.28813600000285,338.28820425000595,None,338.28825925000274,338.2882998749992,None,,,,,,,,,,,2,7,0,1,2025-01-28_13h57.40.060,rtmindeye,2024.2.3,None,2025-01-28 13h57.54.800313 -0500
all_stimuli/MST_pairs1/pair_42_w_icerink2.jpg,60,0,60,60,0,,,,0,0,0,7,1,"[9, 21, 31, 45, 56, 68, 69]",1,1,2.256805000004533,0.1849556669985759,None,None,None,,,,,,,,,,,0,0,0,0,0,60,60,60,338.33318979100295,,,,,,,,,,,,,,,,,,,,,,338.2887791660032,338.28895729099895,338.3283992910001,338.33318979100295,338.33318979100295,338.33318979100295,338.33318979100295,341.32496537500265,341.32496537500265,342.2894892500044,1,1,2.256805000004533,0.1849556669985759,None,342.28967175000435,342.2897273330018,None,342.28976958300336,342.2898008750053,None,,,,,,,,,,,2,7,0,1,2025-01-28_13h57.40.060,rtmindeye,2024.2.3,None,2025-01-28 13h57.54.800313 -0500
all_stimuli/MST_pairs1/pair_46_w_pool1.jpg,61,0,61,61,0,,,,0,0,0,7,1,"[9, 21, 31, 45, 56, 68, 69]",1,1,2.4543635830050334,None,None,None,None,,,,,,,,,,,0,0,0,0,0,61,61,61,342.33454766600335,,,,,,,,,,,,,,,,,,,,,,342.2901981660034,342.29043258300226,342.3283635830012,342.33454766600335,342.33454766600335,342.33454766600335,342.33454766600335,345.3275555,345.3275555,346.2913645830049,1,1,2.4543635830050334,None,None,346.29158141600055,346.29163708299893,None,346.29169925000315,346.29174566599977,None,,,,,,,,,,,2,7,0,1,2025-01-28_13h57.40.060,rtmindeye,2024.2.3,None,2025-01-28 13h57.54.800313 -0500
all_stimuli/special515/special_40840.jpg,62,0,62,62,0,,,,0,0,0,7,1,"[9, 21, 31, 45, 56, 68, 69]",1,1,1.601661583998066,0.21496870800183387,None,None,None,,,,,,,,,,,0,0,0,0,0,62,62,62,346.35133995800425,,,,,,,,,,,,,,,,,,,,,,346.29223033300514,346.29245483300474,346.3465515409989,346.35133995800425,346.35133995800425,346.35133995800425,346.35133995800425,349.3414117499997,349.3414117499997,350.3048787910011,1,1,1.601661583998066,0.21496870800183387,None,350.30523529100174,350.30533650000143,None,350.30542187500396,350.30547979100083,None,,,,,,,,,,,2,7,0,1,2025-01-28_13h57.40.060,rtmindeye,2024.2.3,None,2025-01-28 13h57.54.800313 -0500
all_stimuli/special515/special_29837.jpg,63,0,63,63,0,,,,0,0,0,7,1,"[9, 21, 31, 45, 56, 68, 69]",1,1,1.2042554159997962,0.20905316699645482,None,None,None,,,,,,,,,,,0,0,0,0,0,63,63,63,350.3517583,,,,,,,,,,,,,,,,,,,,,,350.30606258300395,350.3063229160034,350.34731312499935,350.3517583,350.3517583,350.3517583,350.3517583,353.34216933300195,353.34216933300195,354.30877420800243,1,1,1.2042554159997962,0.20905316699645482,None,354.3089612910044,354.30900991600356,None,354.3090684160052,354.3091039,None,,,,,,,,,,,2,7,0,1,2025-01-28_13h57.40.060,rtmindeye,2024.2.3,None,2025-01-28 13h57.54.800313 -0500
all_stimuli/shared1000_notspecial/notspecial_4768.png,64,0,64,64,0,,,,0,0,0,7,1,"[9, 21, 31, 45, 56, 68, 69]",1,1,1.1519517080014339,0.15803795799729414,None,None,None,,,,,,,,,,,0,0,0,0,0,64,64,64,354.42599995800265,,,,,,,,,,,,,,,,,,,,,,354.3095065830057,354.3097169579996,354.4212074579991,354.42599995800265,354.42599995800265,354.42599995800265,354.42599995800265,357.4211967080046,357.4211967080046,358.32155129100283,1,1,1.1519517080014339,0.15803795799729414,None,358.32182037500024,358.3219030410037,None,358.32204150000325,358.3221012,None,,,,,,,,,,,2,7,0,1,2025-01-28_13h57.40.060,rtmindeye,2024.2.3,None,2025-01-28 13h57.54.800313 -0500
all_stimuli/MST_pairs1/pair_20_nsd_41_1_cocoid_15472.png,65,0,65,65,0,,,,0,0,0,7,1,"[9, 21, 31, 45, 56, 68, 69]",1,1,0.8589356250013225,0.20697683300386416,None,None,None,,,,,,,,,,,0,0,0,0,0,65,65,65,358.38816958300595,,,,,,,,,,,,,,,,,,,,,,358.3227023330037,358.32292858300207,358.3847184,358.38816958300595,358.38816958300595,358.38816958300595,358.38816958300595,361.3752474580033,361.3752474580033,362.32575191600336,1,1,0.8589356250013225,0.20697683300386416,None,362.32592291600304,362.32597620800516,None,362.32603137499973,362.32607312500477,None,,,,,,,,,,,2,7,0,1,2025-01-28_13h57.40.060,rtmindeye,2024.2.3,None,2025-01-28 13h57.54.800313 -0500
all_stimuli/shared1000_notspecial/notspecial_53157.png,66,0,66,66,0,,,,0,0,0,7,1,"[9, 21, 31, 45, 56, 68, 69]",1,1,0.8578476659968146,0.20399999999790452,None,None,None,,,,,,,,,,,0,0,0,0,0,66,66,66,362.42417900000146,,,,,,,,,,,,,,,,,,,,,,362.32646362500236,362.32664645800105,362.41962137500377,362.42417900000146,362.42417900000146,362.42417900000146,362.42417900000146,365.4215602500044,365.4215602500044,366.3380623750054,1,1,0.8578476659968146,0.20399999999790452,None,366.33831383300276,366.33837087500433,None,366.33843770800013,366.3385093329998,None,,,,,,,,,,,2,7,0,1,2025-01-28_13h57.40.060,rtmindeye,2024.2.3,None,2025-01-28 13h57.54.800313 -0500
all_stimuli/special515/special_38641.jpg,67,0,67,67,0,,,,1,0,0,7,1,"[9, 21, 31, 45, 56, 68, 69]",1,0,1.5601796670016483,0.1990529169997899,None,None,None,,,,,,,,,,,0,0,0,0,0,67,67,67,366.3878344580007,,,,,,,,,,,,,,,,,,,,,,366.33898729100474,366.33916041600605,366.3835178330046,366.3878344580007,366.3878344580007,366.3878344580007,366.3878344580007,369.3744521250046,369.3744521250046,370.34183358299924,1,0,1.5601796670016483,0.1990529169997899,None,370.3419860830036,370.3420318330027,None,370.3420755000043,370.3421087500028,None,,,,,,,,,,,2,7,0,1,2025-01-28_13h57.40.060,rtmindeye,2024.2.3,None,2025-01-28 13h57.54.800313 -0500
blank.jpg,68,1,68,68,0,,,,0,0,0,7,1,"[9, 21, 31, 45, 56, 68, 69]",None,0,,,None,None,None,,,,,,,,,,,0,0,0,0,0,68,68,68,370.3854209580022,,,,,,,,,,,,,,,,,,,,,,370.3424549160045,370.3425991660042,370.3801886250003,370.3854209580022,370.3854209580022,370.3854209580022,370.3854209580022,373.37518708300195,373.37518708300195,374.3434223330041,None,0,,,None,374.34359250000125,374.34364941600506,None,374.34370058300556,374.34373966600106,None,,,,,,,,,,,2,7,0,1,2025-01-28_13h57.40.060,rtmindeye,2024.2.3,None,2025-01-28 13h57.54.800313 -0500
blank.jpg,69,1,69,69,0,,,,0,1,0,7,0,"[9, 21, 31, 45, 56, 68, 69]",None,0,,,None,1,equal,,,4.847119833000761,None,0.8447807920019841,None,,,,,0,0,0,0,0,69,69,69,374.37377962499886,,,,,,,,,,,,,,,,,,,,,,374.34411866600567,374.3442900000009,374.36856891600473,374.37377962499886,374.37377962499886,374.37377962499886,374.37377962499886,377.3713566250008,377.3713566250008,378.3549886250039,None,0,,,None,378.3749742500004,383.2407901250044,1,383.24105491600494,384.10686291599995,equal,,,378.37905966600374,378.37905966600374,4.847119833000761,None,383.24941629100067,383.24941629100067,0.8447807920019841,None,2,7,0,1,2025-01-28_13h57.40.060,rtmindeye,2024.2.3,None,2025-01-28 13h57.54.800313 -0500
,,,0,0,0,,,,,,,,,,,,,,,,,,,,,,,,,,,0,0,0,0,,,,,,,,,,,,,,,,,,,,,,,,,,,,,,,,,,,,,,,,,,,,,,,,,,,,,,,,,,2,7,0,1,2025-01-28_13h57.40.060,rtmindeye,2024.2.3,None,2025-01-28 13h57.54.800313 -0500
all_stimuli/special515/special_71450.jpg,0,0,0,0,0,,,,0,0,1,7,1,"[9, 21, 31, 45, 56, 68, 69]",1,1,0.6901956669971696,0.22902874999999767,None,None,None,,,,,,,,,,,0,0,0,0,0,0,0,0,23.789501040999312,,,,,,,,,,,,,,,,,,,,,,23.738403374998597,23.73845021,23.77887458299665,23.789501040999312,23.789501040999312,23.789501040999312,23.789501040999312,26.79057670799375,26.79057670799375,27.739828290999867,1,1,0.6901956669971696,0.22902874999999767,None,27.74007737499778,27.740145665993623,None,27.74020670799655,27.74024774999998,None,,,,,,,,,,,2,7,1,1,2025-01-28_14h05.30.462,rtmindeye,2024.2.3,None,2025-01-28 14h05.48.901066 -0500
all_stimuli/special515/special_38246.jpg,1,0,1,1,0,,,,0,0,1,7,1,"[9, 21, 31, 45, 56, 68, 69]",1,1,1.0724561659953906,0.20698633400024846,None,None,None,,,,,,,,,,,0,0,0,0,0,1,1,1,27.794137999997474,,,,,,,,,,,,,,,,,,,,,,27.74072866599454,27.74092120799469,27.78912358299567,27.794137999997474,27.794137999997474,27.794137999997474,27.794137999997474,30.79061862499657,30.79061862499657,31.742186040995875,1,1,1.0724561659953906,0.20698633400024846,None,31.742269499998656,31.742295832998934,None,31.742324499995448,31.742346082995937,None,,,,,,,,,,,2,7,1,1,2025-01-28_14h05.30.462,rtmindeye,2024.2.3,None,2025-01-28 14h05.48.901066 -0500
all_stimuli/special515/special_10046.jpg,2,0,2,2,0,,,,0,0,1,7,1,"[9, 21, 31, 45, 56, 68, 69]",1,1,0.853059042,0.19805416699819034,None,None,None,,,,,,,,,,,0,0,0,0,0,2,2,2,31.784674665999773,,,,,,,,,,,,,,,,,,,,,,31.742575999996916,31.742643957994005,31.781511582994426,31.784674665999773,31.784674665999773,31.784674665999773,31.784674665999773,34.778476,34.778476,35.74307533299725,1,1,0.853059042,0.19805416699819034,None,35.743263415999536,35.74331629,None,35.74338037499547,35.74341629099945,None,,,,,,,,,,,2,7,1,1,2025-01-28_14h05.30.462,rtmindeye,2024.2.3,None,2025-01-28 14h05.48.901066 -0500
all_stimuli/MST_pairs1/pair_38_w_arch2.jpg,3,0,3,3,0,,,,0,0,1,7,1,"[9, 21, 31, 45, 56, 68, 69]",1,1,1.3286564169975463,0.1870645000017248,None,None,None,,,,,,,,,,,0,0,0,0,0,3,3,3,35.79898541599687,,,,,,,,,,,,,,,,,,,,,,35.74385029099358,35.744046915999206,35.794090999996115,35.79898541599687,35.79898541599687,35.79898541599687,35.79898541599687,38.79346379100025,38.79346379100025,39.744358249998186,1,1,1.3286564169975463,0.1870645000017248,None,39.74450524999702,39.74454729099671,None,39.74459104099515,39.74462295799458,None,,,,,,,,,,,2,7,1,1,2025-01-28_14h05.30.462,rtmindeye,2024.2.3,None,2025-01-28 14h05.48.901066 -0500
all_stimuli/special515/special_30395.jpg,4,0,4,4,0,,,,0,0,1,7,1,"[9, 21, 31, 45, 56, 68, 69]",1,1,1.1265940840021358,0.17997987499984447,None,None,None,,,,,,,,,,,0,0,0,0,0,4,4,4,39.79011624999839,,,,,,,,,,,,,,,,,,,,,,39.74496270799864,39.74510975,39.78544399999373,39.79011624999839,39.79011624999839,39.79011624999839,39.79011624999839,42.77776062,42.77776062,43.75622412499797,1,1,1.1265940840021358,0.17997987499984447,None,43.756496124995465,43.75656262499979,None,43.75664833299379,43.75669733299583,None,,,,,,,,,,,2,7,1,1,2025-01-28_14h05.30.462,rtmindeye,2024.2.3,None,2025-01-28 14h05.48.901066 -0500
all_stimuli/special515/special_38494.jpg,5,0,5,5,0,,,,1,0,1,7,1,"[9, 21, 31, 45, 56, 68, 69]",2,1,1.0790590840042569,0.31100520799373044,None,None,None,,,,,,,,,,,0,0,0,0,0,5,5,5,43.801641582998855,,,,,,,,,,,,,,,,,,,,,,43.757157915999414,43.75731841599918,43.79689137499372,43.801641582998855,43.801641582998855,43.801641582998855,43.801641582998855,46.793857499993464,46.793857499993464,47.76045370799693,2,1,1.0790590840042569,0.31100520799373044,None,47.76062862499384,47.76069312499749,None,47.760742499995104,47.760781207995024,None,,,,,,,,,,,2,7,1,1,2025-01-28_14h05.30.462,rtmindeye,2024.2.3,None,2025-01-28 14h05.48.901066 -0500
all_stimuli/MST_pairs1/pair_28_nsd_547_1_cocoid_60932.png,6,0,6,6,0,,,,1,0,1,7,1,"[9, 21, 31, 45, 56, 68, 69]",2,1,1.3045127910008887,0.2850109999999404,None,None,None,,,,,,,,,,,0,0,0,0,0,6,6,6,47.823201207997045,,,,,,,,,,,,,,,,,,,,,,47.76120787499531,47.761390374995244,47.82004883299669,47.823201207997045,47.823201207997045,47.823201207997045,47.823201207997045,50.81033595799818,50.81033595799818,51.77359516599972,2,1,1.3045127910008887,0.2850109999999404,None,51.77387829099462,51.773938332997204,None,51.77401042,51.774067708000075,None,,,,,,,,,,,2,7,1,1,2025-01-28_14h05.30.462,rtmindeye,2024.2.3,None,2025-01-28 14h05.48.901066 -0500
all_stimuli/special515/special_61133.jpg,7,0,7,7,0,,,,0,0,1,7,1,"[9, 21, 31, 45, 56, 68, 69]",1,1,1.1851257090020226,0.24899891600216506,None,None,None,,,,,,,,,,,0,0,0,0,0,7,7,7,51.81960862499545,,,,,,,,,,,,,,,,,,,,,,51.77451041599852,51.77470474999427,51.81600724999589,51.81960862499545,51.81960862499545,51.81960862499545,51.81960862499545,54.809770040999865,54.809770040999865,55.77738266599772,1,1,1.1851257090020226,0.24899891600216506,None,55.777548999998544,55.77759470799356,None,55.77764083299553,55.77767433299596,None,,,,,,,,,,,2,7,1,1,2025-01-28_14h05.30.462,rtmindeye,2024.2.3,None,2025-01-28 14h05.48.901066 -0500
all_stimuli/shared1000_notspecial/notspecial_16635.png,8,0,8,8,0,,,,0,0,1,7,1,"[9, 21, 31, 45, 56, 68, 69]",1,1,0.732052958,0.26600620899989735,None,None,None,,,,,,,,,,,0,0,0,0,0,8,8,8,55.924658582996926,,,,,,,,,,,,,,,,,,,,,,55.778057415998774,55.778200832995935,55.921237874994404,55.924658582996926,55.924658582996926,55.924658582996926,55.924658582996926,58.92283458299789,58.92283458299789,59.789886790997116,1,1,0.732052958,0.26600620899989735,None,59.790151832996344,59.79024712499813,None,59.79031687,59.79036033299781,None,,,,,,,,,,,2,7,1,1,2025-01-28_14h05.30.462,rtmindeye,2024.2.3,None,2025-01-28 14h05.48.901066 -0500
blank.jpg,9,1,9,9,0,,,,0,0,1,7,1,"[9, 21, 31, 45, 56, 68, 69]",None,0,,,None,None,None,,,,,,,,,,,0,0,0,0,0,9,9,9,59.84502195799723,,,,,,,,,,,,,,,,,,,,,,59.790782415999274,59.79093508299411,59.84034970799985,59.84502195799723,59.84502195799723,59.84502195799723,59.84502195799723,62.84001874999376,62.84001874999376,63.79345474999718,None,0,,,None,63.79365016599331,63.79370491599548,None,63.79375654099567,63.79379424999934,None,,,,,,,,,,,2,7,1,1,2025-01-28_14h05.30.462,rtmindeye,2024.2.3,None,2025-01-28 14h05.48.901066 -0500
all_stimuli/MST_pairs1/pair_18_nsd_6_1_cocoid_13417.png,10,0,10,10,0,,,,0,0,1,7,1,"[9, 21, 31, 45, 56, 68, 69]",1,1,1.3855059170018649,0.20906375000049593,None,None,None,,,,,,,,,,,0,0,0,0,0,10,10,10,63.85522745799972,,,,,,,,,,,,,,,,,,,,,,63.79418162499496,63.794357124999806,63.851795832997595,63.85522745799972,63.85522745799972,63.85522745799972,63.85522745799972,66.84447062499385,66.84447062499385,67.80660041599913,1,1,1.3855059170018649,0.20906375000049593,None,67.80683791599586,67.80689970799722,None,67.80696133299352,67.80700320799951,None,,,,,,,,,,,2,7,1,1,2025-01-28_14h05.30.462,rtmindeye,2024.2.3,None,2025-01-28 14h05.48.901066 -0500
all_stimuli/shared1000_notspecial/notspecial_21703.png,11,0,11,11,0,,,,0,0,1,7,1,"[9, 21, 31, 45, 56, 68, 69]",1,1,1.2225994160035043,0.2660304999953951,None,None,None,,,,,,,,,,,0,0,0,0,0,11,11,11,67.89314549999835,,,,,,,,,,,,,,,,,,,,,,67.80750012,67.80770966599812,67.88933341599477,67.89314549999835,67.89314549999835,67.89314549999835,67.89314549999835,70.88960199999565,70.88960199999565,71.81048220799858,1,1,1.2225994160035043,0.2660304999953951,None,71.81068295799923,71.81073299999844,None,71.81078799999523,71.81082137,None,,,,,,,,,,,2,7,1,1,2025-01-28_14h05.30.462,rtmindeye,2024.2.3,None,2025-01-28 14h05.48.901066 -0500
all_stimuli/special515/special_24530.jpg,12,0,12,12,0,,,,0,0,1,7,1,"[9, 21, 31, 45, 56, 68, 69]",1,1,1.314694665998104,0.22198433400626527,None,None,None,,,,,,,,,,,0,0,0,0,0,12,12,12,71.85903974999383,,,,,,,,,,,,,,,,,,,,,,71.81125462499767,71.81150020799396,71.85533729099552,71.85903974999383,71.85903974999383,71.85903974999383,71.85903974999383,74.85590292,74.85590292,75.82304883299366,1,1,1.314694665998104,0.22198433400626527,None,75.82321937499364,75.82328108299407,None,75.82333687,75.82337741599622,None,,,,,,,,,,,2,7,1,1,2025-01-28_14h05.30.462,rtmindeye,2024.2.3,None,2025-01-28 14h05.48.901066 -0500
all_stimuli/shared1000_notspecial/notspecial_6222.png,13,0,13,13,0,,,,0,0,1,7,1,"[9, 21, 31, 45, 56, 68, 69]",1,1,0.9899780409978121,0.2219150839955546,None,None,None,,,,,,,,,,,0,0,0,0,0,13,13,13,75.90582999999606,,,,,,,,,,,,,,,,,,,,,,75.82384362499579,75.82401637499424,75.90142391599511,75.90582999999606,75.90582999999606,75.90582999999606,75.90582999999606,78.89310741599911,78.89310741599911,79.82690179099882,1,1,0.9899780409978121,0.2219150839955546,None,79.82708199999615,79.82712954099406,None,79.82717595799477,79.82720795799833,None,,,,,,,,,,,2,7,1,1,2025-01-28_14h05.30.462,rtmindeye,2024.2.3,None,2025-01-28 14h05.48.901066 -0500
all_stimuli/MST_pairs1/pair_44_w_log_cabin2.jpg,14,0,14,14,0,,,,0,0,1,7,1,"[9, 21, 31, 45, 56, 68, 69]",1,1,1.4475661660035257,0.18908558399562025,None,None,None,,,,,,,,,,,0,0,0,0,0,14,14,14,79.88013845800015,,,,,,,,,,,,,,,,,,,,,,79.827608,79.82777062499372,79.87596479099739,79.88013845800015,79.88013845800015,79.88013845800015,79.88013845800015,82.87659062499733,82.87659062499733,83.83976762499515,1,1,1.4475661660035257,0.18908558399562025,None,83.84005187499861,83.84014549999847,None,83.84029433,83.84037341599469,None,,,,,,,,,,,2,7,1,1,2025-01-28_14h05.30.462,rtmindeye,2024.2.3,None,2025-01-28 14h05.48.901066 -0500
all_stimuli/special515/special_28068.jpg,15,0,15,15,0,,,,0,0,1,7,1,"[9, 21, 31, 45, 56, 68, 69]",1,1,0.9749970829943777,0.21202662500581937,None,None,None,,,,,,,,,,,0,0,0,0,0,15,15,15,83.88080174999777,,,,,,,,,,,,,,,,,,,,,,83.84096266599954,83.84118820799631,83.87743124999542,83.88080174999777,83.88080174999777,83.88080174999777,83.88080174999777,86.87721442,86.87721442,87.84385916599422,1,1,0.9749970829943777,0.21202662500581937,None,87.84400945800007,87.84405466599856,None,87.84410071,87.84413837499596,None,,,,,,,,,,,2,7,1,1,2025-01-28_14h05.30.462,rtmindeye,2024.2.3,None,2025-01-28 14h05.48.901066 -0500
all_stimuli/shared1000_notspecial/notspecial_60978.png,16,0,16,16,0,,,,0,0,1,7,1,"[9, 21, 31, 45, 56, 68, 69]",1,1,0.8397978749999311,0.1800094159989385,None,None,None,,,,,,,,,,,0,0,0,0,0,16,16,16,87.96997499999998,,,,,,,,,,,,,,,,,,,,,,87.84449470799882,87.84463374999905,87.96614012499776,87.96997499999998,87.96997499999998,87.96997499999998,87.96997499999998,90.96013162,90.96013162,91.85658212499402,1,1,0.8397978749999311,0.1800094159989385,None,91.85685354099405,91.85700187499606,None,91.85710412499611,91.85716704099468,None,,,,,,,,,,,2,7,1,1,2025-01-28_14h05.30.462,rtmindeye,2024.2.3,None,2025-01-28 14h05.48.901066 -0500
all_stimuli/MST_pairs1/pair_2_4_22.png,17,0,17,17,0,,,,0,0,1,7,1,"[9, 21, 31, 45, 56, 68, 69]",1,1,0.8556787920024362,0.22294641699409112,None,None,None,,,,,,,,,,,0,0,0,0,0,17,17,17,91.91414245799388,,,,,,,,,,,,,,,,,,,,,,91.85775404099695,91.85801837499457,91.91056324999954,91.91414245799388,91.91414245799388,91.91414245799388,91.91414245799388,94.90958179099835,94.90958179099835,95.86047008299647,1,1,0.8556787920024362,0.22294641699409112,None,95.86063937499421,95.86069629099802,None,95.86075645799428,95.86079754099774,None,,,,,,,,,,,2,7,1,1,2025-01-28_14h05.30.462,rtmindeye,2024.2.3,None,2025-01-28 14h05.48.901066 -0500
all_stimuli/shared1000_notspecial/notspecial_46160.png,18,0,18,18,0,,,,0,0,1,7,1,"[9, 21, 31, 45, 56, 68, 69]",1,1,1.537256042000081,0.182978542,None,None,None,,,,,,,,,,,0,0,0,0,0,18,18,18,95.95149142,,,,,,,,,,,,,,,,,,,,,,95.86121454099339,95.86142521,95.94614220799849,95.95149142,95.95149142,95.95149142,95.95149142,98.94296824999765,98.94296824999765,99.86155133300053,1,1,1.537256042000081,0.182978542,None,99.86171408,99.86175620799622,None,99.86180379099824,99.86184004099778,None,,,,,,,,,,,2,7,1,1,2025-01-28_14h05.30.462,rtmindeye,2024.2.3,None,2025-01-28 14h05.48.901066 -0500
all_stimuli/special515/special_64880.jpg,19,0,19,19,0,,,,0,0,1,7,1,"[9, 21, 31, 45, 56, 68, 69]",1,1,1.5219072499967297,0.21094874999835156,None,None,None,,,,,,,,,,,0,0,0,0,0,19,19,19,99.91298241599725,,,,,,,,,,,,,,,,,,,,,,99.86220687499736,99.86235395800031,99.90930908299924,99.91298241599725,99.91298241599725,99.91298241599725,99.91298241599725,102.91045591599686,102.91045591599686,103.87298754099902,1,1,1.5219072499967297,0.21094874999835156,None,103.8731576249993,103.87322716599738,None,103.8732842909958,103.87332583299576,None,,,,,,,,,,,2,7,1,1,2025-01-28_14h05.30.462,rtmindeye,2024.2.3,None,2025-01-28 14h05.48.901066 -0500
all_stimuli/MST_pairs1/pair_36_nsd_949_1_cocoid_43196.png,20,0,20,20,0,,,,0,0,1,7,1,"[9, 21, 31, 45, 56, 68, 69]",1,1,1.930409458000213,0.202032709,None,None,None,,,,,,,,,,,0,0,0,0,0,20,20,20,103.93039987499651,,,,,,,,,,,,,,,,,,,,,,103.87377270799334,103.87396054099372,103.92717270799767,103.93039987499651,103.93039987499651,103.93039987499651,103.93039987499651,106.92847391599935,106.92847391599935,107.87718595799379,1,1,1.930409458000213,0.202032709,None,107.87736287499865,107.87741729099798,None,107.87747291599953,107.87751699999353,None,,,,,,,,,,,2,7,1,1,2025-01-28_14h05.30.462,rtmindeye,2024.2.3,None,2025-01-28 14h05.48.901066 -0500
blank.jpg,21,1,21,21,0,,,,0,0,1,7,1,"[9, 21, 31, 45, 56, 68, 69]",None,0,,,None,None,None,,,,,,,,,,,0,0,0,0,0,21,21,21,107.9253276659947,,,,,,,,,,,,,,,,,,,,,,107.87800662499649,107.87823249999929,107.9204265829976,107.9253276659947,107.9253276659947,107.9253276659947,107.9253276659947,110.92293112499465,110.92293112499465,111.88975837500038,None,0,,,None,111.89001354100037,111.89006924999558,None,111.89015179099806,111.89023749999615,None,,,,,,,,,,,2,7,1,1,2025-01-28_14h05.30.462,rtmindeye,2024.2.3,None,2025-01-28 14h05.48.901066 -0500
all_stimuli/special515/special_30632.jpg,22,0,22,22,0,,,,1,0,1,7,1,"[9, 21, 31, 45, 56, 68, 69]",1,0,0.9369596250035102,0.2230901660004747,None,None,None,,,,,,,,,,,0,0,0,0,0,22,22,22,111.93980291600019,,,,,,,,,,,,,,,,,,,,,,111.8907084159946,111.89087487499637,111.93513279099716,111.93980291600019,111.93980291600019,111.93980291600019,111.93980291600019,114.92712383299659,114.92712383299659,115.8943706659993,1,0,0.9369596250035102,0.2230901660004747,None,115.89452274999348,115.89456879099453,None,115.89461416599806,115.8946463329994,None,,,,,,,,,,,2,7,1,1,2025-01-28_14h05.30.462,rtmindeye,2024.2.3,None,2025-01-28 14h05.48.901066 -0500
all_stimuli/MST_pairs1/pair_20_nsd_41_2_cocoid_63715.png,23,0,23,23,0,,,,1,0,1,7,1,"[9, 21, 31, 45, 56, 68, 69]",None,0,,,['2'],None,None,[1.5805848340023658],[0.2910450409981422],,,,,,,,,0,0,0,0,0,23,23,23,115.95924062499398,,,,,,,,,,,,,,,,,,,,,,115.89499570799671,115.89514016599423,115.95604683299462,115.95924062499398,115.95924062499398,115.95924062499398,115.95924062499398,118.9563027080003,118.9563027080003,119.90687899999466,None,0,,,['2'],119.90716145799524,119.90720729099849,None,119.90725187499629,119.90728300000046,None,[1.5805848340023658],[0.2910450409981422],,,,,,,,,2,7,1,1,2025-01-28_14h05.30.462,rtmindeye,2024.2.3,None,2025-01-28 14h05.48.901066 -0500
all_stimuli/MST_pairs1/pair_22_nsd_115_2_cocoid_65194.png,24,0,24,24,0,,,,0,0,1,7,1,"[9, 21, 31, 45, 56, 68, 69]",1,1,1.3438908329990227,0.18998991700209444,None,None,None,,,,,,,,,,,0,0,0,0,0,24,24,24,119.98800362499605,,,,,,,,,,,,,,,,,,,,,,119.90763599999627,119.90779949999705,119.98448920800001,119.98800362499605,119.98800362499605,119.98800362499605,119.98800362499605,122.99007116599387,122.99007116599387,123.90987662499538,1,1,1.3438908329990227,0.18998991700209444,None,123.91003187499882,123.91008133300056,None,123.91013058299723,123.9101675829952,None,,,,,,,,,,,2,7,1,1,2025-01-28_14h05.30.462,rtmindeye,2024.2.3,None,2025-01-28 14h05.48.901066 -0500
all_stimuli/shared1000_notspecial/notspecial_26292.png,25,0,25,25,0,,,,0,0,1,7,1,"[9, 21, 31, 45, 56, 68, 69]",1,1,1.0807096249991446,0.16802970800199546,None,None,None,,,,,,,,,,,0,0,0,0,0,25,25,25,124.02701037499355,,,,,,,,,,,,,,,,,,,,,,123.91055120799865,123.91071791599825,124.02232608299528,124.02701037499355,124.02701037499355,124.02701037499355,124.02701037499355,127.02294766599516,127.02294766599516,127.91088491599658,1,1,1.0807096249991446,0.16802970800199546,None,127.91103933299746,127.9110832909937,None,127.91112937499565,127.91116150000016,None,,,,,,,,,,,2,7,1,1,2025-01-28_14h05.30.462,rtmindeye,2024.2.3,None,2025-01-28 14h05.48.901066 -0500
all_stimuli/special515/special_6489.jpg,26,0,26,26,0,,,,1,0,1,7,1,"[9, 21, 31, 45, 56, 68, 69]",2,1,1.1231642499988084,0.2769632079944131,None,None,None,,,,,,,,,,,0,0,0,0,0,26,26,26,127.96470412499912,,,,,,,,,,,,,,,,,,,,,,127.91153008299443,127.91166783299559,127.96076908299437,127.96470412499912,127.96470412499912,127.96470412499912,127.96470412499912,130.95963658300025,130.95963658300025,131.9243200829951,2,1,1.1231642499988084,0.2769632079944131,None,131.9244990829975,131.92455016599706,None,131.92461170799652,131.92465479099337,None,,,,,,,,,,,2,7,1,1,2025-01-28_14h05.30.462,rtmindeye,2024.2.3,None,2025-01-28 14h05.48.901066 -0500
all_stimuli/special515/special_55678.jpg,27,0,27,27,0,,,,0,0,1,7,1,"[9, 21, 31, 45, 56, 68, 69]",1,1,0.9030347920052009,0.19504612499440555,None,None,None,,,,,,,,,,,0,0,0,0,0,27,27,27,131.96772841599886,,,,,,,,,,,,,,,,,,,,,,131.9250699579934,131.9252637499958,131.9626297499999,131.96772841599886,131.96772841599886,131.96772841599886,131.96772841599886,134.95867279099912,134.95867279099912,135.92774354099674,1,1,0.9030347920052009,0.19504612499440555,None,135.9278960829979,135.92795033299626,None,135.92800116599392,135.92803862499568,None,,,,,,,,,,,2,7,1,1,2025-01-28_14h05.30.462,rtmindeye,2024.2.3,None,2025-01-28 14h05.48.901066 -0500
all_stimuli/special515/special_40909.jpg,28,0,28,28,0,,,,0,0,1,7,1,"[9, 21, 31, 45, 56, 68, 69]",1,1,0.8406736670003738,0.1920090830026311,None,None,None,,,,,,,,,,,0,0,0,0,0,28,28,28,135.98014729099668,,,,,,,,,,,,,,,,,,,,,,135.92842516599922,135.92860591600038,135.97507691599458,135.98014729099668,135.98014729099668,135.98014729099668,135.98014729099668,138.97719254099502,138.97719254099502,139.94014870799583,1,1,0.8406736670003738,0.1920090830026311,None,139.9404722909967,139.94057887499366,None,139.94066670799657,139.94072633299947,None,,,,,,,,,,,2,7,1,1,2025-01-28_14h05.30.462,rtmindeye,2024.2.3,None,2025-01-28 14h05.48.901066 -0500
all_stimuli/special515/special_70360.jpg,29,0,29,29,0,,,,0,0,1,7,1,"[9, 21, 31, 45, 56, 68, 69]",1,1,0.9670583749975776,0.17594608400395373,None,None,None,,,,,,,,,,,0,0,0,0,0,29,29,29,139.98688562499592,,,,,,,,,,,,,,,,,,,,,,139.94130370799394,139.9415529580001,139.98315462499886,139.98688562499592,139.98688562499592,139.98688562499592,139.98688562499592,142.97664295799768,142.97664295799768,143.9436550829996,1,1,0.9670583749975776,0.17594608400395373,None,143.94385537500057,143.94390304099943,None,143.9439520409942,143.9439891660004,None,,,,,,,,,,,2,7,1,1,2025-01-28_14h05.30.462,rtmindeye,2024.2.3,None,2025-01-28 14h05.48.901066 -0500
all_stimuli/MST_pairs1/pair_42_w_icerink1.jpg,30,0,30,30,0,,,,0,0,1,7,1,"[9, 21, 31, 45, 56, 68, 69]",1,1,1.7946294590001344,0.24601220800104784,None,None,None,,,,,,,,,,,0,0,0,0,0,30,30,30,143.98726220800017,,,,,,,,,,,,,,,,,,,,,,143.94437345799815,143.94455658299557,143.98373904099572,143.98726220800017,143.98726220800017,143.98726220800017,143.98726220800017,146.97659216600005,146.97659216600005,147.956466,1,1,1.7946294590001344,0.24601220800104784,None,147.9567098329935,147.9568064579944,None,147.9568863329987,147.95694920799724,None,,,,,,,,,,,2,7,1,1,2025-01-28_14h05.30.462,rtmindeye,2024.2.3,None,2025-01-28 14h05.48.901066 -0500
blank.jpg,31,1,31,31,0,,,,0,0,1,7,1,"[9, 21, 31, 45, 56, 68, 69]",None,0,,,None,None,None,,,,,,,,,,,0,0,0,0,0,31,31,31,147.99990574999538,,,,,,,,,,,,,,,,,,,,,,147.95755474999896,147.9577572499984,147.9949243749943,147.99990574999538,147.99990574999538,147.99990574999538,147.99990574999538,150.99319087500044,150.99319087500044,151.96010641599423,None,0,,,None,151.96023766599683,151.96027791599772,None,151.96032733299944,151.96036437499424,None,,,,,,,,,,,2,7,1,1,2025-01-28_14h05.30.462,rtmindeye,2024.2.3,None,2025-01-28 14h05.48.901066 -0500
all_stimuli/special515/special_30430.jpg,32,0,32,32,0,,,,1,0,1,7,1,"[9, 21, 31, 45, 56, 68, 69]",2,1,2.1728357910033083,0.23101845900237095,None,None,None,,,,,,,,,,,0,0,0,0,0,32,32,32,152.03210145799676,,,,,,,,,,,,,,,,,,,,,,151.96068695799477,151.96082970799762,152.02897399999347,152.03210145799676,152.03210145799676,152.03210145799676,152.03210145799676,155.02663741599827,155.02663741599827,155.9734764579989,2,1,2.1728357910033083,0.23101845900237095,None,155.97372262499994,155.9737916659942,None,155.97392933299852,155.97400854099396,None,,,,,,,,,,,2,7,1,1,2025-01-28_14h05.30.462,rtmindeye,2024.2.3,None,2025-01-28 14h05.48.901066 -0500
all_stimuli/shared1000_notspecial/notspecial_43746.png,33,0,33,33,0,,,,0,0,1,7,1,"[9, 21, 31, 45, 56, 68, 69]",1,1,0.8633300829969812,0.22401491700293263,None,None,None,,,,,,,,,,,0,0,0,0,0,33,33,33,156.11448570799985,,,,,,,,,,,,,,,,,,,,,,155.97455420799815,155.9747755829958,156.1095560409958,156.11448570799985,156.11448570799985,156.11448570799985,156.11448570799985,159.11008745799336,159.11008745799336,159.97807945800014,1,1,0.8633300829969812,0.22401491700293263,None,159.97823816599703,159.9782835829974,None,159.97833266599628,159.9783647909935,None,,,,,,,,,,,2,7,1,1,2025-01-28_14h05.30.462,rtmindeye,2024.2.3,None,2025-01-28 14h05.48.901066 -0500
all_stimuli/MST_pairs1/pair_34_nsd_875_1_cocoid_67762.png,34,0,34,34,0,,,,0,0,1,7,1,"[9, 21, 31, 45, 56, 68, 69]",1,1,1.4346977079985663,0.22401287499815226,None,None,None,,,,,,,,,,,0,0,0,0,0,34,34,34,160.0402513329973,,,,,,,,,,,,,,,,,,,,,,159.97870337499626,159.97885079099797,160.0369756250002,160.0402513329973,160.0402513329973,160.0402513329973,160.0402513329973,163.0267673749986,163.0267673749986,163.98983116599993,1,1,1.4346977079985663,0.22401287499815226,None,163.9900489579959,163.99011579099897,None,163.99022562499886,163.99027104099514,None,,,,,,,,,,,2,7,1,1,2025-01-28_14h05.30.462,rtmindeye,2024.2.3,None,2025-01-28 14h05.48.901066 -0500
all_stimuli/MST_pairs1/pair_12_16_78.png,35,0,35,35,0,,,,1,0,1,7,1,"[9, 21, 31, 45, 56, 68, 69]",1,0,1.7547132920008153,0.18499058300221805,None,None,None,,,,,,,,,,,0,0,0,0,0,35,35,35,164.04224262499338,,,,,,,,,,,,,,,,,,,,,,163.9907370410001,163.99090416599938,164.03865758299798,164.04224262499338,164.04224262499338,164.04224262499338,164.04224262499338,167.04003554099472,167.04003554099472,167.99401649999345,1,0,1.7547132920008153,0.18499058300221805,None,167.99418845799664,167.9942470829992,None,167.99429995799437,167.9943359999961,None,,,,,,,,,,,2,7,1,1,2025-01-28_14h05.30.462,rtmindeye,2024.2.3,None,2025-01-28 14h05.48.901066 -0500
all_stimuli/special515/special_4249.jpg,36,0,36,36,0,,,,1,0,1,7,1,"[9, 21, 31, 45, 56, 68, 69]",2,1,1.1367288330002339,0.2809969169975375,None,None,None,,,,,,,,,,,0,0,0,0,0,36,36,36,168.04422408299433,,,,,,,,,,,,,,,,,,,,,,167.99473299999954,167.99492287499743,168.04021316599392,168.04422408299433,168.04422408299433,168.04422408299433,168.04422408299433,171.0397136659958,171.0397136659958,172.0066535829974,2,1,1.1367288330002339,0.2809969169975375,None,172.00694283299526,172.0070257079933,None,172.00717941599578,172.0072438749994,None,,,,,,,,,,,2,7,1,1,2025-01-28_14h05.30.462,rtmindeye,2024.2.3,None,2025-01-28 14h05.48.901066 -0500
all_stimuli/MST_pairs1/pair_42_w_icerink2.jpg,37,0,37,37,0,,,,1,0,1,7,1,"[9, 21, 31, 45, 56, 68, 69]",2,1,2.2565369580042898,0.240007209,None,None,None,,,,,,,,,,,0,0,0,0,0,37,37,37,172.05026820799685,,,,,,,,,,,,,,,,,,,,,,172.0078377,172.0080763,172.04525129099784,172.05026820799685,172.05026820799685,172.05026820799685,172.05026820799685,175.04509024999425,175.04509024999425,176.01060162499925,2,1,2.2565369580042898,0.240007209,None,176.01078254099411,176.01083766599913,None,176.0108989579967,176.01093479099654,None,,,,,,,,,,,2,7,1,1,2025-01-28_14h05.30.462,rtmindeye,2024.2.3,None,2025-01-28 14h05.48.901066 -0500
all_stimuli/shared1000_notspecial/notspecial_70038.png,38,0,38,38,0,,,,0,0,1,7,1,"[9, 21, 31, 45, 56, 68, 69]",1,1,0.9424050000015995,0.19500141699973028,None,None,None,,,,,,,,,,,0,0,0,0,0,38,38,38,176.09146916600002,,,,,,,,,,,,,,,,,,,,,,176.01134129099955,176.01154479099932,176.08621620799386,176.09146916600002,176.09146916600002,176.09146916600002,176.09146916600002,179.0899394579974,179.0899394579974,180.02350787499745,1,1,0.9424050000015995,0.19500141699973028,None,180.0239002909948,180.02400824999495,None,180.02411887500057,180.02421337499982,None,,,,,,,,,,,2,7,1,1,2025-01-28_14h05.30.462,rtmindeye,2024.2.3,None,2025-01-28 14h05.48.901066 -0500
all_stimuli/special515/special_53155.jpg,39,0,39,39,0,,,,0,0,1,7,1,"[9, 21, 31, 45, 56, 68, 69]",1,1,1.2819848750004894,0.20898400000442052,None,None,None,,,,,,,,,,,0,0,0,0,0,39,39,39,180.0719225829962,,,,,,,,,,,,,,,,,,,,,,180.02497070800018,180.0252777909991,180.06752124999912,180.0719225829962,180.0719225829962,180.0719225829962,180.0719225829962,183.07413612499658,183.07413612499658,184.02756658299768,1,1,1.2819848750004894,0.20898400000442052,None,184.02773341599823,184.02778508299525,None,184.02784062499995,184.0278766249976,None,,,,,,,,,,,2,7,1,1,2025-01-28_14h05.30.462,rtmindeye,2024.2.3,None,2025-01-28 14h05.48.901066 -0500
all_stimuli/special515/special_24530.jpg,40,0,40,40,0,,,,1,0,1,7,1,"[9, 21, 31, 45, 56, 68, 69]",2,1,1.2108075830037706,0.24088320899318205,None,None,None,,,,,,,,,,,0,0,0,0,0,40,40,40,184.10921333299484,,,,,,,,,,,,,,,,,,,,,,184.02824458299438,184.0284082500002,184.1009251659998,184.10921333299484,184.10921333299484,184.10921333299484,184.10921333299484,187.1062721249982,187.1062721249982,188.04084283299744,2,1,1.2108075830037706,0.24088320899318205,None,188.04110433299502,188.04118316599488,None,188.04126541599544,188.0413242909999,None,,,,,,,,,,,2,7,1,1,2025-01-28_14h05.30.462,rtmindeye,2024.2.3,None,2025-01-28 14h05.48.901066 -0500
all_stimuli/special515/special_32232.jpg,41,0,41,41,0,,,,0,0,1,7,1,"[9, 21, 31, 45, 56, 68, 69]",2,0,1.0788745829995605,0.2319260000003851,None,None,None,,,,,,,,,,,0,0,0,0,0,41,41,41,188.08912304099795,,,,,,,,,,,,,,,,,,,,,,188.04205283299962,188.0423709999959,188.08487337499537,188.08912304099795,188.08912304099795,188.08912304099795,188.08912304099795,191.0784245409959,191.0784245409959,192.04443833299592,2,0,1.0788745829995605,0.2319260000003851,None,192.04459449999558,192.04464974999428,None,192.04469795799378,192.04473345799488,None,,,,,,,,,,,2,7,1,1,2025-01-28_14h05.30.462,rtmindeye,2024.2.3,None,2025-01-28 14h05.48.901066 -0500
all_stimuli/special515/special_41814.jpg,42,0,42,42,0,,,,0,0,1,7,1,"[9, 21, 31, 45, 56, 68, 69]",1,1,1.193065708001086,0.18797649999760324,None,None,None,,,,,,,,,,,0,0,0,0,0,42,42,42,192.08679995800048,,,,,,,,,,,,,,,,,,,,,,192.04510074999416,192.04527412499738,192.08174116599548,192.08679995800048,192.08679995800048,192.08679995800048,192.08679995800048,195.09052508299646,195.09052508299646,196.0567435829944,1,1,1.193065708001086,0.18797649999760324,None,196.0569933749939,196.0570661659949,None,196.05713908299367,196.05720962499618,None,,,,,,,,,,,2,7,1,1,2025-01-28_14h05.30.462,rtmindeye,2024.2.3,None,2025-01-28 14h05.48.901066 -0500
all_stimuli/shared1000_notspecial/notspecial_23883.png,43,0,43,43,0,,,,0,0,1,7,1,"[9, 21, 31, 45, 56, 68, 69]",1,1,1.1099628750016564,0.1829772499986575,None,None,None,,,,,,,,,,,0,0,0,0,0,43,43,43,196.14800483299769,,,,,,,,,,,,,,,,,,,,,,196.05779662499845,196.05801358299504,196.14054529099667,196.14800483299769,196.14800483299769,196.14800483299769,196.14800483299769,199.14202091599873,199.14202091599873,200.0608761659969,1,1,1.1099628750016564,0.1829772499986575,None,200.0610511249979,200.0610927079979,None,200.06114033299673,200.06117241599713,None,,,,,,,,,,,2,7,1,1,2025-01-28_14h05.30.462,rtmindeye,2024.2.3,None,2025-01-28 14h05.48.901066 -0500
all_stimuli/shared1000_notspecial/notspecial_4436.png,44,0,44,44,0,,,,0,0,1,7,1,"[9, 21, 31, 45, 56, 68, 69]",1,1,1.3491794169967761,0.28795287500543054,None,None,None,,,,,,,,,,,0,0,0,0,0,44,44,44,200.13683345799654,,,,,,,,,,,,,,,,,,,,,,200.06155687499995,200.06171012499544,200.13264079099463,200.13683345799654,200.13683345799654,200.13683345799654,200.13683345799654,203.1274867079992,203.1274867079992,204.07319366599404,1,1,1.3491794169967761,0.28795287500543054,None,204.07340737499908,204.07347433299583,None,204.07353899999725,204.07358766599646,None,,,,,,,,,,,2,7,1,1,2025-01-28_14h05.30.462,rtmindeye,2024.2.3,None,2025-01-28 14h05.48.901066 -0500
blank.jpg,45,1,45,45,0,,,,0,0,1,7,1,"[9, 21, 31, 45, 56, 68, 69]",None,0,,,None,None,None,,,,,,,,,,,0,0,0,0,0,45,45,45,204.11990845800028,,,,,,,,,,,,,,,,,,,,,,204.0741088750001,204.07428795799933,204.11428037499718,204.11990845800028,204.11990845800028,204.11990845800028,204.11990845800028,207.10999808299675,207.10999808299675,208.08163174999936,None,0,,,None,208.08173091599747,208.08176795799955,None,208.08180837499822,208.0818374159935,None,,,,,,,,,,,2,7,1,1,2025-01-28_14h05.30.462,rtmindeye,2024.2.3,None,2025-01-28 14h05.48.901066 -0500
all_stimuli/special515/special_61133.jpg,46,0,46,46,0,,,,1,0,1,7,1,"[9, 21, 31, 45, 56, 68, 69]",2,1,1.254464541998459,0.2889862079973682,None,None,None,,,,,,,,,,,0,0,0,0,0,46,46,46,208.13454508299765,,,,,,,,,,,,,,,,,,,,,,208.0821499579979,208.08228879099624,208.12890291599615,208.13454508299765,208.13454508299765,208.13454508299765,208.13454508299765,211.13996441599738,211.13996441599738,212.0899738329972,2,1,1.254464541998459,0.2889862079973682,None,212.09018920800008,212.09027487499407,None,212.09033020799689,212.09036624999862,None,,,,,,,,,,,2,7,1,1,2025-01-28_14h05.30.462,rtmindeye,2024.2.3,None,2025-01-28 14h05.48.901066 -0500
all_stimuli/MST_pairs1/pair_24_nsd_158_2_cocoid_3673.png,47,0,47,47,0,,,,0,0,1,7,1,"[9, 21, 31, 45, 56, 68, 69]",1,1,1.2400748750005732,0.21904074999474688,None,None,None,,,,,,,,,,,0,0,0,0,0,47,47,47,212.15290145799372,,,,,,,,,,,,,,,,,,,,,,212.0907544579968,212.09135254099965,212.14962149999337,212.15290145799372,212.15290145799372,212.15290145799372,212.15290145799372,215.15692099999433,215.15692099999433,216.0941359579956,1,1,1.2400748750005732,0.21904074999474688,None,216.0943240409979,216.09437149999576,None,216.09442199999467,216.0944537079995,None,,,,,,,,,,,2,7,1,1,2025-01-28_14h05.30.462,rtmindeye,2024.2.3,None,2025-01-28 14h05.48.901066 -0500
all_stimuli/MST_pairs1/pair_34_nsd_875_2_cocoid_72398.png,48,0,48,48,0,,,,0,0,1,7,1,"[9, 21, 31, 45, 56, 68, 69]",1,1,1.2154126669993275,0.18096762499772012,None,None,None,,,,,,,,,,,0,0,0,0,0,48,48,48,216.18062016600015,,,,,,,,,,,,,,,,,,,,,,216.09484666599747,216.09501974999876,216.17745858299895,216.18062016600015,216.18062016600015,216.18062016600015,216.18062016600015,219.17653995799628,219.17653995799628,220.10645487500005,1,1,1.2154126669993275,0.18096762499772012,None,220.10657874999742,220.10662570799468,None,220.10666708299686,220.10669566599972,None,,,,,,,,,,,2,7,1,1,2025-01-28_14h05.30.462,rtmindeye,2024.2.3,None,2025-01-28 14h05.48.901066 -0500
all_stimuli/shared1000_notspecial/notspecial_51965.png,49,0,49,49,0,,,,0,0,1,7,1,"[9, 21, 31, 45, 56, 68, 69]",1,1,1.105141125000955,0.26495266600250034,None,None,None,,,,,,,,,,,0,0,0,0,0,49,49,49,220.19088404099602,,,,,,,,,,,,,,,,,,,,,,220.1069905829936,220.10709633299848,220.18732516599994,220.19088404099602,220.19088404099602,220.19088404099602,220.19088404099602,223.17710924999847,223.17710924999847,224.1103168749978,1,1,1.105141125000955,0.26495266600250034,None,224.11049295799603,224.11054608300037,None,224.1105955,224.11063270799787,None,,,,,,,,,,,2,7,1,1,2025-01-28_14h05.30.462,rtmindeye,2024.2.3,None,2025-01-28 14h05.48.901066 -0500
all_stimuli/MST_pairs1/pair_30_nsd_676_1_cocoid_48729.png,50,0,50,50,0,,,,0,0,1,7,1,"[9, 21, 31, 45, 56, 68, 69]",1,1,0.9888507089999621,0.21701591599412495,None,None,None,,,,,,,,,,,0,0,0,0,0,50,50,50,224.16121870799543,,,,,,,,,,,,,,,,,,,,,,224.11100370799977,224.11115508299554,224.15836354099883,224.16121870799543,224.16121870799543,224.16121870799543,224.16121870799543,227.1575532909992,227.1575532909992,228.12328620799963,1,1,0.9888507089999621,0.21701591599412495,None,228.12347266599681,228.1235444999984,None,228.12360449999687,228.12364700000035,None,,,,,,,,,,,2,7,1,1,2025-01-28_14h05.30.462,rtmindeye,2024.2.3,None,2025-01-28 14h05.48.901066 -0500
all_stimuli/shared1000_notspecial/notspecial_52328.png,51,0,51,51,0,,,,0,0,1,7,1,"[9, 21, 31, 45, 56, 68, 69]",1,1,1.449492084000667,0.21400145799998427,None,None,None,,,,,,,,,,,0,0,0,0,0,51,51,51,228.20254854099767,,,,,,,,,,,,,,,,,,,,,,228.12413737499446,228.12431749999814,228.1988438749977,228.20254854099767,228.20254854099767,228.20254854099767,228.20254854099767,231.19376483299857,231.19376483299857,232.12554508299945,1,1,1.449492084000667,0.21400145799998427,None,232.12566204099858,232.12569808300032,None,232.12574437500007,232.1257737909982,None,,,,,,,,,,,2,7,1,1,2025-01-28_14h05.30.462,rtmindeye,2024.2.3,None,2025-01-28 14h05.48.901066 -0500
all_stimuli/MST_pairs1/pair_4_6_44.png,52,0,52,52,0,,,,0,0,1,7,1,"[9, 21, 31, 45, 56, 68, 69]",1,1,1.3914189170027385,0.23008291599398945,None,None,None,,,,,,,,,,,0,0,0,0,0,52,52,52,232.2155786250005,,,,,,,,,,,,,,,,,,,,,,232.12608824999916,232.12618258299335,232.21174133299792,232.2155786250005,232.2155786250005,232.2155786250005,232.2155786250005,235.21055891599826,235.21055891599826,236.12841024999943,1,1,1.3914189170027385,0.23008291599398945,None,236.1285359159956,236.1285732499964,None,236.12861429099576,236.12864495800022,None,,,,,,,,,,,2,7,1,1,2025-01-28_14h05.30.462,rtmindeye,2024.2.3,None,2025-01-28 14h05.48.901066 -0500
all_stimuli/MST_pairs1/pair_48_w_runway1.jpg,53,0,53,53,0,,,,0,0,1,7,1,"[9, 21, 31, 45, 56, 68, 69]",2,0,2.6337097920040833,0.21300641699781409,None,None,None,,,,,,,,,,,0,0,0,0,0,53,53,53,236.1732052909938,,,,,,,,,,,,,,,,,,,,,,236.12897204099863,236.1290752079949,236.1684112909934,236.1732052909938,236.1732052909938,236.1732052909938,236.1732052909938,239.1603113329984,239.1603113329984,240.14007537499856,2,0,2.6337097920040833,0.21300641699781409,None,240.1402812499946,240.14034399999946,None,240.14043966600002,240.1404871659979,None,,,,,,,,,,,2,7,1,1,2025-01-28_14h05.30.462,rtmindeye,2024.2.3,None,2025-01-28 14h05.48.901066 -0500
all_stimuli/special515/special_40840.jpg,54,0,54,54,0,,,,1,0,1,7,1,"[9, 21, 31, 45, 56, 68, 69]",1,0,1.2546054589984124,0.20296099999541184,None,None,None,,,,,,,,,,,0,0,0,0,0,54,54,54,240.19846420799877,,,,,,,,,,,,,,,,,,,,,,240.14090145799855,240.1410632499974,240.19441391599685,240.19846420799877,240.19846420799877,240.19846420799877,240.19846420799877,243.19354033299896,243.19354033299896,244.14380641599564,1,0,1.2546054589984124,0.20296099999541184,None,244.1439143749958,244.14395108299504,None,244.14399220799532,244.14402183299535,None,,,,,,,,,,,2,7,1,1,2025-01-28_14h05.30.462,rtmindeye,2024.2.3,None,2025-01-28 14h05.48.901066 -0500
all_stimuli/shared1000_notspecial/notspecial_12487.png,55,0,55,55,0,,,,0,0,1,7,1,"[9, 21, 31, 45, 56, 68, 69]",None,0,,,['1'],None,None,[0.8100445829986711],[0.2330740839970531],,,,,,,,,0,0,0,0,0,55,55,55,244.21296558299946,,,,,,,,,,,,,,,,,,,,,,244.1443178329937,244.14440970799478,244.20904716599762,244.21296558299946,244.21296558299946,244.21296558299946,244.21296558299946,247.21057199999632,247.21057199999632,248.1568834159989,None,0,,,['1'],248.15723883299506,248.15737166599865,None,248.15745262499695,248.15751191599702,None,[0.8100445829986711],[0.2330740839970531],,,,,,,,,2,7,1,1,2025-01-28_14h05.30.462,rtmindeye,2024.2.3,None,2025-01-28 14h05.48.901066 -0500
blank.jpg,56,1,56,56,0,,,,0,0,1,7,1,"[9, 21, 31, 45, 56, 68, 69]",None,0,,,None,None,None,,,,,,,,,,,0,0,0,0,0,56,56,56,248.2175224579987,,,,,,,,,,,,,,,,,,,,,,248.15808837499935,248.15835520799737,248.2127231659979,248.2175224579987,248.2175224579987,248.2175224579987,248.2175224579987,251.21101083299436,251.21101083299436,252.15881824999815,None,0,,,None,252.15891983299662,252.15895699999965,None,252.15899766599614,252.1590271249952,None,,,,,,,,,,,2,7,1,1,2025-01-28_14h05.30.462,rtmindeye,2024.2.3,None,2025-01-28 14h05.48.901066 -0500
all_stimuli/MST_pairs1/pair_16_20_0.png,57,0,57,57,0,,,,1,0,1,7,1,"[9, 21, 31, 45, 56, 68, 69]",2,1,1.1940837090005516,0.285994,None,None,None,,,,,,,,,,,0,0,0,0,0,57,57,57,252.22302920799848,,,,,,,,,,,,,,,,,,,,,,252.15935066599923,252.1594499999992,252.21989458299504,252.22302920799848,252.22302920799848,252.22302920799848,252.22302920799848,255.21119374999398,255.21119374999398,256.1743131,2,1,1.1940837090005516,0.285994,None,256.1745033749976,256.1745509579996,None,256.1746059579964,256.1746405,None,,,,,,,,,,,2,7,1,1,2025-01-28_14h05.30.462,rtmindeye,2024.2.3,None,2025-01-28 14h05.48.901066 -0500
all_stimuli/shared1000_notspecial/notspecial_12685.png,58,0,58,58,0,,,,0,0,1,7,1,"[9, 21, 31, 45, 56, 68, 69]",1,1,1.2344767500035232,0.19403299999976298,None,None,None,,,,,,,,,,,0,0,0,0,0,58,58,58,256.2565544159952,,,,,,,,,,,,,,,,,,,,,,256.1750113,256.1751973329956,256.2529086249997,256.2565544159952,256.2565544159952,256.2565544159952,256.2565544159952,259.24451966599736,259.24451966599736,260.1778234999947,1,1,1.2344767500035232,0.19403299999976298,None,260.1779335409956,260.17796920799447,None,260.1780087909938,260.1780382910001,None,,,,,,,,,,,2,7,1,1,2025-01-28_14h05.30.462,rtmindeye,2024.2.3,None,2025-01-28 14h05.48.901066 -0500
all_stimuli/MST_pairs1/pair_36_nsd_949_2_cocoid_60031.png,59,0,59,59,0,,,,0,0,1,7,1,"[9, 21, 31, 45, 56, 68, 69]",None,0,,,['2'],None,None,[3.481317208999826],[0.27997687499737367],,,,,,,,,0,0,0,0,0,59,59,59,260.2317729999995,,,,,,,,,,,,,,,,,,,,,,260.17834679099906,260.17844958299975,260.2284737079972,260.2317729999995,260.2317729999995,260.2317729999995,260.2317729999995,263.22699020799337,263.22699020799337,264.19015858299827,None,0,,,['2'],264.19043966599565,264.1905024160005,None,264.19060270799673,264.1906715410005,None,[3.481317208999826],[0.27997687499737367],,,,,,,,,2,7,1,1,2025-01-28_14h05.30.462,rtmindeye,2024.2.3,None,2025-01-28 14h05.48.901066 -0500
all_stimuli/shared1000_notspecial/notspecial_34068.png,60,0,60,60,0,,,,0,0,1,7,1,"[9, 21, 31, 45, 56, 68, 69]",1,1,0.9843768749997253,0.20506079200276872,None,None,None,,,,,,,,,,,0,0,0,0,0,60,60,60,264.25968133299466,,,,,,,,,,,,,,,,,,,,,,264.1911234999934,264.1912917,264.2564061659941,264.25968133299466,264.25968133299466,264.25968133299466,264.25968133299466,267.2566489999954,267.2566489999954,268.2070852079996,1,1,0.9843768749997253,0.20506079200276872,None,268.20742391599924,268.2075022499994,None,268.2075893329966,268.20764545799466,None,,,,,,,,,,,2,7,1,1,2025-01-28_14h05.30.462,rtmindeye,2024.2.3,None,2025-01-28 14h05.48.901066 -0500
all_stimuli/special515/special_11159.jpg,61,0,61,61,0,,,,0,0,1,7,1,"[9, 21, 31, 45, 56, 68, 69]",1,1,0.9925816249960917,0.1919254579988774,None,None,None,,,,,,,,,,,0,0,0,0,0,61,61,61,268.2594822499959,,,,,,,,,,,,,,,,,,,,,,268.20830779099924,268.2086129579984,268.2549668329957,268.2594822499959,268.2594822499959,268.2594822499959,268.2594822499959,271.2574715409937,271.2574715409937,272.21025954099605,1,1,0.9925816249960917,0.1919254579988774,None,272.21038670800044,272.21042941599444,None,272.21047949999775,272.2105082499984,None,,,,,,,,,,,2,7,1,1,2025-01-28_14h05.30.462,rtmindeye,2024.2.3,None,2025-01-28 14h05.48.901066 -0500
all_stimuli/MST_pairs1/pair_34_nsd_875_2_cocoid_72398.png,62,0,62,62,0,,,,1,0,1,7,1,"[9, 21, 31, 45, 56, 68, 69]",2,1,1.1565608750024694,0.2310073749977164,None,None,None,,,,,,,,,,,0,0,0,0,0,62,62,62,272.2665195409936,,,,,,,,,,,,,,,,,,,,,,272.2108294999998,272.2109297909992,272.26317891600047,272.2665195409936,272.2665195409936,272.2665195409936,272.2665195409936,275.26061904099333,275.26061904099333,276.223316,2,1,1.1565608750024694,0.2310073749977164,None,276.22349837499496,276.22356204099924,None,276.2236156,276.22365095799614,None,,,,,,,,,,,2,7,1,1,2025-01-28_14h05.30.462,rtmindeye,2024.2.3,None,2025-01-28 14h05.48.901066 -0500
all_stimuli/special515/special_67742.jpg,63,0,63,63,0,,,,0,0,1,7,1,"[9, 21, 31, 45, 56, 68, 69]",1,1,1.4803342499944847,0.19592645800003083,None,None,None,,,,,,,,,,,0,0,0,0,0,63,63,63,276.2717937499983,,,,,,,,,,,,,,,,,,,,,,276.2240939999974,276.224268,276.2680823329938,276.2717937499983,276.2717937499983,276.2717937499983,276.2717937499983,279.2609799159982,279.2609799159982,280.22471974999644,1,1,1.4803342499944847,0.19592645800003083,None,280.2250892909942,280.2251909159968,None,280.2252930409959,280.2253717909989,None,,,,,,,,,,,2,7,1,1,2025-01-28_14h05.30.462,rtmindeye,2024.2.3,None,2025-01-28 14h05.48.901066 -0500
all_stimuli/MST_pairs1/pair_48_w_runway2.jpg,64,0,64,64,0,,,,0,0,1,7,1,"[9, 21, 31, 45, 56, 68, 69]",1,1,1.4228835419999086,0.1950590410051518,None,None,None,,,,,,,,,,,0,0,0,0,0,64,64,64,280.2841986249987,,,,,,,,,,,,,,,,,,,,,,280.2262003329961,280.22657875000004,280.2803762909971,280.2841986249987,280.2841986249987,280.2841986249987,280.2841986249987,283.2773500829935,283.2773500829935,284.22700070800056,1,1,1.4228835419999086,0.1950590410051518,None,284.2272165,284.2272750409975,None,284.2273349,284.2273708,None,,,,,,,,,,,2,7,1,1,2025-01-28_14h05.30.462,rtmindeye,2024.2.3,None,2025-01-28 14h05.48.901066 -0500
all_stimuli/MST_pairs1/pair_40_w_escalator1.jpg,65,0,65,65,0,,,,0,0,1,7,1,"[9, 21, 31, 45, 56, 68, 69]",1,1,1.6979163750002044,0.20299862500542076,None,None,None,,,,,,,,,,,0,0,0,0,0,65,65,65,284.28616187499574,,,,,,,,,,,,,,,,,,,,,,284.2278204999966,284.2280822909961,284.2806617909955,284.28616187499574,284.28616187499574,284.28616187499574,284.28616187499574,287.29043633299443,287.29043633299443,288.2401169579971,1,1,1.6979163750002044,0.20299862500542076,None,288.24034141599986,288.24041008299537,None,288.2405291659961,288.24061499999516,None,,,,,,,,,,,2,7,1,1,2025-01-28_14h05.30.462,rtmindeye,2024.2.3,None,2025-01-28 14h05.48.901066 -0500
all_stimuli/special515/special_62228.jpg,66,0,66,66,0,,,,1,0,1,7,1,"[9, 21, 31, 45, 56, 68, 69]",2,1,0.9445647090033162,0.30592895799782127,None,None,None,,,,,,,,,,,0,0,0,0,0,66,66,66,288.2905829999945,,,,,,,,,,,,,,,,,,,,,,288.2412005829974,288.24142695799674,288.28658658299537,288.2905829999945,288.2905829999945,288.2905829999945,288.2905829999945,291.27725354099675,291.27725354099675,292.24418049999804,2,1,0.9445647090033162,0.30592895799782127,None,292.2442946249939,292.24433112499537,None,292.24437154099724,292.2444008329985,None,,,,,,,,,,,2,7,1,1,2025-01-28_14h05.30.462,rtmindeye,2024.2.3,None,2025-01-28 14h05.48.901066 -0500
all_stimuli/MST_pairs1/pair_26_nsd_483_2_cocoid_8054.png,67,0,67,67,0,,,,0,0,1,7,1,"[9, 21, 31, 45, 56, 68, 69]",1,1,1.9633770840009674,0.207033708,None,None,None,,,,,,,,,,,0,0,0,0,0,67,67,67,292.30078774999856,,,,,,,,,,,,,,,,,,,,,,292.2447158,292.24483491599676,292.29794595799467,292.30078774999856,292.30078774999856,292.30078774999856,292.30078774999856,295.2935112,295.2935112,296.2567350409954,1,1,1.9633770840009674,0.207033708,None,296.2569645409967,296.2570428,None,296.25717708299635,296.25725029099704,None,,,,,,,,,,,2,7,1,1,2025-01-28_14h05.30.462,rtmindeye,2024.2.3,None,2025-01-28 14h05.48.901066 -0500
blank.jpg,68,1,68,68,0,,,,0,0,1,7,1,"[9, 21, 31, 45, 56, 68, 69]",None,0,,,None,None,None,,,,,,,,,,,0,0,0,0,0,68,68,68,296.30383870799415,,,,,,,,,,,,,,,,,,,,,,296.25787991599645,296.2581565829969,296.29999529099587,296.30383870799415,296.30383870799415,296.30383870799415,296.30383870799415,299.2934639159939,299.2934639159939,300.2611315,None,0,,,None,300.26129191599466,300.2613395829976,None,300.2613900829965,300.2614252909989,None,,,,,,,,,,,2,7,1,1,2025-01-28_14h05.30.462,rtmindeye,2024.2.3,None,2025-01-28 14h05.48.901066 -0500
blank.jpg,69,1,69,69,0,,,,0,1,1,7,0,"[9, 21, 31, 45, 56, 68, 69]",None,0,,,None,1,equal,,,10.464339792000828,None,18.70589845899667,None,,,,,0,0,0,0,0,69,69,69,300.2905255000005,,,,,,,,,,,,,,,,,,,,,,300.26184004099923,300.2620398750005,300.28538858299726,300.2905255000005,300.2905255000005,300.2905255000005,300.2905255000005,303.2773262079936,303.2773262079936,304.27369024999643,None,0,,,None,304.29417933299555,314.78003029099636,1,314.7800874579989,333.50972249999904,equal,,,304.29790654099634,304.29790654099634,10.464339792000828,None,314.7893339999937,314.7893339999937,18.70589845899667,None,2,7,1,1,2025-01-28_14h05.30.462,rtmindeye,2024.2.3,None,2025-01-28 14h05.48.901066 -0500
,,,0,0,0,,,,,,,,,,,,,,,,,,,,,,,,,,,0,0,0,0,,,,,,,,,,,,,,,,,,,,,,,,,,,,,,,,,,,,,,,,,,,,,,,,,,,,,,,,,,2,7,1,1,2025-01-28_14h05.30.462,rtmindeye,2024.2.3,None,2025-01-28 14h05.48.901066 -0500
all_stimuli/shared1000_notspecial/notspecial_19672.png,0,0,0,0,0,,,,0,0,2,7,1,"[9, 21, 31, 45, 56, 68, 69]",1,1,1.1087274579986115,0.21301525000308175,None,None,None,,,,,,,,,,,1,0,1,0,0,0,0,0,333.69943308299844,,,,,,,,,,,,,,,,,,,,,,333.61548558299546,333.61589499999536,333.6923626659991,333.69943308299844,333.69943308299844,333.69943308299844,333.69943308299844,336.70680820800044,336.70680820800044,337.62351708299684,1,1,1.1087274579986115,0.21301525000308175,None,337.62371974999405,337.62382774999423,None,337.6239070409938,337.62396312499914,None,,,,,,,,,,,2,7,1,1,2025-01-28_14h05.30.462,rtmindeye,2024.2.3,None,2025-01-28 14h05.48.901066 -0500
all_stimuli/special515/special_55526.jpg,1,0,1,1,0,,,,0,0,2,7,1,"[9, 21, 31, 45, 56, 68, 69]",1,1,1.2820197500041104,0.18507149999641115,None,None,None,,,,,,,,,,,1,0,1,0,0,1,1,1,337.6791249159942,,,,,,,,,,,,,,,,,,,,,,337.62443508299475,337.62460683300014,337.67516491599963,337.6791249159942,337.6791249159942,337.6791249159942,337.6791249159942,340.6901689160004,340.6901689160004,341.62848758299515,1,1,1.2820197500041104,0.18507149999641115,None,341.62866595800006,341.62872229099594,None,341.6287741,341.6288171,None,,,,,,,,,,,2,7,1,1,2025-01-28_14h05.30.462,rtmindeye,2024.2.3,None,2025-01-28 14h05.48.901066 -0500
all_stimuli/MST_pairs1/pair_22_nsd_115_1_cocoid_8171.png,2,0,2,2,0,,,,0,0,2,7,1,"[9, 21, 31, 45, 56, 68, 69]",2,0,1.1063630420030677,0.2850160000016331,None,None,None,,,,,,,,,,,1,0,1,0,0,2,2,2,341.6918696249995,,,,,,,,,,,,,,,,,,,,,,341.6292434999996,341.6294767500003,341.68853274999856,341.6918696249995,341.6918696249995,341.6918696249995,341.6918696249995,344.69025499999407,344.69025499999407,345.64087258299696,2,0,1.1063630420030677,0.2850160000016331,None,345.6410635409993,345.64111520799634,None,345.64116866599943,345.6412068749996,None,,,,,,,,,,,2,7,1,1,2025-01-28_14h05.30.462,rtmindeye,2024.2.3,None,2025-01-28 14h05.48.901066 -0500
all_stimuli/special515/special_13613.jpg,3,0,3,3,0,,,,1,0,2,7,1,"[9, 21, 31, 45, 56, 68, 69]",2,1,0.8537255839983118,0.2590259580028942,None,None,None,,,,,,,,,,,1,0,1,0,0,3,3,3,345.68944091599406,,,,,,,,,,,,,,,,,,,,,,345.6416444159986,345.6419027909942,345.6848084999947,345.68944091599406,345.68944091599406,345.68944091599406,345.68944091599406,348.67741991599905,348.67741991599905,349.6445333329975,2,1,0.8537255839983118,0.2590259580028942,None,349.64473491599347,349.64478587499616,None,349.6448400409936,349.64487774999725,None,,,,,,,,,,,2,7,1,1,2025-01-28_14h05.30.462,rtmindeye,2024.2.3,None,2025-01-28 14h05.48.901066 -0500
all_stimuli/shared1000_notspecial/notspecial_28487.png,4,0,4,4,0,,,,0,0,2,7,1,"[9, 21, 31, 45, 56, 68, 69]",1,1,1.3130259170065983,0.2190353329933714,None,None,None,,,,,,,,,,,1,0,1,0,0,4,4,4,349.7212052909963,,,,,,,,,,,,,,,,,,,,,,349.6452935829948,349.6454906250001,349.7175681249937,349.7212052909963,349.7212052909963,349.7212052909963,349.7212052909963,352.71110179099924,352.71110179099924,353.65748016599537,1,1,1.3130259170065983,0.2190353329933714,None,353.6577145409974,353.6577632499975,None,353.65781266599515,353.65784729099687,None,,,,,,,,,,,2,7,1,1,2025-01-28_14h05.30.462,rtmindeye,2024.2.3,None,2025-01-28 14h05.48.901066 -0500
all_stimuli/special515/special_28524.jpg,5,0,5,5,0,,,,1,0,2,7,1,"[9, 21, 31, 45, 56, 68, 69]",2,1,1.4269638339974335,0.28400512500229524,None,None,None,,,,,,,,,,,1,0,1,0,0,5,5,5,353.7011663329977,,,,,,,,,,,,,,,,,,,,,,353.65832895799394,353.6585129159939,353.6962636249955,353.7011663329977,353.7011663329977,353.7011663329977,353.7011663329977,356.6938829999999,356.6938829999999,357.6603998749997,2,1,1.4269638339974335,0.28400512500229524,None,357.66061012499995,357.6606623749976,None,357.6607153329969,357.6607508,None,,,,,,,,,,,2,7,1,1,2025-01-28_14h05.30.462,rtmindeye,2024.2.3,None,2025-01-28 14h05.48.901066 -0500
all_stimuli/MST_pairs1/pair_44_w_log_cabin1.jpg,6,0,6,6,0,,,,0,0,2,7,1,"[9, 21, 31, 45, 56, 68, 69]",2,0,0.8896831250021933,0.250986291,None,None,None,,,,,,,,,,,1,0,1,0,0,6,6,6,357.70655954099493,,,,,,,,,,,,,,,,,,,,,,357.6611482909939,357.6613142499991,357.7029221249977,357.70655954099493,357.70655954099493,357.70655954099493,357.70655954099493,360.6939970409949,360.6939970409949,361.6736081249983,2,0,0.8896831250021933,0.250986291,None,361.67383616599545,361.67391037500056,None,361.6739836659981,361.67411145799997,None,,,,,,,,,,,2,7,1,1,2025-01-28_14h05.30.462,rtmindeye,2024.2.3,None,2025-01-28 14h05.48.901066 -0500
