current_image,trial_index,is_blank_trial,thisN,thisTrialN,thisRepN,press_if_repeat_2.keys,press_if_repeat_2.corr,all_keys_pressed_2.keys,is_repeat,is_new_run,run_num,sess_num,is_not_last_trial,all_blanks_list,press_if_repeat.keys,press_if_repeat.corr,press_if_repeat.rt,press_if_repeat.duration,all_keys_pressed.keys,key_resp_5.keys,key_resp_4.keys,key_resp_5.rt,key_resp_5.duration,key_resp_4.rt,key_resp_4.duration,practice.thisRepN,practice.thisTrialN,practice.thisN,practice.thisIndex,loop_runs.thisRepN,loop_runs.thisTrialN,loop_runs.thisN,loop_runs.thisIndex,loop_all_images.thisRepN,loop_all_images.thisTrialN,loop_all_images.thisN,loop_all_images.thisIndex,thisRow.t,notes,set_up.started,set_up.stopped,practice_continue.started,key_resp_6.started,text_6.started,practice_continue.stopped,key_resp_6.keys,key_resp_6.rt,key_resp_6.duration,practice_trial.started,image_2.started,press_if_repeat_2.started,polygon_3.started,all_keys_pressed_2.started,image_2.stopped,press_if_repeat_2.stopped,practice_trial.stopped,practice.press_if_repeat_2.keys,practice.press_if_repeat_2.corr,practice.all_keys_pressed_2.keys,set_skips_and_correct_key.started,set_skips_and_correct_key.stopped,trial.started,image.started,press_if_repeat.started,polygon.started,all_keys_pressed.started,image.stopped,press_if_repeat.stopped,trial.stopped,loop_all_images.press_if_repeat.keys,loop_all_images.press_if_repeat.corr,loop_all_images.press_if_repeat.rt,loop_all_images.press_if_repeat.duration,loop_all_images.all_keys_pressed.keys,run_wait2_2.started,run_wait2_2.stopped,loop_all_images.key_resp_5.keys,waiting_fmri_2.started,waiting_fmri_2.stopped,loop_all_images.key_resp_4.keys,polygon.stopped,all_keys_pressed.stopped,key_resp_5.started,text_5.started,loop_all_images.key_resp_5.rt,loop_all_images.key_resp_5.duration,key_resp_4.started,text_4.started,loop_all_images.key_resp_4.rt,loop_all_images.key_resp_4.duration,participant,session (1 2 or 3),starting_run,skip_practice,date,expName,psychopyVersion,frameRate,expStart,,,,,,,,,,,,,,,,,
,,,,,,,,,,,,,,,,,,,,,,,,,,,,,,,,,,,,,,,,0.0016115,0.0016726,,,,,,,,,,,,,,,,,,,,,,,,,,,,,,,,,,,,,,,,,,,,,,,,,,6,1,0,0,2025-03-10_10h15.35.065,rtmindeye,2024.2.4,59.96746164490693,2025-03-10 10h15.44.995263 -0400,,,,,,,,,,,,,,,,,
,,,,,,,,,,,,,,,,,,,,,,,,,,,,,,,,,,,,,,,,,,0.0071848,0.009528,0.009528,5.841729600215331,1,5.807305200025439,None,,,,,,,,,,,,,,,,,,,,,,,,,,,,,,,,,,,,,,,,,,,6,1,0,0,2025-03-10_10h15.35.065,rtmindeye,2024.2.4,59.96746164490693,2025-03-10 10h15.44.995263 -0400,,,,,,,,,,,,,,,,,
practice_images/w_kitchen2.jpg,0,0,0,0,0,None,0,None,,,,,,,,,,,,,,,,,,0,0,0,0,,,,,,,,,5.911983700003475,,,,,,,,,,,5.907231400022283,5.911983700003475,5.911983700003475,5.911983700003475,5.911983700003475,8.921450300142169,8.921450300142169,9.854334000032395,None,0,None,,,,,,,,,,,,,,,,,,,,,,,,,,,,,,,,6,1,0,0,2025-03-10_10h15.35.065,rtmindeye,2024.2.4,59.96746164490693,2025-03-10 10h15.44.995263 -0400,,,,,,,,,,,,,,,,,
practice_images/w_boardwalk2.jpg,1,0,1,1,0,1,0,None,,,,,,,,,,,,,,,,,,0,1,1,1,,,,,,,,,9.883868500124663,,,,,,,,,,,9.882127000018954,9.883868500124663,9.883868500124663,9.883868500124663,9.883868500124663,12.888096100185066,12.888096100185066,13.854963200166821,1,0,None,,,,,,,,,,,,,,,,,,,,,,,,,,,,,,,,6,1,0,0,2025-03-10_10h15.35.065,rtmindeye,2024.2.4,59.96746164490693,2025-03-10 10h15.44.995263 -0400,,,,,,,,,,,,,,,,,
practice_images/w_monument2.jpg,2,0,2,2,0,1,0,None,,,,,,,,,,,,,,,,,,0,2,2,2,,,,,,,,,13.871046600164846,,,,,,,,,,,13.86863880022429,13.871046600164846,13.871046600164846,13.871046600164846,13.871046600164846,16.871401800075546,16.871401800075546,17.85447010002099,1,0,None,,,,,,,,,,,,,,,,,,,,,,,,,,,,,,,,6,1,0,0,2025-03-10_10h15.35.065,rtmindeye,2024.2.4,59.96746164490693,2025-03-10 10h15.44.995263 -0400,,,,,,,,,,,,,,,,,
practice_images/w_auditorium2.jpg,3,0,3,3,0,1,0,None,,,,,,,,,,,,,,,,,,0,3,3,3,,,,,,,,,17.88523930008523,,,,,,,,,,,17.88360600010492,17.88523930008523,17.88523930008523,17.88523930008523,17.88523930008523,20.888057500123978,20.888057500123978,21.854719000170007,1,0,None,,,,,,,,,,,,,,,,,,,,,,,,,,,,,,,,6,1,0,0,2025-03-10_10h15.35.065,rtmindeye,2024.2.4,59.96746164490693,2025-03-10 10h15.44.995263 -0400,,,,,,,,,,,,,,,,,
practice_images/w_kitchen2.jpg,4,0,4,4,0,1,0,None,,,,,,,,,,,,,,,,,,0,4,4,4,,,,,,,,,21.871033900184557,,,,,,,,,,,21.86907050013542,21.871033900184557,21.871033900184557,21.871033900184557,21.871033900184557,24.871142100077122,24.871142100077122,25.85489430022426,1,0,None,,,,,,,,,,,,,,,,,,,,,,,,,,,,,,,,6,1,0,0,2025-03-10_10h15.35.065,rtmindeye,2024.2.4,59.96746164490693,2025-03-10 10h15.44.995263 -0400,,,,,,,,,,,,,,,,,
practice_images/w_auditorium1.jpg,5,0,5,5,0,1,0,None,,,,,,,,,,,,,,,,,,0,5,5,5,,,,,,,,,25.890152200125158,,,,,,,,,,,25.888506000163034,25.890152200125158,25.890152200125158,25.890152200125158,25.890152200125158,28.90480550006032,28.90480550006032,29.85484020016156,1,0,None,,,,,,,,,,,,,,,,,,,,,,,,,,,,,,,,6,1,0,0,2025-03-10_10h15.35.065,rtmindeye,2024.2.4,59.96746164490693,2025-03-10 10h15.44.995263 -0400,,,,,,,,,,,,,,,,,
practice_images/w_bedroom2.jpg,6,0,6,6,0,1,0,None,,,,,,,,,,,,,,,,,,0,6,6,6,,,,,,,,,29.88225210015662,,,,,,,,,,,29.88062130007893,29.88225210015662,29.88225210015662,29.88225210015662,29.88225210015662,32.88783280015923,32.88783280015923,33.85473920009099,1,0,None,,,,,,,,,,,,,,,,,,,,,,,,,,,,,,,,6,1,0,0,2025-03-10_10h15.35.065,rtmindeye,2024.2.4,59.96746164490693,2025-03-10 10h15.44.995263 -0400,,,,,,,,,,,,,,,,,
practice_images/w_kitchen1.jpg,7,0,7,7,0,1,0,None,,,,,,,,,,,,,,,,,,0,7,7,7,,,,,,,,,33.88803230016492,,,,,,,,,,,33.886416000081226,33.88803230016492,33.88803230016492,33.88803230016492,33.88803230016492,36.88809090014547,36.88809090014547,37.85488640004769,1,0,None,,,,,,,,,,,,,,,,,,,,,,,,,,,,,,,,6,1,0,0,2025-03-10_10h15.35.065,rtmindeye,2024.2.4,59.96746164490693,2025-03-10 10h15.44.995263 -0400,,,,,,,,,,,,,,,,,
practice_images/w_bedroom1.jpg,8,0,8,8,0,2,0,None,,,,,,,,,,,,,,,,,,0,8,8,8,,,,,,,,,37.88869320019148,,,,,,,,,,,37.88711160002276,37.88869320019148,37.88869320019148,37.88869320019148,37.88869320019148,40.88811490009539,40.88811490009539,41.85505790007301,2,0,None,,,,,,,,,,,,,,,,,,,,,,,,,,,,,,,,6,1,0,0,2025-03-10_10h15.35.065,rtmindeye,2024.2.4,59.96746164490693,2025-03-10 10h15.44.995263 -0400,,,,,,,,,,,,,,,,,
practice_images/w_monument2.jpg,9,0,9,9,0,2,0,None,,,,,,,,,,,,,,,,,,0,9,9,9,,,,,,,,,41.87117310008034,,,,,,,,,,,41.86638300004415,41.87117310008034,41.87117310008034,41.87117310008034,41.87117310008034,44.87130140000954,44.87130140000954,45.85466010007076,2,0,None,,,,,,,,,,,,,,,,,,,,,,,,,,,,,,,,6,1,0,0,2025-03-10_10h15.35.065,rtmindeye,2024.2.4,59.96746164490693,2025-03-10 10h15.44.995263 -0400,,,,,,,,,,,,,,,,,
,,,,,,,,,,,,,,,,,,,,,,,,,,,,,,,,,,,,,,,,,,,,,,,,,,,,,,,,,,,,,,,,,,,,,,,,,,,,,,,,,,,,,,,,,,,6,1,0,0,2025-03-10_10h15.35.065,rtmindeye,2024.2.4,59.96746164490693,2025-03-10 10h15.44.995263 -0400,,,,,,,,,,,,,,,,,
,,,,,,,,,,,,,,,,,,,,,,,,,,,,,,,,,,,,,,,,,,,,,,,,,,,,,,,,,,,,,,,,,,,,,,,,,,,,,,,,,,,,,,,,,,,6,1,0,0,2025-03-10_10h15.35.065,rtmindeye,2024.2.4,59.96746164490693,2025-03-10 10h15.44.995263 -0400,,,,,,,,,,,,,,,,,
all_stimuli/special515/special_13613.jpg,0,0,0,0,0,,,,0,0,0,1,1,"[9, 21, 31, 45, 56, 68, 69]",1,1,2.745383400004357,None,None,None,None,,,,,,,,,0,0,0,0,0,0,0,0,200.45817580004223,,,,,,,,,,,,,,,,,,,,,,200.41813120013103,200.41822950006463,200.45475770020857,200.45817580004223,200.45817580004223,200.45817580004223,200.45817580004223,203.47105600009672,203.47105600009672,204.42113760020584,1,1,2.745383400004357,None,None,204.42121100006625,204.42123480001464,None,204.42125860019587,204.4212769002188,None,,,,,,,,,,,6,1,0,0,2025-03-10_10h15.35.065,rtmindeye,2024.2.4,59.96746164490693,2025-03-10 10h15.44.995263 -0400,,,,,,,,,,,,,,,,,
all_stimuli/shared1000_notspecial/notspecial_31049.png,1,0,1,1,0,,,,0,0,0,1,1,"[9, 21, 31, 45, 56, 68, 69]",1,1,0.8572942,0.22593029984273016,None,None,None,,,,,,,,,0,0,0,0,0,1,1,1,204.50835110014305,,,,,,,,,,,,,,,,,,,,,,204.4214344001375,204.4214776000008,204.50501300022006,204.50835110014305,204.50835110014305,204.50835110014305,204.50835110014305,207.52100440021604,207.52100440021604,208.4377813001629,1,1,0.8572942,0.22593029984273016,None,208.43785420013592,208.4378752,None,208.4378985,208.43791620014235,None,,,,,,,,,,,6,1,0,0,2025-03-10_10h15.35.065,rtmindeye,2024.2.4,59.96746164490693,2025-03-10 10h15.44.995263 -0400,,,,,,,,,,,,,,,,,
all_stimuli/special515/special_28096.jpg,2,0,2,2,0,,,,0,0,0,1,1,"[9, 21, 31, 45, 56, 68, 69]",1,1,0.5055730000603944,0.1967770999763161,None,None,None,,,,,,,,,0,0,0,0,0,2,2,2,208.4722576001659,,,,,,,,,,,,,,,,,,,,,,208.43807820021175,208.43812260008417,208.46970750018954,208.4722576001659,208.4722576001659,208.4722576001659,208.4722576001659,211.48721190006472,211.48721190006472,212.45428740000352,1,1,0.5055730000603944,0.1967770999763161,None,212.4543615002185,212.45438290014863,None,212.4544058002066,212.45442340010777,None,,,,,,,,,,,6,1,0,0,2025-03-10_10h15.35.065,rtmindeye,2024.2.4,59.96746164490693,2025-03-10 10h15.44.995263 -0400,,,,,,,,,,,,,,,,,
all_stimuli/shared1000_notspecial/notspecial_68471.png,3,0,3,3,0,,,,0,0,0,1,1,"[9, 21, 31, 45, 56, 68, 69]",1,1,0.4959358999039978,0.14897729991935194,None,None,None,,,,,,,,,0,0,0,0,0,3,3,3,212.5028036001604,,,,,,,,,,,,,,,,,,,,,,212.45457990001887,212.45462360000238,212.50117160007358,212.5028036001604,212.5028036001604,212.5028036001604,212.5028036001604,215.50417470000684,215.50417470000684,216.47125470009632,1,1,0.4959358999039978,0.14897729991935194,None,216.47132630017586,216.47134780022316,None,216.47137130005285,216.47138920007274,None,,,,,,,,,,,6,1,0,0,2025-03-10_10h15.35.065,rtmindeye,2024.2.4,59.96746164490693,2025-03-10 10h15.44.995263 -0400,,,,,,,,,,,,,,,,,
all_stimuli/special515/special_15506.jpg,4,0,4,4,0,,,,0,0,0,1,1,"[9, 21, 31, 45, 56, 68, 69]",1,1,0.6129193000961095,0.2481382000260055,None,None,None,,,,,,,,,0,0,0,0,0,4,4,4,216.52455460000783,,,,,,,,,,,,,,,,,,,,,,216.47154940012842,216.47159280022606,216.52267440012656,216.52455460000783,216.52455460000783,216.52455460000783,216.52455460000783,219.5375345000066,219.5375345000066,220.4876717000734,1,1,0.6129193000961095,0.2481382000260055,None,220.4877462000586,220.4877708000131,None,220.48779480019584,220.48781290021725,None,,,,,,,,,,,6,1,0,0,2025-03-10_10h15.35.065,rtmindeye,2024.2.4,59.96746164490693,2025-03-10 10h15.44.995263 -0400,,,,,,,,,,,,,,,,,
all_stimuli/MST_pairs1/pair_24_nsd_158_1_cocoid_2285.png,5,0,5,5,0,,,,0,0,0,1,1,"[9, 21, 31, 45, 56, 68, 69]",1,1,0.6849760001059622,0.2378658999223262,None,None,None,,,,,,,,,0,0,0,0,0,5,5,5,220.81776580004953,,,,,,,,,,,,,,,,,,,,,,220.48797120014206,220.48801520001143,220.81355890003033,220.81776580004953,220.81776580004953,220.81776580004953,220.81776580004953,223.82098800013773,223.82098800013773,224.5043860001024,1,1,0.6849760001059622,0.2378658999223262,None,224.50445950007997,224.5044809000101,None,224.50450480007567,224.50452300021425,None,,,,,,,,,,,6,1,0,0,2025-03-10_10h15.35.065,rtmindeye,2024.2.4,59.96746164490693,2025-03-10 10h15.44.995263 -0400,,,,,,,,,,,,,,,,,
all_stimuli/MST_pairs1/pair_10_14_89.png,6,0,6,6,0,,,,0,0,0,1,1,"[9, 21, 31, 45, 56, 68, 69]",1,1,0.7970929001457989,0.15884859999641776,None,None,None,,,,,,,,,0,0,0,0,0,6,6,6,224.57160840020515,,,,,,,,,,,,,,,,,,,,,,224.50467970012687,224.50472330022603,224.5682839001529,224.57160840020515,224.57160840020515,224.57160840020515,224.57160840020515,227.57097140001133,227.57097140001133,228.52110920008272,1,1,0.7970929001457989,0.15884859999641776,None,228.5211820001714,228.5212027002126,None,228.52122610015795,228.52124390006065,None,,,,,,,,,,,6,1,0,0,2025-03-10_10h15.35.065,rtmindeye,2024.2.4,59.96746164490693,2025-03-10 10h15.44.995263 -0400,,,,,,,,,,,,,,,,,
all_stimuli/special515/special_62015.jpg,7,0,7,7,0,,,,0,0,0,1,1,"[9, 21, 31, 45, 56, 68, 69]",1,1,0.5848777999635786,0.17892249999567866,None,None,None,,,,,,,,,0,0,0,0,0,7,7,7,228.5508237001486,,,,,,,,,,,,,,,,,,,,,,228.52140710013919,228.52145140012726,228.54895520000719,228.5508237001486,228.5508237001486,228.5508237001486,228.5508237001486,231.5542966001667,231.5542966001667,232.53780550020747,1,1,0.5848777999635786,0.17892249999567866,None,232.53788160020486,232.5379042001441,None,232.5379288000986,232.53794639999978,None,,,,,,,,,,,6,1,0,0,2025-03-10_10h15.35.065,rtmindeye,2024.2.4,59.96746164490693,2025-03-10 10h15.44.995263 -0400,,,,,,,,,,,,,,,,,
all_stimuli/special515/special_47687.jpg,8,0,8,8,0,,,,0,0,0,1,1,"[9, 21, 31, 45, 56, 68, 69]",1,1,0.5949295000173151,0.15590630006045103,None,None,None,,,,,,,,,0,0,0,0,0,8,8,8,232.57473340001889,,,,,,,,,,,,,,,,,,,,,,232.53811310022138,232.5381570002064,232.57285200012848,232.57473340001889,232.57473340001889,232.57473340001889,232.57473340001889,235.58758470020257,235.58758470020257,236.55445260019042,1,1,0.5949295000173151,0.15590630006045103,None,236.5545248000417,236.55454710009508,None,236.55457080015913,236.55458880006336,None,,,,,,,,,,,6,1,0,0,2025-03-10_10h15.35.065,rtmindeye,2024.2.4,59.96746164490693,2025-03-10 10h15.44.995263 -0400,,,,,,,,,,,,,,,,,
blank.jpg,9,1,9,9,0,,,,0,0,0,1,1,"[9, 21, 31, 45, 56, 68, 69]",None,0,,,None,None,None,,,,,,,,,0,0,0,0,0,9,9,9,236.58587190019898,,,,,,,,,,,,,,,,,,,,,,236.5547437001951,236.5547871000599,236.58420660020784,236.58587190019898,236.58587190019898,236.58587190019898,236.58587190019898,239.58771120011806,239.58771120011806,240.57115890015848,None,0,,,None,240.5712266000919,240.57124840002507,None,240.57127250009216,240.57129040011205,None,,,,,,,,,,,6,1,0,0,2025-03-10_10h15.35.065,rtmindeye,2024.2.4,59.96746164490693,2025-03-10 10h15.44.995263 -0400,,,,,,,,,,,,,,,,,
all_stimuli/special515/special_4249.jpg,10,0,10,10,0,,,,0,0,0,1,1,"[9, 21, 31, 45, 56, 68, 69]",1,1,0.6269231,0.24688249989412725,None,None,None,,,,,,,,,0,0,0,0,0,10,10,10,240.60378230013885,,,,,,,,,,,,,,,,,,,,,,240.57145100017078,240.5714947001543,240.6020647000987,240.60378230013885,240.60378230013885,240.60378230013885,240.60378230013885,243.6042991001159,243.6042991001159,244.58777040010318,1,1,0.6269231,0.24688249989412725,None,244.58784740022384,244.58786930004135,None,244.58789390022866,244.58791180001572,None,,,,,,,,,,,6,1,0,0,2025-03-10_10h15.35.065,rtmindeye,2024.2.4,59.96746164490693,2025-03-10 10h15.44.995263 -0400,,,,,,,,,,,,,,,,,
all_stimuli/special515/special_54361.jpg,11,0,11,11,0,,,,0,0,0,1,1,"[9, 21, 31, 45, 56, 68, 69]",1,1,0.8412107001058757,0.24996450007893145,None,None,None,,,,,,,,,0,0,0,0,0,11,11,11,244.6163355000317,,,,,,,,,,,,,,,,,,,,,,244.58807300007902,244.58811710006557,244.61461670021527,244.6163355000317,244.6163355000317,244.6163355000317,244.6163355000317,247.62098080012947,247.62098080012947,248.60430640005507,1,1,0.8412107001058757,0.24996450007893145,None,248.60437930002809,248.60440060007386,None,248.60442440002225,248.60444180015475,None,,,,,,,,,,,6,1,0,0,2025-03-10_10h15.35.065,rtmindeye,2024.2.4,59.96746164490693,2025-03-10 10h15.44.995263 -0400,,,,,,,,,,,,,,,,,
all_stimuli/special515/special_6489.jpg,12,0,12,12,0,,,,0,0,0,1,1,"[9, 21, 31, 45, 56, 68, 69]",1,1,0.7061133000534028,0.32585570006631315,None,None,None,,,,,,,,,0,0,0,0,0,12,12,12,248.63852940010838,,,,,,,,,,,,,,,,,,,,,,248.6045989000704,248.60464260005392,248.63677740003914,248.63852940010838,248.63852940010838,248.63852940010838,248.63852940010838,251.63749950006604,251.63749950006604,252.6210496001877,1,1,0.7061133000534028,0.32585570006631315,None,252.62112450017594,252.62114699999802,None,252.6211704001762,252.6211882000789,None,,,,,,,,,,,6,1,0,0,2025-03-10_10h15.35.065,rtmindeye,2024.2.4,59.96746164490693,2025-03-10 10h15.44.995263 -0400,,,,,,,,,,,,,,,,,
all_stimuli/special515/special_38641.jpg,13,0,13,13,0,,,,0,0,0,1,1,"[9, 21, 31, 45, 56, 68, 69]",1,1,0.5505482000298798,0.1891938999760896,None,None,None,,,,,,,,,0,0,0,0,0,13,13,13,252.65595960011706,,,,,,,,,,,,,,,,,,,,,,252.6213510001544,252.62154170009308,252.65412449999712,252.65595960011706,252.65595960011706,252.65595960011706,252.65595960011706,255.67108890018426,255.67108890018426,256.6376799000427,1,1,0.5505482000298798,0.1891938999760896,None,256.6377553001512,256.63777920021676,None,256.6378044001758,256.63782350020483,None,,,,,,,,,,,6,1,0,0,2025-03-10_10h15.35.065,rtmindeye,2024.2.4,59.96746164490693,2025-03-10 10h15.44.995263 -0400,,,,,,,,,,,,,,,,,
all_stimuli/shared1000_notspecial/notspecial_67168.png,14,0,14,14,0,,,,0,0,0,1,1,"[9, 21, 31, 45, 56, 68, 69]",1,1,0.7577857000287622,0.1852243000175804,None,None,None,,,,,,,,,0,0,0,0,0,14,14,14,256.67268650000915,,,,,,,,,,,,,,,,,,,,,,256.6379875000566,256.6380323001649,256.6710683000274,256.67268650000915,256.67268650000915,256.67268650000915,256.67268650000915,259.68772710021585,259.68772710021585,260.6543112001382,1,1,0.7577857000287622,0.1852243000175804,None,260.65438270010054,260.65440390002914,None,260.65442770021036,260.65444530011155,None,,,,,,,,,,,6,1,0,0,2025-03-10_10h15.35.065,rtmindeye,2024.2.4,59.96746164490693,2025-03-10 10h15.44.995263 -0400,,,,,,,,,,,,,,,,,
all_stimuli/shared1000_notspecial/notspecial_59079.png,15,0,15,15,0,,,,0,0,0,1,1,"[9, 21, 31, 45, 56, 68, 69]",1,1,0.6449535000137985,0.1539290000218898,None,None,None,,,,,,,,,0,0,0,0,0,15,15,15,260.6916423002258,,,,,,,,,,,,,,,,,,,,,,260.6545998000074,260.65464350022376,260.69006210006773,260.6916423002258,260.6916423002258,260.6916423002258,260.6916423002258,263.70410210010596,263.70410210010596,264.6709444001317,1,1,0.6449535000137985,0.1539290000218898,None,264.67101879999973,264.67103970004246,None,264.67106310022064,264.6710807001218,None,,,,,,,,,,,6,1,0,0,2025-03-10_10h15.35.065,rtmindeye,2024.2.4,59.96746164490693,2025-03-10 10h15.44.995263 -0400,,,,,,,,,,,,,,,,,
all_stimuli/MST_pairs1/pair_2_4_89.png,16,0,16,16,0,,,,0,0,0,1,1,"[9, 21, 31, 45, 56, 68, 69]",1,1,0.5670972999650985,0.20480070007033646,None,None,None,,,,,,,,,0,0,0,0,0,16,16,16,264.7156107001938,,,,,,,,,,,,,,,,,,,,,,264.6712412000634,264.67128470004536,264.71396730002016,264.7156107001938,264.7156107001938,264.7156107001938,264.7156107001938,267.7210559002124,267.7210559002124,268.6873427000828,1,1,0.5670972999650985,0.20480070007033646,None,268.68741710018367,268.68743890011683,None,268.6874626001809,268.68748020008206,None,,,,,,,,,,,6,1,0,0,2025-03-10_10h15.35.065,rtmindeye,2024.2.4,59.96746164490693,2025-03-10 10h15.44.995263 -0400,,,,,,,,,,,,,,,,,
all_stimuli/shared1000_notspecial/notspecial_26127.png,17,0,17,17,0,,,,0,0,0,1,1,"[9, 21, 31, 45, 56, 68, 69]",1,1,0.5819265998434275,0.18780519999563694,None,None,None,,,,,,,,,0,0,0,0,0,17,17,17,268.7167534001637,,,,,,,,,,,,,,,,,,,,,,268.6876423000358,268.6876863,268.71512670000084,268.7167534001637,268.7167534001637,268.7167534001637,268.7167534001637,271.72106500016525,271.72106500016525,272.68776590004563,1,1,0.5819265998434275,0.18780519999563694,None,272.68784170015715,272.6878641000949,None,272.6878884001635,272.68790590018034,None,,,,,,,,,,,6,1,0,0,2025-03-10_10h15.35.065,rtmindeye,2024.2.4,59.96746164490693,2025-03-10 10h15.44.995263 -0400,,,,,,,,,,,,,,,,,
all_stimuli/shared1000_notspecial/notspecial_20223.png,18,0,18,18,0,,,,0,0,0,1,1,"[9, 21, 31, 45, 56, 68, 69]",1,1,0.6316052000038326,0.20098410011269152,None,None,None,,,,,,,,,0,0,0,0,0,18,18,18,272.7238930000458,,,,,,,,,,,,,,,,,,,,,,272.68807640019804,272.68812110018916,272.7222927000839,272.7238930000458,272.7238930000458,272.7238930000458,272.7238930000458,275.7375369002111,275.7375369002111,276.70425380021334,1,1,0.6316052000038326,0.20098410011269152,None,276.70432900008745,276.70435050013475,None,276.70437430008315,276.7043918,None,,,,,,,,,,,6,1,0,0,2025-03-10_10h15.35.065,rtmindeye,2024.2.4,59.96746164490693,2025-03-10 10h15.44.995263 -0400,,,,,,,,,,,,,,,,,
all_stimuli/special515/special_62015.jpg,19,0,19,19,0,,,,1,0,0,1,1,"[9, 21, 31, 45, 56, 68, 69]",1,0,0.8455191999673843,0.1748597000259906,None,None,None,,,,,,,,,0,0,0,0,0,19,19,19,276.7210959000513,,,,,,,,,,,,,,,,,,,,,,276.70455250004306,276.7045990000479,276.7148978000041,276.7210959000513,276.7210959000513,276.7210959000513,276.7210959000513,279.7209583001677,279.7209583001677,280.7040016001556,1,0,0.8455191999673843,0.1748597000259906,None,280.70406900020316,280.7040898001287,None,280.70411350019276,280.7041315,None,280.73344710003585,280.73344710003585,,,,,,,,,6,1,0,0,2025-03-10_10h15.35.065,rtmindeye,2024.2.4,59.96746164490693,2025-03-10 10h15.44.995263 -0400,,,,,,,,,,,,,,,,,
all_stimuli/special515/special_10244.jpg,20,0,20,20,0,,,,0,0,0,1,1,"[9, 21, 31, 45, 56, 68, 69]",1,1,0.8621958000585437,0.1740142998751253,None,None,None,,,,,,,,,0,0,0,0,0,20,20,20,280.73344710003585,,,,,,,,,,,,,,,,,,,,,,280.70428690011613,280.70432650018483,280.73160010017455,280.73344710003585,280.73344710003585,280.73344710003585,280.73344710003585,283.7374288002029,283.7374288002029,284.7208667001687,1,1,0.8621958000585437,0.1740142998751253,None,284.72094030003063,284.7209625001997,None,284.72098580002785,284.72100570006296,None,,,,,,,,,,,6,1,0,0,2025-03-10_10h15.35.065,rtmindeye,2024.2.4,59.96746164490693,2025-03-10 10h15.44.995263 -0400,,,,,,,,,,,,,,,,,
blank.jpg,21,1,21,21,0,,,,0,0,0,1,1,"[9, 21, 31, 45, 56, 68, 69]",1,1,1.276242099935189,0.33393710013478994,None,None,None,,,,,,,,,0,0,0,0,0,21,21,21,284.73740490013734,,,,,,,,,,,,,,,,,,,,,,284.72116310009733,284.72120680008084,284.73021460021846,284.73740490013734,284.73740490013734,284.73740490013734,284.73740490013734,287.7375514002051,287.7375514002051,288.7211423001718,1,1,1.276242099935189,0.33393710013478994,None,288.7212092000991,288.7212299001403,None,288.72125420020893,288.72127140010707,None,288.7567157000303,288.7567157000303,,,,,,,,,6,1,0,0,2025-03-10_10h15.35.065,rtmindeye,2024.2.4,59.96746164490693,2025-03-10 10h15.44.995263 -0400,,,,,,,,,,,,,,,,,
all_stimuli/special515/special_28524.jpg,22,0,22,22,0,,,,0,0,0,1,1,"[9, 21, 31, 45, 56, 68, 69]",1,1,0.9987226000521332,0.14720940007828176,None,None,None,,,,,,,,,0,0,0,0,0,22,22,22,288.7567157000303,,,,,,,,,,,,,,,,,,,,,,288.72143320017494,288.72147240000777,288.75501200021245,288.7567157000303,288.7567157000303,288.7567157000303,288.7567157000303,291.7703651001211,291.7703651001211,292.7370231000241,1,1,0.9987226000521332,0.14720940007828176,None,292.73709800001234,292.7371201000642,None,292.7371439000126,292.73716170014814,None,,,,,,,,,,,6,1,0,0,2025-03-10_10h15.35.065,rtmindeye,2024.2.4,59.96746164490693,2025-03-10 10h15.44.995263 -0400,,,,,,,,,,,,,,,,,
all_stimuli/special515/special_30430.jpg,23,0,23,23,0,,,,0,0,0,1,1,"[9, 21, 31, 45, 56, 68, 69]",1,1,0.8435157,0.18103160010650754,None,None,None,,,,,,,,,0,0,0,0,0,23,23,23,292.76912990002893,,,,,,,,,,,,,,,,,,,,,,292.7373230000958,292.73736660019495,292.76728280005045,292.76912990002893,292.76912990002893,292.76912990002893,292.76912990002893,295.7709449001122,295.7709449001122,296.7377027000766,1,1,0.8435157,0.18103160010650754,None,296.73777590016834,296.7377978002187,None,296.7378215000499,296.7378394000698,None,,,,,,,,,,,6,1,0,0,2025-03-10_10h15.35.065,rtmindeye,2024.2.4,59.96746164490693,2025-03-10 10h15.44.995263 -0400,,,,,,,,,,,,,,,,,
all_stimuli/MST_pairs1/pair_10_14_33.png,24,0,24,24,0,,,,0,0,0,1,1,"[9, 21, 31, 45, 56, 68, 69]",1,1,0.6205001999624074,0.46081340010277927,None,None,None,,,,,,,,,0,0,0,0,0,24,24,24,296.7611951001454,,,,,,,,,,,,,,,,,,,,,,296.73799420008436,296.7380381000694,296.7595623000525,296.7611951001454,296.7611951001454,296.7611951001454,296.7611951001454,299.77094380022027,299.77094380022027,300.7541989001911,1,1,0.6205001999624074,0.46081340010277927,None,300.75427300017327,300.7542946001049,None,300.7543179001659,300.75433490006253,None,,,,,,,,,,,6,1,0,0,2025-03-10_10h15.35.065,rtmindeye,2024.2.4,59.96746164490693,2025-03-10 10h15.44.995263 -0400,,,,,,,,,,,,,,,,,
all_stimuli/shared1000_notspecial/notspecial_10907.png,25,0,25,25,0,,,,0,0,0,1,1,"[9, 21, 31, 45, 56, 68, 69]",1,1,0.7707837999332696,0.2029947000555694,None,None,None,,,,,,,,,0,0,0,0,0,25,25,25,300.77375620021485,,,,,,,,,,,,,,,,,,,,,,300.75449400022626,300.7545371002052,300.7721517,300.77375620021485,300.77375620021485,300.77375620021485,300.77375620021485,303.7873273000587,303.7873273000587,304.7710243000183,1,1,0.7707837999332696,0.2029947000555694,None,304.7710987001192,304.7711203000508,None,304.7711447000038,304.77116270014085,None,,,,,,,,,,,6,1,0,0,2025-03-10_10h15.35.065,rtmindeye,2024.2.4,59.96746164490693,2025-03-10 10h15.44.995263 -0400,,,,,,,,,,,,,,,,,
all_stimuli/special515/special_22587.jpg,26,0,26,26,0,,,,0,0,0,1,1,"[9, 21, 31, 45, 56, 68, 69]",1,1,0.8717942000366747,0.19801010005176067,None,None,None,,,,,,,,,0,0,0,0,0,26,26,26,304.8068218000699,,,,,,,,,,,,,,,,,,,,,,304.7713283000048,304.77137180021964,304.80495030013844,304.8068218000699,304.8068218000699,304.8068218000699,304.8068218000699,307.8209265000187,307.8209265000187,308.7873259,1,1,0.8717942000366747,0.19801010005176067,None,308.78740010014735,308.78742160019465,None,308.787445,308.7874623001553,None,,,,,,,,,,,6,1,0,0,2025-03-10_10h15.35.065,rtmindeye,2024.2.4,59.96746164490693,2025-03-10 10h15.44.995263 -0400,,,,,,,,,,,,,,,,,
all_stimuli/special515/special_3687.jpg,27,0,27,27,0,,,,0,0,0,1,1,"[9, 21, 31, 45, 56, 68, 69]",1,1,0.9211919999215752,0.21025960007682443,None,None,None,,,,,,,,,0,0,0,0,0,27,27,27,308.8142421001103,,,,,,,,,,,,,,,,,,,,,,308.7876220000908,308.7876659000758,308.8125055001583,308.8142421001103,308.8142421001103,308.8142421001103,308.8142421001103,311.8207251999993,311.8207251999993,312.8043367001228,1,1,0.9211919999215752,0.21025960007682443,None,312.80441229999997,312.8044345,None,312.8044581001159,312.80447550001554,None,,,,,,,,,,,6,1,0,0,2025-03-10_10h15.35.065,rtmindeye,2024.2.4,59.96746164490693,2025-03-10 10h15.44.995263 -0400,,,,,,,,,,,,,,,,,
all_stimuli/shared1000_notspecial/notspecial_58164.png,28,0,28,28,0,,,,0,0,0,1,1,"[9, 21, 31, 45, 56, 68, 69]",1,1,0.6550284998957068,0.22215049993246794,None,None,None,,,,,,,,,0,0,0,0,0,28,28,28,312.8354470001068,,,,,,,,,,,,,,,,,,,,,,312.8046365000773,312.80468300008215,312.8336817000527,312.8354470001068,312.8354470001068,312.8354470001068,312.8354470001068,315.8372436,315.8372436,316.82065130001865,1,1,0.6550284998957068,0.22215049993246794,None,316.8207260000054,316.8207470001653,None,316.82077060011216,316.82078840001486,None,,,,,,,,,,,6,1,0,0,2025-03-10_10h15.35.065,rtmindeye,2024.2.4,59.96746164490693,2025-03-10 10h15.44.995263 -0400,,,,,,,,,,,,,,,,,
all_stimuli/special515/special_38494.jpg,29,0,29,29,0,,,,0,0,0,1,1,"[9, 21, 31, 45, 56, 68, 69]",1,1,0.7182261000853032,0.2092143998015672,None,None,None,,,,,,,,,0,0,0,0,0,29,29,29,316.85323840007186,,,,,,,,,,,,,,,,,,,,,,316.82095230021514,316.82099620020017,316.85133530013263,316.85323840007186,316.85323840007186,316.85323840007186,316.85323840007186,319.85413100011647,319.85413100011647,320.8373945001513,1,1,0.7182261000853032,0.2092143998015672,None,320.83746800012887,320.83748920005746,None,320.8375126000028,320.83753010001965,None,,,,,,,,,,,6,1,0,0,2025-03-10_10h15.35.065,rtmindeye,2024.2.4,59.96746164490693,2025-03-10 10h15.44.995263 -0400,,,,,,,,,,,,,,,,,
all_stimuli/MST_pairs1/pair_12_16_22.png,30,0,30,30,0,,,,0,0,0,1,1,"[9, 21, 31, 45, 56, 68, 69]",1,1,1.1381925002206117,0.19993699993938208,None,None,None,,,,,,,,,0,0,0,0,0,30,30,30,320.86930350004695,,,,,,,,,,,,,,,,,,,,,,320.8376873000525,320.8377313001547,320.8676481000148,320.86930350004695,320.86930350004695,320.86930350004695,320.86930350004695,323.87084870017134,323.87084870017134,324.8541421000846,1,1,1.1381925002206117,0.19993699993938208,None,324.85421590018086,324.8542377,None,324.8542614001781,324.8542792000808,None,,,,,,,,,,,6,1,0,0,2025-03-10_10h15.35.065,rtmindeye,2024.2.4,59.96746164490693,2025-03-10 10h15.44.995263 -0400,,,,,,,,,,,,,,,,,
blank.jpg,31,1,31,31,0,,,,0,0,0,1,1,"[9, 21, 31, 45, 56, 68, 69]",2,0,0.8588148,0.17897149990312755,None,None,None,,,,,,,,,0,0,0,0,0,31,31,31,324.8707264,,,,,,,,,,,,,,,,,,,,,,324.8544377000071,324.8544808002189,324.8642811,324.8707264,324.8707264,324.8707264,324.8707264,327.8705732000526,327.8705732000526,328.85425000009127,2,0,0.8588148,0.17897149990312755,None,328.8543180001434,328.8543389001861,None,328.8543630000204,328.85438090004027,None,328.8863763001282,328.8863763001282,,,,,,,,,6,1,0,0,2025-03-10_10h15.35.065,rtmindeye,2024.2.4,59.96746164490693,2025-03-10 10h15.44.995263 -0400,,,,,,,,,,,,,,,,,
all_stimuli/special515/special_66489.jpg,32,0,32,32,0,,,,0,0,0,1,1,"[9, 21, 31, 45, 56, 68, 69]",1,1,0.9422783998306841,0.26986600016243756,None,None,None,,,,,,,,,0,0,0,0,0,32,32,32,328.8863763001282,,,,,,,,,,,,,,,,,,,,,,328.85453680017963,328.8545862000901,328.8844919002149,328.8863763001282,328.8863763001282,328.8863763001282,328.8863763001282,331.88725650007837,331.88725650007837,332.87093950016424,1,1,0.9422783998306841,0.26986600016243756,None,332.87101480015554,332.87103700009175,None,332.87106110015884,332.8710790001787,None,,,,,,,,,,,6,1,0,0,2025-03-10_10h15.35.065,rtmindeye,2024.2.4,59.96746164490693,2025-03-10 10h15.44.995263 -0400,,,,,,,,,,,,,,,,,
all_stimuli/MST_pairs1/pair_28_nsd_547_1_cocoid_60932.png,33,0,33,33,0,,,,0,0,0,1,1,"[9, 21, 31, 45, 56, 68, 69]",1,1,0.8283232001122087,0.21507189981639385,None,None,None,,,,,,,,,0,0,0,0,0,33,33,33,332.9372237,,,,,,,,,,,,,,,,,,,,,,332.8712446000427,332.87128900014795,332.9335340000689,332.9372237,332.9372237,332.9372237,332.9372237,335.9373347000219,335.9373347000219,336.8872843000572,1,1,0.8283232001122087,0.21507189981639385,None,336.8873553001322,336.8873762001749,None,336.88740020012483,336.88741750014015,None,,,,,,,,,,,6,1,0,0,2025-03-10_10h15.35.065,rtmindeye,2024.2.4,59.96746164490693,2025-03-10 10h15.44.995263 -0400,,,,,,,,,,,,,,,,,
all_stimuli/shared1000_notspecial/notspecial_46002.png,34,0,34,34,0,,,,0,0,0,1,1,"[9, 21, 31, 45, 56, 68, 69]",1,1,0.8512766000349075,0.18588340003043413,None,None,None,,,,,,,,,0,0,0,0,0,34,34,34,336.9153912002221,,,,,,,,,,,,,,,,,,,,,,336.8875726000406,336.88765760022216,336.91371460002847,336.9153912002221,336.9153912002221,336.9153912002221,336.9153912002221,339.92096550017595,339.92096550017595,340.9039945001714,1,1,0.8512766000349075,0.18588340003043413,None,340.9040706001688,340.90409170021303,None,340.90411650016904,340.9041342001874,None,,,,,,,,,,,6,1,0,0,2025-03-10_10h15.35.065,rtmindeye,2024.2.4,59.96746164490693,2025-03-10 10h15.44.995263 -0400,,,,,,,,,,,,,,,,,
all_stimuli/special515/special_30632.jpg,35,0,35,35,0,,,,0,0,0,1,1,"[9, 21, 31, 45, 56, 68, 69]",1,1,0.7215358999092132,0.2211240001488477,None,None,None,,,,,,,,,0,0,0,0,0,35,35,35,340.9229501001537,,,,,,,,,,,,,,,,,,,,,,340.9042959001381,340.9043393000029,340.9211705001071,340.9229501001537,340.9229501001537,340.9229501001537,340.9229501001537,343.9374507002067,343.9374507002067,344.9207282999996,1,1,0.7215358999092132,0.2211240001488477,None,344.9208044,344.9208262,None,344.92085029999726,344.9208681001328,None,,,,,,,,,,,6,1,0,0,2025-03-10_10h15.35.065,rtmindeye,2024.2.4,59.96746164490693,2025-03-10 10h15.44.995263 -0400,,,,,,,,,,,,,,,,,
all_stimuli/special515/special_31936.jpg,36,0,36,36,0,,,,0,0,0,1,1,"[9, 21, 31, 45, 56, 68, 69]",1,1,0.7462166,0.20975000015459955,None,None,None,,,,,,,,,0,0,0,0,0,36,36,36,344.9474890001584,,,,,,,,,,,,,,,,,,,,,,344.92102680006064,344.92107050004415,344.9457805000711,344.9474890001584,344.9474890001584,344.9474890001584,344.9474890001584,347.9540937,347.9540937,348.9376331001986,1,1,0.7462166,0.20975000015459955,None,348.9377068001777,348.93773070001043,None,348.9377549001947,348.9377725000959,None,,,,,,,,,,,6,1,0,0,2025-03-10_10h15.35.065,rtmindeye,2024.2.4,59.96746164490693,2025-03-10 10h15.44.995263 -0400,,,,,,,,,,,,,,,,,
all_stimuli/MST_pairs1/pair_8_12_56.png,37,0,37,37,0,,,,0,0,0,1,1,"[9, 21, 31, 45, 56, 68, 69]",1,1,0.6985152999404818,0.1769276,None,None,None,,,,,,,,,0,0,0,0,0,37,37,37,348.96717410022393,,,,,,,,,,,,,,,,,,,,,,348.9379283001181,348.9379720001016,348.9653848002199,348.96717410022393,348.96717410022393,348.96717410022393,348.96717410022393,351.97059390018694,351.97059390018694,352.95424100011587,1,1,0.6985152999404818,0.1769276,None,352.95431760000065,352.9543392001651,None,352.95436390000395,352.9543814000208,None,,,,,,,,,,,6,1,0,0,2025-03-10_10h15.35.065,rtmindeye,2024.2.4,59.96746164490693,2025-03-10 10h15.44.995263 -0400,,,,,,,,,,,,,,,,,
all_stimuli/special515/special_19074.jpg,38,0,38,38,0,,,,0,0,0,1,1,"[9, 21, 31, 45, 56, 68, 69]",1,1,0.6606354000978172,0.2129082998726517,None,None,None,,,,,,,,,0,0,0,0,0,38,38,38,352.9840077999979,,,,,,,,,,,,,,,,,,,,,,352.9545496001374,352.9545933001209,352.9820874000434,352.9840077999979,352.9840077999979,352.9840077999979,352.9840077999979,355.98678600019775,355.98678600019775,356.9708496001549,1,1,0.6606354000978172,0.2129082998726517,None,356.97092580003664,356.9709485000931,None,356.97097240015864,356.9709904000629,None,,,,,,,,,,,6,1,0,0,2025-03-10_10h15.35.065,rtmindeye,2024.2.4,59.96746164490693,2025-03-10 10h15.44.995263 -0400,,,,,,,,,,,,,,,,,
all_stimuli/shared1000_notspecial/notspecial_42648.png,39,0,39,39,0,,,,0,0,0,1,1,"[9, 21, 31, 45, 56, 68, 69]",1,1,0.6756982000079006,0.21995719987899065,None,None,None,,,,,,,,,0,0,0,0,0,39,39,39,356.9999470000621,,,,,,,,,,,,,,,,,,,,,,356.97114910022356,356.97119310009293,356.99837700021453,356.9999470000621,356.9999470000621,356.9999470000621,356.9999470000621,360.0039736002218,360.0039736002218,360.9872373000253,1,1,0.6756982000079006,0.21995719987899065,None,360.98731140000746,360.98733290005475,None,360.9873574001249,360.98737480002455,None,,,,,,,,,,,6,1,0,0,2025-03-10_10h15.35.065,rtmindeye,2024.2.4,59.96746164490693,2025-03-10 10h15.44.995263 -0400,,,,,,,,,,,,,,,,,
all_stimuli/MST_pairs1/pair_12_16_22.png,40,0,40,40,0,,,,1,0,0,1,1,"[9, 21, 31, 45, 56, 68, 69]",2,1,0.8038208999205381,0.15904189995490015,None,None,None,,,,,,,,,0,0,0,0,0,40,40,40,361.0036556001287,,,,,,,,,,,,,,,,,,,,,,360.9875333001837,360.98757740017027,361.00203090021387,361.0036556001287,361.0036556001287,361.0036556001287,361.0036556001287,364.0038537001237,364.0038537001237,364.98755150008947,2,1,0.8038208999205381,0.15904189995490015,None,364.9876223001629,364.98764290008694,None,364.98766770004295,364.9876849001739,None,365.02162740007043,365.02162740007043,,,,,,,,,6,1,0,0,2025-03-10_10h15.35.065,rtmindeye,2024.2.4,59.96746164490693,2025-03-10 10h15.44.995263 -0400,,,,,,,,,,,,,,,,,
all_stimuli/shared1000_notspecial/notspecial_3951.png,41,0,41,41,0,,,,0,0,0,1,1,"[9, 21, 31, 45, 56, 68, 69]",1,1,0.7368580000475049,0.17712270002812147,None,None,None,,,,,,,,,0,0,0,0,0,41,41,41,365.02162740007043,,,,,,,,,,,,,,,,,,,,,,364.9878477000166,364.98788710008375,365.0200077001937,365.02162740007043,365.02162740007043,365.02162740007043,365.02162740007043,368.03729010000825,368.03729010000825,369.0040246001445,1,1,0.7368580000475049,0.17712270002812147,None,369.0040975001175,369.00411880016327,None,369.0041417002212,369.00415940000676,None,,,,,,,,,,,6,1,0,0,2025-03-10_10h15.35.065,rtmindeye,2024.2.4,59.96746164490693,2025-03-10 10h15.44.995263 -0400,,,,,,,,,,,,,,,,,
all_stimuli/MST_pairs1/pair_12_16_78.png,42,0,42,42,0,,,,0,0,0,1,1,"[9, 21, 31, 45, 56, 68, 69]",1,1,0.9609586000442505,0.2700964999385178,None,None,None,,,,,,,,,0,0,0,0,0,42,42,42,369.0825337001588,,,,,,,,,,,,,,,,,,,,,,369.0043184000533,369.00436230003834,369.07917400007136,369.0825337001588,369.0825337001588,369.0825337001588,369.0825337001588,372.0873107002117,372.0873107002117,373.0207258001901,1,1,0.9609586000442505,0.2700964999385178,None,373.02080040005967,373.02082100021653,None,373.0208445000462,373.02086210018024,None,,,,,,,,,,,6,1,0,0,2025-03-10_10h15.35.065,rtmindeye,2024.2.4,59.96746164490693,2025-03-10 10h15.44.995263 -0400,,,,,,,,,,,,,,,,,
all_stimuli/special515/special_11952.jpg,43,0,43,43,0,,,,0,0,0,1,1,"[9, 21, 31, 45, 56, 68, 69]",1,1,0.7677849000319839,0.2628051000647247,None,None,None,,,,,,,,,0,0,0,0,0,43,43,43,373.0438955000136,,,,,,,,,,,,,,,,,,,,,,373.02102400013246,373.02106750011444,373.04195620003156,373.0438955000136,373.0438955000136,373.0438955000136,373.0438955000136,376.0539592001587,376.0539592001587,377.0372465001419,1,1,0.7677849000319839,0.2628051000647247,None,377.03731990000233,377.03734160005115,None,377.0373649999965,377.03738200012594,None,,,,,,,,,,,6,1,0,0,2025-03-10_10h15.35.065,rtmindeye,2024.2.4,59.96746164490693,2025-03-10 10h15.44.995263 -0400,,,,,,,,,,,,,,,,,
all_stimuli/MST_pairs1/pair_14_18_22.png,44,0,44,44,0,,,,0,0,0,1,1,"[9, 21, 31, 45, 56, 68, 69]",1,1,1.0261787998024374,0.2601702001411468,None,None,None,,,,,,,,,0,0,0,0,0,44,44,44,377.0903310000431,,,,,,,,,,,,,,,,,,,,,,377.0375397000462,377.0375834000297,377.0886679000687,377.0903310000431,377.0903310000431,377.0903310000431,377.0903310000431,380.1038992002141,380.1038992002141,381.0541918000672,1,1,1.0261787998024374,0.2601702001411468,None,381.0542663000524,381.0542870000936,None,381.05431070015766,381.054328,None,,,,,,,,,,,6,1,0,0,2025-03-10_10h15.35.065,rtmindeye,2024.2.4,59.96746164490693,2025-03-10 10h15.44.995263 -0400,,,,,,,,,,,,,,,,,
blank.jpg,45,1,45,45,0,,,,0,0,0,1,1,"[9, 21, 31, 45, 56, 68, 69]",2,0,0.9310274000745267,0.15796129987575114,None,None,None,,,,,,,,,0,0,0,0,0,45,45,45,381.0706101001706,,,,,,,,,,,,,,,,,,,,,,381.05449800007045,381.0545419000555,381.06367590022273,381.0706101001706,381.0706101001706,381.0706101001706,381.0706101001706,384.0705514000729,384.0705514000729,385.05378370010294,2,0,0.9310274000745267,0.15796129987575114,None,385.0538513,385.05387190007605,None,385.0538951000199,385.05391200003214,None,385.09726730012335,385.09726730012335,,,,,,,,,6,1,0,0,2025-03-10_10h15.35.065,rtmindeye,2024.2.4,59.96746164490693,2025-03-10 10h15.44.995263 -0400,,,,,,,,,,,,,,,,,
all_stimuli/MST_pairs1/pair_16_20_56.png,46,0,46,46,0,,,,0,0,0,1,1,"[9, 21, 31, 45, 56, 68, 69]",1,1,0.7832467998377979,0.24710090016014874,None,None,None,,,,,,,,,0,0,0,0,0,46,46,46,385.09726730012335,,,,,,,,,,,,,,,,,,,,,,385.0540663001593,385.05410450021736,385.0956209001597,385.09726730012335,385.09726730012335,385.09726730012335,385.09726730012335,388.1039248001762,388.1039248001762,389.05423330003396,1,1,0.7832467998377979,0.24710090016014874,None,389.0543062,389.05432700016536,None,389.0543506999966,389.05436870013364,None,,,,,,,,,,,6,1,0,0,2025-03-10_10h15.35.065,rtmindeye,2024.2.4,59.96746164490693,2025-03-10 10h15.44.995263 -0400,,,,,,,,,,,,,,,,,
all_stimuli/special515/special_8933.jpg,47,0,47,47,0,,,,0,0,0,1,1,"[9, 21, 31, 45, 56, 68, 69]",1,1,0.8409937999676913,0.27699040016159415,None,None,None,,,,,,,,,0,0,0,0,0,47,47,47,389.0926191001199,,,,,,,,,,,,,,,,,,,,,,389.05452550016344,389.05457930010743,389.0906989001669,389.0926191001199,389.0926191001199,389.0926191001199,389.0926191001199,392.10392350004986,392.10392350004986,393.07065050001256,1,1,0.8409937999676913,0.27699040016159415,None,393.07072660000995,393.0707480001729,None,393.07077160011977,393.07078900001943,None,,,,,,,,,,,6,1,0,0,2025-03-10_10h15.35.065,rtmindeye,2024.2.4,59.96746164490693,2025-03-10 10h15.44.995263 -0400,,,,,,,,,,,,,,,,,
all_stimuli/MST_pairs1/pair_16_20_56.png,48,0,48,48,0,,,,1,0,0,1,1,"[9, 21, 31, 45, 56, 68, 69]",2,1,1.0303362999111414,0.19387890002690256,None,None,None,,,,,,,,,0,0,0,0,0,48,48,48,393.08729260019027,,,,,,,,,,,,,,,,,,,,,,393.07095630001277,393.0710007,393.07943510008045,393.08729260019027,393.08729260019027,393.08729260019027,393.08729260019027,396.08732630009763,396.08732630009763,397.0707743000239,2,1,1.0303362999111414,0.19387890002690256,None,397.0708456002176,397.0708660001401,None,397.0708898000885,397.0709071001038,None,397.1020158000756,397.1020158000756,,,,,,,,,6,1,0,0,2025-03-10_10h15.35.065,rtmindeye,2024.2.4,59.96746164490693,2025-03-10 10h15.44.995263 -0400,,,,,,,,,,,,,,,,,
all_stimuli/special515/special_5034.jpg,49,0,49,49,0,,,,0,0,0,1,1,"[9, 21, 31, 45, 56, 68, 69]",1,1,0.7704684999771416,0.22208970016799867,None,None,None,,,,,,,,,0,0,0,0,0,49,49,49,397.1020158000756,,,,,,,,,,,,,,,,,,,,,,397.0710608002264,397.07110020006076,397.10011950018816,397.1020158000756,397.1020158000756,397.1020158000756,397.1020158000756,400.1034986001905,400.1034986001905,401.08722050022334,1,1,0.7704684999771416,0.22208970016799867,None,401.0872948,401.0873160001356,None,401.0873399002012,401.0873582002241,None,,,,,,,,,,,6,1,0,0,2025-03-10_10h15.35.065,rtmindeye,2024.2.4,59.96746164490693,2025-03-10 10h15.44.995263 -0400,,,,,,,,,,,,,,,,,
all_stimuli/MST_pairs1/pair_16_20_0.png,50,0,50,50,0,,,,0,0,0,1,1,"[9, 21, 31, 45, 56, 68, 69]",2,0,0.7454266999848187,0.18502899981103837,None,None,None,,,,,,,,,0,0,0,0,0,50,50,50,401.1181417,,,,,,,,,,,,,,,,,,,,,,401.08751540002413,401.0875592001248,401.11648370022886,401.1181417,401.1181417,401.1181417,401.1181417,404.12024790002033,404.12024790002033,405.10395200015046,2,0,0.7454266999848187,0.18502899981103837,None,405.10402810014784,405.1040492001921,None,405.1040730001405,405.10409070015885,None,,,,,,,,,,,6,1,0,0,2025-03-10_10h15.35.065,rtmindeye,2024.2.4,59.96746164490693,2025-03-10 10h15.44.995263 -0400,,,,,,,,,,,,,,,,,
all_stimuli/MST_pairs1/pair_46_w_pool2.jpg,51,0,51,51,0,,,,0,0,0,1,1,"[9, 21, 31, 45, 56, 68, 69]",1,1,0.9068932,0.19287570007145405,None,None,None,,,,,,,,,0,0,0,0,0,51,51,51,405.13968240004033,,,,,,,,,,,,,,,,,,,,,,405.1042548001278,405.10429870011285,405.1380063001998,405.13968240004033,405.13968240004033,405.13968240004033,405.13968240004033,408.1540064001456,408.1540064001456,409.1204799001571,1,1,0.9068932,0.19287570007145405,None,409.12055400013924,409.1205761001911,None,409.12060000002384,409.12061740015633,None,,,,,,,,,,,6,1,0,0,2025-03-10_10h15.35.065,rtmindeye,2024.2.4,59.96746164490693,2025-03-10 10h15.44.995263 -0400,,,,,,,,,,,,,,,,,
all_stimuli/special515/special_62228.jpg,52,0,52,52,0,,,,0,0,0,1,1,"[9, 21, 31, 45, 56, 68, 69]",1,1,0.6129892,0.1790561000816524,None,None,None,,,,,,,,,0,0,0,0,0,52,52,52,409.1525435000658,,,,,,,,,,,,,,,,,,,,,,409.1207735000644,409.1208191001788,409.1506398,409.1525435000658,409.1525435000658,409.1525435000658,409.1525435000658,412.1539044000674,412.1539044000674,413.1372533,1,1,0.6129892,0.1790561000816524,None,413.13732850016095,413.13735050009564,None,413.1373739,413.1373914000578,None,,,,,,,,,,,6,1,0,0,2025-03-10_10h15.35.065,rtmindeye,2024.2.4,59.96746164490693,2025-03-10 10h15.44.995263 -0400,,,,,,,,,,,,,,,,,
all_stimuli/MST_pairs1/pair_40_w_escalator2.jpg,53,0,53,53,0,,,,0,0,0,1,1,"[9, 21, 31, 45, 56, 68, 69]",1,1,0.7719654999673367,0.21898830006830394,None,None,None,,,,,,,,,0,0,0,0,0,53,53,53,413.17162190005183,,,,,,,,,,,,,,,,,,,,,,413.1375542001333,413.1375971001107,413.16997090005316,413.17162190005183,413.17162190005183,413.17162190005183,413.17162190005183,416.1871397001669,416.1871397001669,417.1538889000658,1,1,0.7719654999673367,0.21898830006830394,None,417.1539609001484,417.15398300020024,None,417.15400650002994,417.1540240000468,None,,,,,,,,,,,6,1,0,0,2025-03-10_10h15.35.065,rtmindeye,2024.2.4,59.96746164490693,2025-03-10 10h15.44.995263 -0400,,,,,,,,,,,,,,,,,
all_stimuli/MST_pairs1/pair_20_nsd_41_2_cocoid_63715.png,54,0,54,54,0,,,,0,0,0,1,1,"[9, 21, 31, 45, 56, 68, 69]",1,1,0.8191435998305678,0.21104560000821948,None,None,None,,,,,,,,,0,0,0,0,0,54,54,54,417.2294302000664,,,,,,,,,,,,,,,,,,,,,,417.1541810000781,417.1542250001803,417.22590970015153,417.2294302000664,417.2294302000664,417.2294302000664,417.2294302000664,420.2371265999973,420.2371265999973,421.1704852001276,1,1,0.8191435998305678,0.21104560000821948,None,421.1705599001143,421.17058130004443,None,421.1706058001146,421.1706233001314,None,,,,,,,,,,,6,1,0,0,2025-03-10_10h15.35.065,rtmindeye,2024.2.4,59.96746164490693,2025-03-10 10h15.44.995263 -0400,,,,,,,,,,,,,,,,,
all_stimuli/shared1000_notspecial/notspecial_22155.png,55,0,55,55,0,,,,0,0,0,1,1,"[9, 21, 31, 45, 56, 68, 69]",1,1,0.8282664001453668,0.21682069986127317,None,None,None,,,,,,,,,0,0,0,0,0,55,55,55,421.1994075002149,,,,,,,,,,,,,,,,,,,,,,421.17078540008515,421.1708293000702,421.1978064000141,421.1994075002149,421.1994075002149,421.1994075002149,421.1994075002149,424.2035918,424.2035918,425.18740830011666,1,1,0.8282664001453668,0.21682069986127317,None,425.1874830001034,425.18750400003046,None,425.1875275,425.1875450001098,None,,,,,,,,,,,6,1,0,0,2025-03-10_10h15.35.065,rtmindeye,2024.2.4,59.96746164490693,2025-03-10 10h15.44.995263 -0400,,,,,,,,,,,,,,,,,
blank.jpg,56,1,56,56,0,,,,0,0,0,1,1,"[9, 21, 31, 45, 56, 68, 69]",2,0,0.7012008999008685,0.15100680012255907,None,None,None,,,,,,,,,0,0,0,0,0,56,56,56,425.20417660009116,,,,,,,,,,,,,,,,,,,,,,425.1877037000377,425.1877469001338,425.1955421001185,425.20417660009116,425.20417660009116,425.20417660009116,425.20417660009116,428.20376699999906,428.20376699999906,429.18727250001393,2,0,0.7012008999008685,0.15100680012255907,None,429.1873401,429.18736120010726,None,429.1873852000572,429.1874019000679,None,429.2196827000007,429.2196827000007,,,,,,,,,6,1,0,0,2025-03-10_10h15.35.065,rtmindeye,2024.2.4,59.96746164490693,2025-03-10 10h15.44.995263 -0400,,,,,,,,,,,,,,,,,
all_stimuli/special515/special_11617.jpg,57,0,57,57,0,,,,0,0,0,1,1,"[9, 21, 31, 45, 56, 68, 69]",1,1,0.7949307002127171,0.23195429984480143,None,None,None,,,,,,,,,0,0,0,0,0,57,57,57,429.2196827000007,,,,,,,,,,,,,,,,,,,,,,429.1875554,429.18759660003707,429.2178033001255,429.2196827000007,429.2196827000007,429.2196827000007,429.2196827000007,432.2206286001019,432.2206286001019,433.20386050012894,1,1,0.7949307002127171,0.23195429984480143,None,433.20393550000153,433.2039577001706,None,433.2039816000033,433.20399890001863,None,,,,,,,,,,,6,1,0,0,2025-03-10_10h15.35.065,rtmindeye,2024.2.4,59.96746164490693,2025-03-10 10h15.44.995263 -0400,,,,,,,,,,,,,,,,,
all_stimuli/MST_pairs1/pair_14_18_22.png,58,0,58,58,0,,,,1,0,0,1,1,"[9, 21, 31, 45, 56, 68, 69]",2,1,0.8315512998960912,0.1660005000885576,None,None,None,,,,,,,,,0,0,0,0,0,58,58,58,433.22007560008205,,,,,,,,,,,,,,,,,,,,,,433.2041579000652,433.2042019001674,433.21800370002165,433.22007560008205,433.22007560008205,433.22007560008205,433.22007560008205,436.22047410020605,436.22047410020605,437.2039930000901,2,1,0.8315512998960912,0.1660005000885576,None,437.2040598001331,437.20408040005714,None,437.2041038000025,437.2041206001304,None,437.24432630022056,437.24432630022056,,,,,,,,,6,1,0,0,2025-03-10_10h15.35.065,rtmindeye,2024.2.4,59.96746164490693,2025-03-10 10h15.44.995263 -0400,,,,,,,,,,,,,,,,,
all_stimuli/shared1000_notspecial/notspecial_63081.png,59,0,59,59,0,,,,0,0,0,1,1,"[9, 21, 31, 45, 56, 68, 69]",1,1,0.7920645999256521,0.17616989999078214,None,None,None,,,,,,,,,0,0,0,0,0,59,59,59,437.24432630022056,,,,,,,,,,,,,,,,,,,,,,437.20427700015716,437.2043251001742,437.24266760004684,437.24432630022056,437.24432630022056,437.24432630022056,437.24432630022056,440.2540297000669,440.2540297000669,441.2205955001991,1,1,0.7920645999256521,0.17616989999078214,None,441.2206700001843,441.2206908001099,None,441.2207141001709,441.2207312001847,None,,,,,,,,,,,6,1,0,0,2025-03-10_10h15.35.065,rtmindeye,2024.2.4,59.96746164490693,2025-03-10 10h15.44.995263 -0400,,,,,,,,,,,,,,,,,
all_stimuli/MST_pairs1/pair_42_w_icerink2.jpg,60,0,60,60,0,,,,0,0,0,1,1,"[9, 21, 31, 45, 56, 68, 69]",1,1,0.8519653000403196,0.1707456,None,None,None,,,,,,,,,0,0,0,0,0,60,60,60,441.24863750021905,,,,,,,,,,,,,,,,,,,,,,441.2208936000243,441.22093720012344,441.2469587000087,441.24863750021905,441.24863750021905,441.24863750021905,441.24863750021905,444.2537045001518,444.2537045001518,445.2372212000191,1,1,0.8519653000403196,0.1707456,None,445.23729509999976,445.2373173001688,None,445.23734070011415,445.23735830001533,None,,,,,,,,,,,6,1,0,0,2025-03-10_10h15.35.065,rtmindeye,2024.2.4,59.96746164490693,2025-03-10 10h15.44.995263 -0400,,,,,,,,,,,,,,,,,
all_stimuli/MST_pairs1/pair_46_w_pool1.jpg,61,0,61,61,0,,,,0,0,0,1,1,"[9, 21, 31, 45, 56, 68, 69]",2,0,0.9900011999998242,0.1756996000185609,None,None,None,,,,,,,,,0,0,0,0,0,61,61,61,445.2716472002212,,,,,,,,,,,,,,,,,,,,,,445.23751510004513,445.23755910014734,445.27009440003894,445.2716472002212,445.2716472002212,445.2716472002212,445.2716472002212,448.2872813001741,448.2872813001741,449.25384690007195,2,0,0.9900011999998242,0.1756996000185609,None,449.2539194000419,449.2539410002064,None,449.2539650001563,449.25398250017315,None,,,,,,,,,,,6,1,0,0,2025-03-10_10h15.35.065,rtmindeye,2024.2.4,59.96746164490693,2025-03-10 10h15.44.995263 -0400,,,,,,,,,,,,,,,,,
all_stimuli/special515/special_40840.jpg,62,0,62,62,0,,,,0,0,0,1,1,"[9, 21, 31, 45, 56, 68, 69]",2,0,1.076035900041461,0.16188229992985725,None,None,None,,,,,,,,,0,0,0,0,0,62,62,62,449.28551270021126,,,,,,,,,,,,,,,,,,,,,,449.2541425002273,449.25418560020626,449.2836467002053,449.28551270021126,449.28551270021126,449.28551270021126,449.28551270021126,452.28714220016263,452.28714220016263,453.2704588000197,2,0,1.076035900041461,0.16188229992985725,None,453.27053190022707,453.27055340004154,None,453.2705768002197,453.27059470000677,None,,,,,,,,,,,6,1,0,0,2025-03-10_10h15.35.065,rtmindeye,2024.2.4,59.96746164490693,2025-03-10 10h15.44.995263 -0400,,,,,,,,,,,,,,,,,
all_stimuli/special515/special_29837.jpg,63,0,63,63,0,,,,0,0,0,1,1,"[9, 21, 31, 45, 56, 68, 69]",1,1,0.6999757001176476,0.1898598000407219,None,None,None,,,,,,,,,0,0,0,0,0,63,63,63,453.3005808000453,,,,,,,,,,,,,,,,,,,,,,453.27075850008987,453.2708027001936,453.2987477001734,453.3005808000453,453.3005808000453,453.3005808000453,453.3005808000453,456.3035914001521,456.3035914001521,457.2869826001115,1,1,0.6999757001176476,0.1898598000407219,None,457.28705650009215,457.2870775000192,None,457.28710100008175,457.28711830009706,None,,,,,,,,,,,6,1,0,0,2025-03-10_10h15.35.065,rtmindeye,2024.2.4,59.96746164490693,2025-03-10 10h15.44.995263 -0400,,,,,,,,,,,,,,,,,
all_stimuli/shared1000_notspecial/notspecial_4768.png,64,0,64,64,0,,,,0,0,0,1,1,"[9, 21, 31, 45, 56, 68, 69]",1,1,0.7464727000333369,0.2658812999725342,None,None,None,,,,,,,,,0,0,0,0,0,64,64,64,457.3260048001539,,,,,,,,,,,,,,,,,,,,,,457.2872758000158,457.28731910022907,457.3243360000197,457.3260048001539,457.3260048001539,457.3260048001539,457.3260048001539,460.33720980002545,460.33720980002545,461.30347530008294,1,1,0.7464727000333369,0.2658812999725342,None,461.3035497001838,461.3035716000013,None,461.3035952,461.3036131002009,None,,,,,,,,,,,6,1,0,0,2025-03-10_10h15.35.065,rtmindeye,2024.2.4,59.96746164490693,2025-03-10 10h15.44.995263 -0400,,,,,,,,,,,,,,,,,
all_stimuli/MST_pairs1/pair_20_nsd_41_1_cocoid_15472.png,65,0,65,65,0,,,,0,0,0,1,1,"[9, 21, 31, 45, 56, 68, 69]",1,1,0.8957425,0.17984140012413263,None,None,None,,,,,,,,,0,0,0,0,0,65,65,65,461.35685880016536,,,,,,,,,,,,,,,,,,,,,,461.30377260013483,461.3038157001138,461.35472530010156,461.35685880016536,461.35685880016536,461.35685880016536,461.35685880016536,464.3704646,464.3704646,465.32054610014893,1,1,0.8957425,0.17984140012413263,None,465.3206194,465.3206408000551,None,465.3206637999974,465.3206812001299,None,,,,,,,,,,,6,1,0,0,2025-03-10_10h15.35.065,rtmindeye,2024.2.4,59.96746164490693,2025-03-10 10h15.44.995263 -0400,,,,,,,,,,,,,,,,,
all_stimuli/shared1000_notspecial/notspecial_53157.png,66,0,66,66,0,,,,0,0,0,1,1,"[9, 21, 31, 45, 56, 68, 69]",1,1,0.8597285998985171,0.1840355999302119,None,None,None,,,,,,,,,0,0,0,0,0,66,66,66,465.3558007001411,,,,,,,,,,,,,,,,,,,,,,465.32084080018103,465.32088450016454,465.3540168001782,465.3558007001411,465.3558007001411,465.3558007001411,465.3558007001411,468.37029040022753,468.37029040022753,469.33727450016886,1,1,0.8597285998985171,0.1840355999302119,None,469.33734870003536,469.3373698000796,None,469.33739350014366,469.3374109000433,None,,,,,,,,,,,6,1,0,0,2025-03-10_10h15.35.065,rtmindeye,2024.2.4,59.96746164490693,2025-03-10 10h15.44.995263 -0400,,,,,,,,,,,,,,,,,
all_stimuli/special515/special_38641.jpg,67,0,67,67,0,,,,1,0,0,1,1,"[9, 21, 31, 45, 56, 68, 69]",1,0,1.1319909000303596,0.20480090007185936,None,None,None,,,,,,,,,0,0,0,0,0,67,67,67,469.35355870006606,,,,,,,,,,,,,,,,,,,,,,469.33757000020705,469.33761370019056,469.3497677000705,469.35355870006606,469.35355870006606,469.35355870006606,469.35355870006606,472.35373620013706,472.35373620013706,473.3371119000949,1,0,1.1319909000303596,0.20480090007185936,None,473.33717900002375,473.3371996001806,None,473.3372221000027,473.3372518001124,None,473.3535514001269,473.3535514001269,,,,,,,,,6,1,0,0,2025-03-10_10h15.35.065,rtmindeye,2024.2.4,59.96746164490693,2025-03-10 10h15.44.995263 -0400,,,,,,,,,,,,,,,,,
blank.jpg,68,1,68,68,0,,,,0,0,0,1,1,"[9, 21, 31, 45, 56, 68, 69]",2,0,0.8059921998064965,0.18899619998410344,None,None,None,,,,,,,,,0,0,0,0,0,68,68,68,473.3535514001269,,,,,,,,,,,,,,,,,,,,,,473.3374120001681,473.3374507999979,473.3465324,473.3535514001269,473.3535514001269,473.3535514001269,473.3535514001269,476.35371030005626,476.35371030005626,477.33732550009154,2,0,0.8059921998064965,0.18899619998410344,None,477.33739350014366,477.3374144001864,None,477.3374379000161,477.33745490014553,None,477.35385910002515,477.35385910002515,,,,,,,,,6,1,0,0,2025-03-10_10h15.35.065,rtmindeye,2024.2.4,59.96746164490693,2025-03-10 10h15.44.995263 -0400,,,,,,,,,,,,,,,,,
blank.jpg,69,1,69,69,0,,,,0,1,0,1,0,"[9, 21, 31, 45, 56, 68, 69]",2,0,1.0335616001393646,0.16200409992597997,None,1,equal,4.086006700061262,None,1.3841784000396729,None,,,,,0,0,0,0,0,69,69,69,477.35385910002515,,,,,,,,,,,,,,,,,,,,,,477.33761030016467,477.33765270002186,477.3435198001098,477.35385910002515,477.35385910002515,477.35385910002515,477.35385910002515,480.35378640005365,480.35378640005365,481.3371377000585,2,0,1.0335616001393646,0.16200409992597997,None,481.3536464001518,485.45419530011714,1,485.45425350009464,486.8704131001141,equal,481.35543350013904,481.35543350013904,481.35543350013904,481.35543350013904,4.086006700061262,None,485.47021450009197,485.47021450009197,1.3841784000396729,None,6,1,0,0,2025-03-10_10h15.35.065,rtmindeye,2024.2.4,59.96746164490693,2025-03-10 10h15.44.995263 -0400,,,,,,,,,,,,,,,,,
,,,,,,,,,,,,,,,,,,,,,,,,,,,,,,,,,,,,,,,,,,,,,,,,,,,,,,,,,,,,,,,,,,,,,,,,,,,,,,,,,,,,,,,,,,,,,,,,,,,,,,,,,,,,,,,,,,,,
all_stimuli/special515/special_71450.jpg,0,0,0,0,0,,,,0,0,1,1,1,"[9, 21, 31, 45, 56, 68, 69]",1,1,1.1334543998818845,0.18592260009609163,None,None,None,,,,,,,,,0,0,0,0,0,0,0,0,18.507106499979272,,,,,,,,,,,,,,,,,,,,,,18.481098500080407,18.481146200094372,18.503296199953184,18.507106499979272,18.507106499979272,18.507106499979272,18.507106499979272,21.51624369993806,21.51624369993806,22.48312560003251,1,1,1.1334543998818845,0.18592260009609163,None,22.48319200007245,22.483216099906713,None,22.483238500077277,22.483256499981508,None,,,,,,,,,,,6,1,1,1,2025-03-10_10h25.10.008,rtmindeye,2024.2.4,59.98411628058783,2025-03-10 10h25.29.832350 -0400,,,,,,,,,,,,,,,,,
all_stimuli/special515/special_38246.jpg,1,0,1,1,0,,,,0,0,1,1,1,"[9, 21, 31, 45, 56, 68, 69]",1,1,0.7103329000528902,0.21889279992319643,None,None,None,,,,,,,,,0,0,0,0,0,1,1,1,22.502071399940178,,,,,,,,,,,,,,,,,,,,,,22.483404099941254,22.483447399921715,22.500250299926847,22.502071399940178,22.502071399940178,22.502071399940178,22.502071399940178,25.515973800094798,25.515973800094798,26.499785,1,1,0.7103329000528902,0.21889279992319643,None,26.49985140003264,26.49987159995362,None,26.49989419989288,26.49991129990667,None,,,,,,,,,,,6,1,1,1,2025-03-10_10h25.10.008,rtmindeye,2024.2.4,59.98411628058783,2025-03-10 10h25.29.832350 -0400,,,,,,,,,,,,,,,,,
all_stimuli/special515/special_10046.jpg,2,0,2,2,0,,,,0,0,1,1,1,"[9, 21, 31, 45, 56, 68, 69]",1,1,0.6019498000387102,0.20610289997421205,None,None,None,,,,,,,,,0,0,0,0,0,2,2,2,26.53937099990435,,,,,,,,,,,,,,,,,,,,,,26.500066299922764,26.50011030002497,26.53755100001581,26.53937099990435,26.53937099990435,26.53937099990435,26.53937099990435,29.54972600005567,29.54972600005567,30.51619999995455,1,1,0.6019498000387102,0.20610289997421205,None,30.516267400002107,30.516287999926135,None,30.516310800099745,30.516327999997884,None,,,,,,,,,,,6,1,1,1,2025-03-10_10h25.10.008,rtmindeye,2024.2.4,59.98411628058783,2025-03-10 10h25.29.832350 -0400,,,,,,,,,,,,,,,,,
all_stimuli/MST_pairs1/pair_38_w_arch2.jpg,3,0,3,3,0,,,,0,0,1,1,1,"[9, 21, 31, 45, 56, 68, 69]",1,1,0.6438993001356721,0.15404819999821484,None,None,None,,,,,,,,,0,0,0,0,0,3,3,3,30.558463299879804,,,,,,,,,,,,,,,,,,,,,,30.516484099905938,30.516528100008145,30.55679489998147,30.558463299879804,30.558463299879804,30.558463299879804,30.558463299879804,33.565911799902096,33.565911799902096,34.53303560009226,1,1,0.6438993001356721,0.15404819999821484,None,34.533101100008935,34.533121899934486,None,34.53314450010657,34.53316170000471,None,,,,,,,,,,,6,1,1,1,2025-03-10_10h25.10.008,rtmindeye,2024.2.4,59.98411628058783,2025-03-10 10h25.29.832350 -0400,,,,,,,,,,,,,,,,,
all_stimuli/special515/special_30395.jpg,4,0,4,4,0,,,,0,0,1,1,1,"[9, 21, 31, 45, 56, 68, 69]",1,1,0.6641025000717491,0.170061,None,None,None,,,,,,,,,0,0,0,0,0,4,4,4,34.57223069993779,,,,,,,,,,,,,,,,,,,,,,34.53331339987926,34.53335690009408,34.57048880006187,34.57223069993779,34.57223069993779,34.57223069993779,34.57223069993779,37.58308309991844,37.58308309991844,38.54986090003513,1,1,0.6641025000717491,0.170061,None,38.54992759996094,38.54994799988344,None,38.54997100005858,38.54998830007389,None,,,,,,,,,,,6,1,1,1,2025-03-10_10h25.10.008,rtmindeye,2024.2.4,59.98411628058783,2025-03-10 10h25.29.832350 -0400,,,,,,,,,,,,,,,,,
all_stimuli/special515/special_38494.jpg,5,0,5,5,0,,,,1,0,1,1,1,"[9, 21, 31, 45, 56, 68, 69]",1,0,0.9038421001750976,0.2051630998030305,None,None,None,,,,,,,,,0,0,0,0,0,5,5,5,38.566425499971956,,,,,,,,,,,,,,,,,,,,,,38.55014459998347,38.5501885,38.5646068,38.566425499971956,38.566425499971956,38.566425499971956,38.566425499971956,41.56635700003244,41.56635700003244,42.54975080001168,1,0,0.9038421001750976,0.2051630998030305,None,42.54981019999832,42.54983019991778,None,42.54985389998183,42.54987160000019,None,42.79552299994975,42.79552299994975,,,,,,,,,6,1,1,1,2025-03-10_10h25.10.008,rtmindeye,2024.2.4,59.98411628058783,2025-03-10 10h25.29.832350 -0400,,,,,,,,,,,,,,,,,
all_stimuli/MST_pairs1/pair_28_nsd_547_1_cocoid_60932.png,6,0,6,6,0,,,,1,0,1,1,1,"[9, 21, 31, 45, 56, 68, 69]",1,0,0.6417851,0.1789122000336647,None,None,None,,,,,,,,,0,0,0,0,0,6,6,6,42.79552299994975,,,,,,,,,,,,,,,,,,,,,,42.55001630005427,42.550064499955624,42.79152620001696,42.79552299994975,42.79552299994975,42.79552299994975,42.79552299994975,45.7997606,45.7997606,46.56638689991087,1,0,0.6417851,0.1789122000336647,None,46.566454800078645,46.56647580000572,None,46.5664989,46.566516200080514,None,,,,,,,,,,,6,1,1,1,2025-03-10_10h25.10.008,rtmindeye,2024.2.4,59.98411628058783,2025-03-10 10h25.29.832350 -0400,,,,,,,,,,,,,,,,,
all_stimuli/special515/special_61133.jpg,7,0,7,7,0,,,,0,0,1,1,1,"[9, 21, 31, 45, 56, 68, 69]",1,1,0.6499604999553412,0.19210310000926256,None,None,None,,,,,,,,,0,0,0,0,0,7,7,7,46.6192498,,,,,,,,,,,,,,,,,,,,,,46.56666800007224,46.56671439995989,46.61727990000509,46.6192498,46.6192498,46.6192498,46.6192498,49.63312670006417,49.63312670006417,50.58271069987677,1,1,0.6499604999553412,0.19210310000926256,None,50.58277660002932,50.582797300070524,None,50.58282110001892,50.582838099915534,None,,,,,,,,,,,6,1,1,1,2025-03-10_10h25.10.008,rtmindeye,2024.2.4,59.98411628058783,2025-03-10 10h25.29.832350 -0400,,,,,,,,,,,,,,,,,
all_stimuli/shared1000_notspecial/notspecial_16635.png,8,0,8,8,0,,,,0,0,1,1,1,"[9, 21, 31, 45, 56, 68, 69]",1,1,0.7401505999732763,0.21291899983771145,None,None,None,,,,,,,,,0,0,0,0,0,8,8,8,50.61210109991953,,,,,,,,,,,,,,,,,,,,,,50.58299169992097,50.58303599990904,50.61045820009895,50.61210109991953,50.61210109991953,50.61210109991953,50.61210109991953,53.616338700056076,53.616338700056076,54.599572099978104,1,1,0.7401505999732763,0.21291899983771145,None,54.59963589999825,54.59965580003336,None,54.599677599966526,54.59969489998184,None,,,,,,,,,,,6,1,1,1,2025-03-10_10h25.10.008,rtmindeye,2024.2.4,59.98411628058783,2025-03-10 10h25.29.832350 -0400,,,,,,,,,,,,,,,,,
blank.jpg,9,1,9,9,0,,,,0,0,1,1,1,"[9, 21, 31, 45, 56, 68, 69]",None,0,,,None,None,None,,,,,,,,,0,0,0,0,0,9,9,9,54.615954499924555,,,,,,,,,,,,,,,,,,,,,,54.59984529996291,54.59989019995555,54.61061890004203,54.615954499924555,54.615954499924555,54.615954499924555,54.615954499924555,57.616381200030446,57.616381200030446,58.59970570006408,None,0,,,None,58.599763500038534,58.59978369995952,None,58.599806800018996,58.599823700031266,None,58.65885809995234,58.65885809995234,,,,,,,,,6,1,1,1,2025-03-10_10h25.10.008,rtmindeye,2024.2.4,59.98411628058783,2025-03-10 10h25.29.832350 -0400,,,,,,,,,,,,,,,,,
all_stimuli/MST_pairs1/pair_18_nsd_6_1_cocoid_13417.png,10,0,10,10,0,,,,0,0,1,1,1,"[9, 21, 31, 45, 56, 68, 69]",1,1,0.6423661,0.20300049986690283,None,None,None,,,,,,,,,0,0,0,0,0,10,10,10,58.65885809995234,,,,,,,,,,,,,,,,,,,,,,58.599972299998626,58.600019600009546,58.6569584,58.65885809995234,58.65885809995234,58.65885809995234,58.65885809995234,61.66620879992843,61.66620879992843,62.61598440003581,1,1,0.6423661,0.20300049986690283,None,62.61605569999665,62.616078099934384,None,62.616101699881256,62.61611910001375,None,,,,,,,,,,,6,1,1,1,2025-03-10_10h25.10.008,rtmindeye,2024.2.4,59.98411628058783,2025-03-10 10h25.29.832350 -0400,,,,,,,,,,,,,,,,,
all_stimuli/shared1000_notspecial/notspecial_21703.png,11,0,11,11,0,,,,0,0,1,1,1,"[9, 21, 31, 45, 56, 68, 69]",1,1,0.8497106998693198,0.16800609999336302,None,None,None,,,,,,,,,0,0,0,0,0,11,11,11,62.66064999997616,,,,,,,,,,,,,,,,,,,,,,62.61628459999338,62.616335900034755,62.65849329996854,62.66064999997616,62.66064999997616,62.66064999997616,62.66064999997616,65.66595620010048,65.66595620010048,66.63286940008402,1,1,0.8497106998693198,0.16800609999336302,None,66.6329338,66.63295360002667,None,66.6329763,66.63299369998276,None,,,,,,,,,,,6,1,1,1,2025-03-10_10h25.10.008,rtmindeye,2024.2.4,59.98411628058783,2025-03-10 10h25.29.832350 -0400,,,,,,,,,,,,,,,,,
all_stimuli/special515/special_24530.jpg,12,0,12,12,0,,,,0,0,1,1,1,"[9, 21, 31, 45, 56, 68, 69]",1,1,0.6497288001701236,0.20386829995550215,None,None,None,,,,,,,,,0,0,0,0,0,12,12,12,66.66157809994183,,,,,,,,,,,,,,,,,,,,,,66.63314220006578,66.63318579993211,66.65970789990388,66.66157809994183,66.66157809994183,66.66157809994183,66.66157809994183,69.666293,69.666293,70.64964499999769,1,1,0.6497288001701236,0.20386829995550215,None,70.64971220004372,70.64973299996927,None,70.64975599991158,70.64977289992385,None,,,,,,,,,,,6,1,1,1,2025-03-10_10h25.10.008,rtmindeye,2024.2.4,59.98411628058783,2025-03-10 10h25.29.832350 -0400,,,,,,,,,,,,,,,,,
all_stimuli/shared1000_notspecial/notspecial_6222.png,13,0,13,13,0,,,,0,0,1,1,1,"[9, 21, 31, 45, 56, 68, 69]",1,1,0.8925385000184178,0.17299650004133582,None,None,None,,,,,,,,,0,0,0,0,0,13,13,13,70.6828445,,,,,,,,,,,,,,,,,,,,,,70.64992729993537,70.64997079991736,70.68123449990526,70.6828445,70.6828445,70.6828445,70.6828445,73.6828305,73.6828305,74.66619060002267,1,1,0.8925385000184178,0.17299650004133582,None,74.66625740006566,74.66627739998512,None,74.66630039992742,74.66631749994121,None,,,,,,,,,,,6,1,1,1,2025-03-10_10h25.10.008,rtmindeye,2024.2.4,59.98411628058783,2025-03-10 10h25.29.832350 -0400,,,,,,,,,,,,,,,,,
all_stimuli/MST_pairs1/pair_44_w_log_cabin2.jpg,14,0,14,14,0,,,,0,0,1,1,1,"[9, 21, 31, 45, 56, 68, 69]",1,1,0.7909088998567313,0.20701280003413558,None,None,None,,,,,,,,,0,0,0,0,0,14,14,14,74.71329350001179,,,,,,,,,,,,,,,,,,,,,,74.66647380008362,74.6665178,74.71149010001682,74.71329350001179,74.71329350001179,74.71329350001179,74.71329350001179,77.71586770005524,77.71586770005524,78.68287919997238,1,1,0.7909088998567313,0.20701280003413558,None,78.68294629990123,78.68296650005504,None,78.68298979988322,78.68300729990005,None,,,,,,,,,,,6,1,1,1,2025-03-10_10h25.10.008,rtmindeye,2024.2.4,59.98411628058783,2025-03-10 10h25.29.832350 -0400,,,,,,,,,,,,,,,,,
all_stimuli/special515/special_28068.jpg,15,0,15,15,0,,,,0,0,1,1,1,"[9, 21, 31, 45, 56, 68, 69]",1,1,0.7140592,0.167905,None,None,None,,,,,,,,,0,0,0,0,0,15,15,15,78.71436779992655,,,,,,,,,,,,,,,,,,,,,,78.68315889989026,78.68320240010507,78.71249669999816,78.71436779992655,78.71436779992655,78.71436779992655,78.71436779992655,81.71666939998977,81.71666939998977,82.69946360005997,1,1,0.7140592,0.167905,None,82.69952849997208,82.69954929989763,None,82.69957259995863,82.69959009997547,None,,,,,,,,,,,6,1,1,1,2025-03-10_10h25.10.008,rtmindeye,2024.2.4,59.98411628058783,2025-03-10 10h25.29.832350 -0400,,,,,,,,,,,,,,,,,
all_stimuli/shared1000_notspecial/notspecial_60978.png,16,0,16,16,0,,,,0,0,1,1,1,"[9, 21, 31, 45, 56, 68, 69]",1,1,0.8408156000077724,0.16886729979887605,None,None,None,,,,,,,,,0,0,0,0,0,16,16,16,82.73563229991123,,,,,,,,,,,,,,,,,,,,,,82.69973629992455,82.69978190003894,82.73403769987635,82.73563229991123,82.73563229991123,82.73563229991123,82.73563229991123,85.74944530008361,85.74944530008361,86.71620039991103,1,1,0.8408156000077724,0.16886729979887605,None,86.71626710006967,86.71628779987805,None,86.71631029993296,86.71632739994675,None,,,,,,,,,,,6,1,1,1,2025-03-10_10h25.10.008,rtmindeye,2024.2.4,59.98411628058783,2025-03-10 10h25.29.832350 -0400,,,,,,,,,,,,,,,,,
all_stimuli/MST_pairs1/pair_2_4_22.png,17,0,17,17,0,,,,0,0,1,1,1,"[9, 21, 31, 45, 56, 68, 69]",1,1,0.7692938,0.15624199993908405,None,None,None,,,,,,,,,0,0,0,0,0,17,17,17,86.74682529992424,,,,,,,,,,,,,,,,,,,,,,86.71647899993695,86.71652329992503,86.74519759998657,86.74682529992424,86.74682529992424,86.74682529992424,86.74682529992424,89.74971770006232,89.74971770006232,90.73292259988375,1,1,0.7692938,0.15624199993908405,None,90.73299039993435,90.73301100009121,None,90.73303380003199,90.7330511,None,,,,,,,,,,,6,1,1,1,2025-03-10_10h25.10.008,rtmindeye,2024.2.4,59.98411628058783,2025-03-10 10h25.29.832350 -0400,,,,,,,,,,,,,,,,,
all_stimuli/shared1000_notspecial/notspecial_46160.png,18,0,18,18,0,,,,0,0,1,1,1,"[9, 21, 31, 45, 56, 68, 69]",1,1,0.5559006999246776,0.15780479996465147,None,None,None,,,,,,,,,0,0,0,0,0,18,18,18,90.80247029988095,,,,,,,,,,,,,,,,,,,,,,90.73320270003751,90.73324660002254,90.79903839994222,90.80247029988095,90.80247029988095,90.80247029988095,90.80247029988095,93.81609730003402,93.81609730003402,94.74973200005479,1,1,0.5559006999246776,0.15780479996465147,None,94.74979849997908,94.74981900001876,None,94.74984199996106,94.74985920009203,None,,,,,,,,,,,6,1,1,1,2025-03-10_10h25.10.008,rtmindeye,2024.2.4,59.98411628058783,2025-03-10 10h25.29.832350 -0400,,,,,,,,,,,,,,,,,
all_stimuli/special515/special_64880.jpg,19,0,19,19,0,,,,0,0,1,1,1,"[9, 21, 31, 45, 56, 68, 69]",1,1,0.6719003999605775,0.18491529999300838,None,None,None,,,,,,,,,0,0,0,0,0,19,19,19,94.77829820010811,,,,,,,,,,,,,,,,,,,,,,94.75001029996201,94.75005350005813,94.77639020001516,94.77829820010811,94.77829820010811,94.77829820010811,94.77829820010811,97.78259370010346,97.78259370010346,98.76622770004906,1,1,0.6719003999605775,0.18491529999300838,None,98.76629530009814,98.76631570002064,None,98.76635190006346,98.7663694,None,,,,,,,,,,,6,1,1,1,2025-03-10_10h25.10.008,rtmindeye,2024.2.4,59.98411628058783,2025-03-10 10h25.29.832350 -0400,,,,,,,,,,,,,,,,,
all_stimuli/MST_pairs1/pair_36_nsd_949_1_cocoid_43196.png,20,0,20,20,0,,,,0,0,1,1,1,"[9, 21, 31, 45, 56, 68, 69]",1,1,0.7824163001496345,0.19423020002432168,None,None,None,,,,,,,,,0,0,0,0,0,20,20,20,98.81768879992887,,,,,,,,,,,,,,,,,,,,,,98.76652220007963,98.76656599994749,98.81587369996123,98.81768879992887,98.81768879992887,98.81768879992887,98.81768879992887,101.83280030009337,101.83280030009337,102.78272740007378,1,1,0.7824163001496345,0.19423020002432168,None,102.78279289999045,102.78281309991144,None,102.78283590008505,102.78285340010189,None,,,,,,,,,,,6,1,1,1,2025-03-10_10h25.10.008,rtmindeye,2024.2.4,59.98411628058783,2025-03-10 10h25.29.832350 -0400,,,,,,,,,,,,,,,,,
blank.jpg,21,1,21,21,0,,,,0,0,1,1,1,"[9, 21, 31, 45, 56, 68, 69]",1,1,1.4087957001756877,0.22310529998503625,None,None,None,,,,,,,,,0,0,0,0,0,21,21,21,102.7994522000663,,,,,,,,,,,,,,,,,,,,,,102.78300349996425,102.78304710006341,102.79257309995592,102.7994522000663,102.7994522000663,102.7994522000663,102.7994522000663,105.79964790004306,105.79964790004306,106.7829227000475,1,1,1.4087957001756877,0.22310529998503625,None,106.78298250003718,106.78300229995511,None,106.78302600001916,106.78304310003296,None,106.80014720000327,106.80014720000327,,,,,,,,,6,1,1,1,2025-03-10_10h25.10.008,rtmindeye,2024.2.4,59.98411628058783,2025-03-10 10h25.29.832350 -0400,,,,,,,,,,,,,,,,,
all_stimuli/special515/special_30632.jpg,22,0,22,22,0,,,,1,0,1,1,1,"[9, 21, 31, 45, 56, 68, 69]",1,0,0.7360623998101801,0.19801110005937517,None,None,None,,,,,,,,,0,0,0,0,0,22,22,22,106.80014720000327,,,,,,,,,,,,,,,,,,,,,,106.78318960010074,106.78323760000058,106.7983923999127,106.80014720000327,106.80014720000327,106.80014720000327,106.80014720000327,109.79962900001556,109.79962900001556,110.78301739995368,1,0,0.7360623998101801,0.19801110005937517,None,110.78307970007882,110.78309969999827,None,110.78312240005471,110.7831391999498,None,110.82009740010835,110.82009740010835,,,,,,,,,6,1,1,1,2025-03-10_10h25.10.008,rtmindeye,2024.2.4,59.98411628058783,2025-03-10 10h25.29.832350 -0400,,,,,,,,,,,,,,,,,
all_stimuli/MST_pairs1/pair_20_nsd_41_2_cocoid_63715.png,23,0,23,23,0,,,,1,0,1,1,1,"[9, 21, 31, 45, 56, 68, 69]",1,0,0.8592403000220656,0.1630034998524934,None,None,None,,,,,,,,,0,0,0,0,0,23,23,23,110.82009740010835,,,,,,,,,,,,,,,,,,,,,,110.78329010005109,110.78332810010761,110.81814129999839,110.82009740010835,110.82009740010835,110.82009740010835,110.82009740010835,113.8329117000103,113.8329117000103,114.79984720004722,1,0,0.8592403000220656,0.1630034998524934,None,114.79991520009935,114.7999360000249,None,114.79995890008286,114.79997580009513,None,,,,,,,,,,,6,1,1,1,2025-03-10_10h25.10.008,rtmindeye,2024.2.4,59.98411628058783,2025-03-10 10h25.29.832350 -0400,,,,,,,,,,,,,,,,,
all_stimuli/MST_pairs1/pair_22_nsd_115_2_cocoid_65194.png,24,0,24,24,0,,,,0,0,1,1,1,"[9, 21, 31, 45, 56, 68, 69]",1,1,0.7052584998309612,0.17886780016124249,None,None,None,,,,,,,,,0,0,0,0,0,24,24,24,114.86602650000714,,,,,,,,,,,,,,,,,,,,,,114.80013659992255,114.80018109991215,114.86272180010565,114.86602650000714,114.86602650000714,114.86602650000714,114.86602650000714,117.86628199997358,117.86628199997358,118.81602289993316,1,1,0.7052584998309612,0.17886780016124249,None,118.81609049998224,118.81611089990474,None,118.81613359996118,118.81615060009062,None,,,,,,,,,,,6,1,1,1,2025-03-10_10h25.10.008,rtmindeye,2024.2.4,59.98411628058783,2025-03-10 10h25.29.832350 -0400,,,,,,,,,,,,,,,,,
all_stimuli/shared1000_notspecial/notspecial_26292.png,25,0,25,25,0,,,,0,0,1,1,1,"[9, 21, 31, 45, 56, 68, 69]",1,1,0.8774880000855774,0.2578125,None,None,None,,,,,,,,,0,0,0,0,0,25,25,25,118.8529445999302,,,,,,,,,,,,,,,,,,,,,,118.81630529998802,118.81634890008718,118.85136259999126,118.8529445999302,118.8529445999302,118.8529445999302,118.8529445999302,121.86614449997433,121.86614449997433,122.83297650003806,1,1,0.8774880000855774,0.2578125,None,122.83304459997453,122.83306490001269,None,122.83308820007369,122.83310510008596,None,,,,,,,,,,,6,1,1,1,2025-03-10_10h25.10.008,rtmindeye,2024.2.4,59.98411628058783,2025-03-10 10h25.29.832350 -0400,,,,,,,,,,,,,,,,,
all_stimuli/special515/special_6489.jpg,26,0,26,26,0,,,,1,0,1,1,1,"[9, 21, 31, 45, 56, 68, 69]",1,0,0.7053781000431627,0.19589799991808832,None,None,None,,,,,,,,,0,0,0,0,0,26,26,26,122.85085489996709,,,,,,,,,,,,,,,,,,,,,,122.8332624998875,122.83330640010536,122.8490557000041,122.85085489996709,122.85085489996709,122.85085489996709,122.85085489996709,125.86597959999926,125.86597959999926,126.84952630009502,1,0,0.7053781000431627,0.19589799991808832,None,126.84959349990822,126.84961859998293,None,126.84964210004546,126.84965920005925,None,,,,,,,,,,,6,1,1,1,2025-03-10_10h25.10.008,rtmindeye,2024.2.4,59.98411628058783,2025-03-10 10h25.29.832350 -0400,,,,,,,,,,,,,,,,,
all_stimuli/special515/special_55678.jpg,27,0,27,27,0,,,,0,0,1,1,1,"[9, 21, 31, 45, 56, 68, 69]",1,1,0.7737998999655247,0.20410940004512668,None,None,None,,,,,,,,,0,0,0,0,0,27,27,27,126.90151940006763,,,,,,,,,,,,,,,,,,,,,,126.84981180005707,126.84985619992949,126.89966350002214,126.90151940006763,126.90151940006763,126.90151940006763,126.90151940006763,129.91599530004896,129.91599530004896,130.8663574999664,1,1,0.7737998999655247,0.20410940004512668,None,130.8664261000231,130.86644629994407,None,130.8664690000005,130.86648599989712,None,,,,,,,,,,,6,1,1,1,2025-03-10_10h25.10.008,rtmindeye,2024.2.4,59.98411628058783,2025-03-10 10h25.29.832350 -0400,,,,,,,,,,,,,,,,,
all_stimuli/special515/special_40909.jpg,28,0,28,28,0,,,,0,0,1,1,1,"[9, 21, 31, 45, 56, 68, 69]",1,1,0.9098514998331666,0.21695400006137788,None,None,None,,,,,,,,,0,0,0,0,0,28,28,28,130.88654579990543,,,,,,,,,,,,,,,,,,,,,,130.86663629999384,130.86667939997278,130.88483799993992,130.88654579990543,130.88654579990543,130.88654579990543,130.88654579990543,133.89891220000573,133.89891220000573,134.88279579998925,1,1,0.9098514998331666,0.21695400006137788,None,134.88286380004138,134.88288419996388,None,134.88290730002336,134.88292469992302,None,,,,,,,,,,,6,1,1,1,2025-03-10_10h25.10.008,rtmindeye,2024.2.4,59.98411628058783,2025-03-10 10h25.29.832350 -0400,,,,,,,,,,,,,,,,,
all_stimuli/special515/special_70360.jpg,29,0,29,29,0,,,,0,0,1,1,1,"[9, 21, 31, 45, 56, 68, 69]",1,1,0.6644030001480132,0.2009997998829931,None,None,None,,,,,,,,,0,0,0,0,0,29,29,29,134.9187413000036,,,,,,,,,,,,,,,,,,,,,,134.88308000005782,134.8831231999211,134.91688579996116,134.9187413000036,134.9187413000036,134.9187413000036,134.9187413000036,137.93265080009587,137.93265080009587,138.89977209991775,1,1,0.6644030001480132,0.2009997998829931,None,138.8998384999577,138.89985929988325,None,138.89988259994425,138.89989980007522,None,,,,,,,,,,,6,1,1,1,2025-03-10_10h25.10.008,rtmindeye,2024.2.4,59.98411628058783,2025-03-10 10h25.29.832350 -0400,,,,,,,,,,,,,,,,,
all_stimuli/MST_pairs1/pair_42_w_icerink1.jpg,30,0,30,30,0,,,,0,0,1,1,1,"[9, 21, 31, 45, 56, 68, 69]",1,1,0.9560813999269158,0.194959,None,None,None,,,,,,,,,0,0,0,0,0,30,30,30,138.93835430010222,,,,,,,,,,,,,,,,,,,,,,138.90005660010502,138.90010070009157,138.93668640009128,138.93835430010222,138.93835430010222,138.93835430010222,138.93835430010222,141.9495649000164,141.9495649000164,142.91608410002664,1,1,0.9560813999269158,0.194959,None,142.91615019994788,142.91617029998451,None,142.91619240003638,142.9162089000456,None,,,,,,,,,,,6,1,1,1,2025-03-10_10h25.10.008,rtmindeye,2024.2.4,59.98411628058783,2025-03-10 10h25.29.832350 -0400,,,,,,,,,,,,,,,,,
blank.jpg,31,1,31,31,0,,,,0,0,1,1,1,"[9, 21, 31, 45, 56, 68, 69]",1,1,0.9293544001411647,0.19498459994792938,None,None,None,,,,,,,,,0,0,0,0,0,31,31,31,142.93289509997703,,,,,,,,,,,,,,,,,,,,,,142.91635879990645,142.91640200000256,142.92468519997783,142.93289509997703,142.93289509997703,142.93289509997703,142.93289509997703,145.93283779988997,145.93283779988997,146.91637079999782,1,1,0.9293544001411647,0.19498459994792938,None,146.91643159999512,146.9164513000287,None,146.91647369996645,146.91649030009285,None,146.93500469997525,146.93500469997525,,,,,,,,,6,1,1,1,2025-03-10_10h25.10.008,rtmindeye,2024.2.4,59.98411628058783,2025-03-10 10h25.29.832350 -0400,,,,,,,,,,,,,,,,,
all_stimuli/special515/special_30430.jpg,32,0,32,32,0,,,,1,0,1,1,1,"[9, 21, 31, 45, 56, 68, 69]",1,0,0.6272070000413805,0.20393530000001192,None,None,None,,,,,,,,,0,0,0,0,0,32,32,32,146.93500469997525,,,,,,,,,,,,,,,,,,,,,,146.91663870005868,146.9166772000026,146.93327410006896,146.93500469997525,146.93500469997525,146.93500469997525,146.93500469997525,149.9493728999514,149.9493728999514,150.93288669991307,1,0,0.6272070000413805,0.20393530000001192,None,150.93295409996063,150.93297489988618,None,150.93299799994566,150.93301509995945,None,,,,,,,,,,,6,1,1,1,2025-03-10_10h25.10.008,rtmindeye,2024.2.4,59.98411628058783,2025-03-10 10h25.29.832350 -0400,,,,,,,,,,,,,,,,,
all_stimuli/shared1000_notspecial/notspecial_43746.png,33,0,33,33,0,,,,0,0,1,1,1,"[9, 21, 31, 45, 56, 68, 69]",1,1,0.7001485999207944,0.2210039000492543,None,None,None,,,,,,,,,0,0,0,0,0,33,33,33,150.98203040007502,,,,,,,,,,,,,,,,,,,,,,150.9331704999786,150.93321390007623,150.9804267999716,150.98203040007502,150.98203040007502,150.98203040007502,150.98203040007502,153.98277730005793,153.98277730005793,154.9495836000424,1,1,0.7001485999207944,0.2210039000492543,None,154.94964960007928,154.94967009988613,None,154.9496931999456,154.94971080007963,None,,,,,,,,,,,6,1,1,1,2025-03-10_10h25.10.008,rtmindeye,2024.2.4,59.98411628058783,2025-03-10 10h25.29.832350 -0400,,,,,,,,,,,,,,,,,
all_stimuli/MST_pairs1/pair_34_nsd_875_1_cocoid_67762.png,34,0,34,34,0,,,,0,0,1,1,1,"[9, 21, 31, 45, 56, 68, 69]",1,1,1.0298697999678552,0.2249509000685066,None,None,None,,,,,,,,,0,0,0,0,0,34,34,34,155.01337549998425,,,,,,,,,,,,,,,,,,,,,,154.94986360007897,154.94996339990757,155.0092615999747,155.01337549998425,155.01337549998425,155.01337549998425,155.01337549998425,158.01615129993297,158.01615129993297,158.9660745000001,1,1,1.0298697999678552,0.2249509000685066,None,158.96614119992591,158.96616160008125,None,158.96618460002355,158.96620159992017,None,,,,,,,,,,,6,1,1,1,2025-03-10_10h25.10.008,rtmindeye,2024.2.4,59.98411628058783,2025-03-10 10h25.29.832350 -0400,,,,,,,,,,,,,,,,,
all_stimuli/MST_pairs1/pair_12_16_78.png,35,0,35,35,0,,,,1,0,1,1,1,"[9, 21, 31, 45, 56, 68, 69]",1,0,0.6575129,0.21913420013152063,None,None,None,,,,,,,,,0,0,0,0,0,35,35,35,158.9836794999428,,,,,,,,,,,,,,,,,,,,,,158.9663525999058,158.96639569988474,158.9820121000521,158.9836794999428,158.9836794999428,158.9836794999428,158.9836794999428,161.9826251999475,161.9826251999475,162.98265750007704,1,0,0.6575129,0.21913420013152063,None,162.98272329987958,162.98274310003035,None,162.9827660000883,162.98278319998644,None,,,,,,,,,,,6,1,1,1,2025-03-10_10h25.10.008,rtmindeye,2024.2.4,59.98411628058783,2025-03-10 10h25.29.832350 -0400,,,,,,,,,,,,,,,,,
all_stimuli/special515/special_4249.jpg,36,0,36,36,0,,,,1,0,1,1,1,"[9, 21, 31, 45, 56, 68, 69]",1,0,0.7297968,0.22512560011819005,None,None,None,,,,,,,,,0,0,0,0,0,36,36,36,163.00239249994047,,,,,,,,,,,,,,,,,,,,,,162.9829325999599,162.9829762999434,163.00058460002765,163.00239249994047,163.00239249994047,163.00239249994047,163.00239249994047,166.01597750000656,166.01597750000656,166.99898959998973,1,0,0.7297968,0.22512560011819005,None,166.9990550999064,166.99907550006174,None,166.99909839988686,166.99911580001935,None,,,,,,,,,,,6,1,1,1,2025-03-10_10h25.10.008,rtmindeye,2024.2.4,59.98411628058783,2025-03-10 10h25.29.832350 -0400,,,,,,,,,,,,,,,,,
all_stimuli/MST_pairs1/pair_42_w_icerink2.jpg,37,0,37,37,0,,,,1,0,1,1,1,"[9, 21, 31, 45, 56, 68, 69]",2,1,0.8353635,0.19132560002617538,None,None,None,,,,,,,,,0,0,0,0,0,37,37,37,167.01575529994443,,,,,,,,,,,,,,,,,,,,,,166.99926399998367,166.99930800008588,167.0141002999153,167.01575529994443,167.01575529994443,167.01575529994443,167.01575529994443,170.01600859989412,170.01600859989412,170.9994057000149,2,1,0.8353635,0.19132560002617538,None,170.99948009988293,170.9995005999226,None,170.99952380009927,170.99954119999893,None,171.03392570000142,171.03392570000142,,,,,,,,,6,1,1,1,2025-03-10_10h25.10.008,rtmindeye,2024.2.4,59.98411628058783,2025-03-10 10h25.29.832350 -0400,,,,,,,,,,,,,,,,,
all_stimuli/shared1000_notspecial/notspecial_70038.png,38,0,38,38,0,,,,0,0,1,1,1,"[9, 21, 31, 45, 56, 68, 69]",1,1,0.8192239999771118,0.2460172998253256,None,None,None,,,,,,,,,0,0,0,0,0,38,38,38,171.03392570000142,,,,,,,,,,,,,,,,,,,,,,170.99968959996477,170.99972849991173,171.03228779998608,171.03392570000142,171.03392570000142,171.03392570000142,171.03392570000142,174.04936870001256,174.04936870001256,175.01614159997553,1,1,0.8192239999771118,0.2460172998253256,None,175.0162084000185,175.01622899994254,None,175.01625169999897,175.01626860001124,None,,,,,,,,,,,6,1,1,1,2025-03-10_10h25.10.008,rtmindeye,2024.2.4,59.98411628058783,2025-03-10 10h25.29.832350 -0400,,,,,,,,,,,,,,,,,
all_stimuli/special515/special_53155.jpg,39,0,39,39,0,,,,0,0,1,1,1,"[9, 21, 31, 45, 56, 68, 69]",1,1,0.7639733999967575,0.22888609999790788,None,None,None,,,,,,,,,0,0,0,0,0,39,39,39,175.0454428999219,,,,,,,,,,,,,,,,,,,,,,175.01642460003495,175.01646850001998,175.0435393000953,175.0454428999219,175.0454428999219,175.0454428999219,175.0454428999219,178.04899800010026,178.04899800010026,179.03238249989226,1,1,0.7639733999967575,0.22888609999790788,None,179.03244849992916,179.03246830007993,None,179.03249099990353,179.0325078999158,None,,,,,,,,,,,6,1,1,1,2025-03-10_10h25.10.008,rtmindeye,2024.2.4,59.98411628058783,2025-03-10 10h25.29.832350 -0400,,,,,,,,,,,,,,,,,
all_stimuli/special515/special_24530.jpg,40,0,40,40,0,,,,1,0,1,1,1,"[9, 21, 31, 45, 56, 68, 69]",1,0,1.0339313999284059,0.20423,None,None,None,,,,,,,,,0,0,0,0,0,40,40,40,179.04916619998403,,,,,,,,,,,,,,,,,,,,,,179.03265809989534,179.03270189999603,179.0446347000543,179.04916619998403,179.04916619998403,179.04916619998403,179.04916619998403,182.0493346999865,182.0493346999865,183.03294120007195,1,0,1.0339313999284059,0.20423,None,183.03301079990342,183.03303120005876,None,183.0330546000041,183.03307150001638,None,,,,,,,,,,,6,1,1,1,2025-03-10_10h25.10.008,rtmindeye,2024.2.4,59.98411628058783,2025-03-10 10h25.29.832350 -0400,,,,,,,,,,,,,,,,,
all_stimuli/special515/special_32232.jpg,41,0,41,41,0,,,,0,0,1,1,1,"[9, 21, 31, 45, 56, 68, 69]",1,1,0.8233405998907983,0.27119160001166165,None,None,None,,,,,,,,,0,0,0,0,0,41,41,41,183.0767210999038,,,,,,,,,,,,,,,,,,,,,,183.0332317999564,183.0332752999384,183.07485050009564,183.0767210999038,183.0767210999038,183.0767210999038,183.0767210999038,186.0825809999369,186.0825809999369,187.0493620999623,1,1,0.8233405998907983,0.27119160001166165,None,187.04942950000986,187.04945169994608,None,187.04947469988838,187.04949159990065,None,,,,,,,,,,,6,1,1,1,2025-03-10_10h25.10.008,rtmindeye,2024.2.4,59.98411628058783,2025-03-10 10h25.29.832350 -0400,,,,,,,,,,,,,,,,,
all_stimuli/special515/special_41814.jpg,42,0,42,42,0,,,,0,0,1,1,1,"[9, 21, 31, 45, 56, 68, 69]",1,1,0.7931184000335634,0.19812399987131357,None,None,None,,,,,,,,,0,0,0,0,0,42,42,42,187.0990442999173,,,,,,,,,,,,,,,,,,,,,,187.0496427998878,187.04968650010414,187.09733089990914,187.0990442999173,187.0990442999173,187.0990442999173,187.0990442999173,190.09912130003795,190.09912130003795,191.06590309995227,1,1,0.7931184000335634,0.19812399987131357,None,191.0659694999922,191.06598980003037,None,191.06601210008375,191.06602969998494,None,,,,,,,,,,,6,1,1,1,2025-03-10_10h25.10.008,rtmindeye,2024.2.4,59.98411628058783,2025-03-10 10h25.29.832350 -0400,,,,,,,,,,,,,,,,,
all_stimuli/shared1000_notspecial/notspecial_23883.png,43,0,43,43,0,,,,0,0,1,1,1,"[9, 21, 31, 45, 56, 68, 69]",1,1,0.9428913001902401,0.20911249984055758,None,None,None,,,,,,,,,0,0,0,0,0,43,43,43,191.08836110006087,,,,,,,,,,,,,,,,,,,,,,191.06617920007557,191.06622330006212,191.0866032000631,191.08836110006087,191.08836110006087,191.08836110006087,191.08836110006087,194.09919969993643,194.09919969993643,195.0823311000131,1,1,0.9428913001902401,0.20911249984055758,None,195.0823963000439,195.08241589996032,None,195.08243840001523,195.08245539991185,None,,,,,,,,,,,6,1,1,1,2025-03-10_10h25.10.008,rtmindeye,2024.2.4,59.98411628058783,2025-03-10 10h25.29.832350 -0400,,,,,,,,,,,,,,,,,
all_stimuli/shared1000_notspecial/notspecial_4436.png,44,0,44,44,0,,,,0,0,1,1,1,"[9, 21, 31, 45, 56, 68, 69]",1,1,0.8499536998569965,0.18918150011450052,None,None,None,,,,,,,,,0,0,0,0,0,44,44,44,195.1161543999333,,,,,,,,,,,,,,,,,,,,,,195.08260699990205,195.0826510998886,195.11456179991364,195.1161543999333,195.1161543999333,195.1161543999333,195.1161543999333,198.1160222000908,198.1160222000908,199.099324,1,1,0.8499536998569965,0.18918150011450052,None,199.09939179988578,199.09941260004416,None,199.09943550010212,199.09945249999873,None,,,,,,,,,,,6,1,1,1,2025-03-10_10h25.10.008,rtmindeye,2024.2.4,59.98411628058783,2025-03-10 10h25.29.832350 -0400,,,,,,,,,,,,,,,,,
blank.jpg,45,1,45,45,0,,,,0,0,1,1,1,"[9, 21, 31, 45, 56, 68, 69]",2,0,1.2945300000719726,0.1781595000065863,None,None,None,,,,,,,,,0,0,0,0,0,45,45,45,199.11567489989102,,,,,,,,,,,,,,,,,,,,,,199.0996332000941,199.0996774,199.1092393998988,199.11567489989102,199.11567489989102,199.11567489989102,199.11567489989102,202.11588989989832,202.11588989989832,203.09917020006105,2,0,1.2945300000719726,0.1781595000065863,None,203.09923169994727,203.09925090009347,None,203.09927399992011,203.09929060004652,None,203.11639399989508,203.11639399989508,,,,,,,,,6,1,1,1,2025-03-10_10h25.10.008,rtmindeye,2024.2.4,59.98411628058783,2025-03-10 10h25.29.832350 -0400,,,,,,,,,,,,,,,,,
all_stimuli/special515/special_61133.jpg,46,0,46,46,0,,,,1,0,1,1,1,"[9, 21, 31, 45, 56, 68, 69]",1,0,0.9848120999522507,0.21589970006607473,None,None,None,,,,,,,,,0,0,0,0,0,46,46,46,203.11639399989508,,,,,,,,,,,,,,,,,,,,,,203.09943510009907,203.09947229991667,203.1146044000052,203.11639399989508,203.11639399989508,203.11639399989508,203.11639399989508,206.1158507000655,206.1158507000655,207.09924630005844,1,0,0.9848120999522507,0.21589970006607473,None,207.0993073999416,207.09932769997977,None,207.09935109992512,207.09936790005304,None,207.17405720008537,207.17405720008537,,,,,,,,,6,1,1,1,2025-03-10_10h25.10.008,rtmindeye,2024.2.4,59.98411628058783,2025-03-10 10h25.29.832350 -0400,,,,,,,,,,,,,,,,,
all_stimuli/MST_pairs1/pair_24_nsd_158_2_cocoid_3673.png,47,0,47,47,0,,,,0,0,1,1,1,"[9, 21, 31, 45, 56, 68, 69]",1,1,1.0832624,0.22578189987689257,None,None,None,,,,,,,,,0,0,0,0,0,47,47,47,207.17405720008537,,,,,,,,,,,,,,,,,,,,,,207.0995310000144,207.09957000007853,207.1704307999462,207.17405720008537,207.17405720008537,207.17405720008537,207.17405720008537,210.18221969995648,210.18221969995648,211.1160869000014,1,1,1.0832624,0.22578189987689257,None,211.11615410004742,211.11617489997298,None,211.11619749991223,211.11621479992755,None,,,,,,,,,,,6,1,1,1,2025-03-10_10h25.10.008,rtmindeye,2024.2.4,59.98411628058783,2025-03-10 10h25.29.832350 -0400,,,,,,,,,,,,,,,,,
all_stimuli/MST_pairs1/pair_34_nsd_875_2_cocoid_72398.png,48,0,48,48,0,,,,0,0,1,1,1,"[9, 21, 31, 45, 56, 68, 69]",2,0,1.2400816997978836,0.1769847001414746,None,None,None,,,,,,,,,0,0,0,0,0,48,48,48,211.17423320002854,,,,,,,,,,,,,,,,,,,,,,211.11637539998628,211.11642899992876,211.17236529989168,211.17423320002854,211.17423320002854,211.17423320002854,211.17423320002854,214.18263819999993,214.18263819999993,215.13261389988475,2,0,1.2400816997978836,0.1769847001414746,None,215.1326804999262,215.1327009999659,None,215.13272379990667,215.13274640007876,None,,,,,,,,,,,6,1,1,1,2025-03-10_10h25.10.008,rtmindeye,2024.2.4,59.98411628058783,2025-03-10 10h25.29.832350 -0400,,,,,,,,,,,,,,,,,
all_stimuli/shared1000_notspecial/notspecial_51965.png,49,0,49,49,0,,,,0,0,1,1,1,"[9, 21, 31, 45, 56, 68, 69]",1,1,0.8566856998950243,0.21805280004628003,None,None,None,,,,,,,,,0,0,0,0,0,49,49,49,215.1805517000612,,,,,,,,,,,,,,,,,,,,,,215.13289760006592,215.13294199993834,215.1787940999493,215.1805517000612,215.1805517000612,215.1805517000612,215.1805517000612,218.1823851999361,218.1823851999361,219.1493027000688,1,1,0.8566856998950243,0.21805280004628003,None,219.14937009988353,219.1493905999232,None,219.14941349998116,219.14943059999496,None,,,,,,,,,,,6,1,1,1,2025-03-10_10h25.10.008,rtmindeye,2024.2.4,59.98411628058783,2025-03-10 10h25.29.832350 -0400,,,,,,,,,,,,,,,,,
all_stimuli/MST_pairs1/pair_30_nsd_676_1_cocoid_48729.png,50,0,50,50,0,,,,0,0,1,1,1,"[9, 21, 31, 45, 56, 68, 69]",1,1,0.8291604998521507,0.2090328000485897,None,None,None,,,,,,,,,0,0,0,0,0,50,50,50,219.2171213000547,,,,,,,,,,,,,,,,,,,,,,219.1495870000217,219.14963039988652,219.21350970002823,219.2171213000547,219.2171213000547,219.2171213000547,219.2171213000547,222.23257209989242,222.23257209989242,223.16583240008913,1,1,0.8291604998521507,0.2090328000485897,None,223.16589959990233,223.1659201,None,223.16594349988736,223.16596039989963,None,,,,,,,,,,,6,1,1,1,2025-03-10_10h25.10.008,rtmindeye,2024.2.4,59.98411628058783,2025-03-10 10h25.29.832350 -0400,,,,,,,,,,,,,,,,,
all_stimuli/shared1000_notspecial/notspecial_52328.png,51,0,51,51,0,,,,0,0,1,1,1,"[9, 21, 31, 45, 56, 68, 69]",1,1,0.6375335999764502,0.17501410003751516,None,None,None,,,,,,,,,0,0,0,0,0,51,51,51,223.19657419994473,,,,,,,,,,,,,,,,,,,,,,223.1661125998944,223.16615619999357,223.19480339996517,223.19657419994473,223.19657419994473,223.19657419994473,223.19657419994473,226.19901990005746,226.19901990005746,227.18282010010444,1,1,0.6375335999764502,0.17501410003751516,None,227.1828868999146,227.1829071000684,None,227.18292959989049,227.18294709990732,None,,,,,,,,,,,6,1,1,1,2025-03-10_10h25.10.008,rtmindeye,2024.2.4,59.98411628058783,2025-03-10 10h25.29.832350 -0400,,,,,,,,,,,,,,,,,
all_stimuli/MST_pairs1/pair_4_6_44.png,52,0,52,52,0,,,,0,0,1,1,1,"[9, 21, 31, 45, 56, 68, 69]",1,1,0.7283239001408219,0.1809036999475211,None,None,None,,,,,,,,,0,0,0,0,0,52,52,52,227.2188875998836,,,,,,,,,,,,,,,,,,,,,,227.1831032000482,227.18314719991758,227.21725389990024,227.2188875998836,227.2188875998836,227.2188875998836,227.2188875998836,230.2324991999194,230.2324991999194,231.19907200010493,1,1,0.7283239001408219,0.1809036999475211,None,231.19913870003074,231.19915909995325,None,231.19918209989555,231.19919930002652,None,,,,,,,,,,,6,1,1,1,2025-03-10_10h25.10.008,rtmindeye,2024.2.4,59.98411628058783,2025-03-10 10h25.29.832350 -0400,,,,,,,,,,,,,,,,,
all_stimuli/MST_pairs1/pair_48_w_runway1.jpg,53,0,53,53,0,,,,0,0,1,1,1,"[9, 21, 31, 45, 56, 68, 69]",1,1,0.6169489,0.20201639994047582,None,None,None,,,,,,,,,0,0,0,0,0,53,53,53,231.23213419993408,,,,,,,,,,,,,,,,,,,,,,231.19934979989193,231.19939480000176,231.23046969994903,231.23213419993408,231.23213419993408,231.23213419993408,231.23213419993408,234.2325500000734,234.2325500000734,235.21593359997496,1,1,0.6169489,0.20201639994047582,None,235.2160014999099,235.21602239995264,None,235.2160449998919,235.21606209990568,None,,,,,,,,,,,6,1,1,1,2025-03-10_10h25.10.008,rtmindeye,2024.2.4,59.98411628058783,2025-03-10 10h25.29.832350 -0400,,,,,,,,,,,,,,,,,
all_stimuli/special515/special_40840.jpg,54,0,54,54,0,,,,1,0,1,1,1,"[9, 21, 31, 45, 56, 68, 69]",2,1,0.9830106999725103,0.1449273000471294,None,None,None,,,,,,,,,0,0,0,0,0,54,54,54,235.23818119987845,,,,,,,,,,,,,,,,,,,,,,235.21621429990046,235.2162581998855,235.23613879992627,235.23818119987845,235.23818119987845,235.23818119987845,235.23818119987845,238.24900850001723,238.24900850001723,239.23229110008106,2,1,0.9830106999725103,0.1449273000471294,None,239.23235709988512,239.23237730003893,None,239.23239969997667,239.2324165001046,None,,,,,,,,,,,6,1,1,1,2025-03-10_10h25.10.008,rtmindeye,2024.2.4,59.98411628058783,2025-03-10 10h25.29.832350 -0400,,,,,,,,,,,,,,,,,
all_stimuli/shared1000_notspecial/notspecial_12487.png,55,0,55,55,0,,,,0,0,1,1,1,"[9, 21, 31, 45, 56, 68, 69]",1,1,0.7901431999634951,0.22002750006504357,None,None,None,,,,,,,,,0,0,0,0,0,55,55,55,239.2579552999232,,,,,,,,,,,,,,,,,,,,,,239.2325661999639,239.23262330004945,239.2562351000961,239.2579552999232,239.2579552999232,239.2579552999232,239.2579552999232,242.26593140000477,242.26593140000477,243.2491458998993,1,1,0.7901431999634951,0.22002750006504357,None,243.24921309994534,243.24923390010372,None,243.2492575000506,243.24927440006286,None,,,,,,,,,,,6,1,1,1,2025-03-10_10h25.10.008,rtmindeye,2024.2.4,59.98411628058783,2025-03-10 10h25.29.832350 -0400,,,,,,,,,,,,,,,,,
blank.jpg,56,1,56,56,0,,,,0,0,1,1,1,"[9, 21, 31, 45, 56, 68, 69]",2,0,0.7342284000478685,0.19689100002869964,None,None,None,,,,,,,,,0,0,0,0,0,56,56,56,243.26792060001753,,,,,,,,,,,,,,,,,,,,,,243.24943269998766,243.2494757999666,243.26629399997182,243.26792060001753,243.26792060001753,243.26792060001753,243.26792060001753,246.28246099990793,246.28246099990793,247.2657381000463,2,0,0.7342284000478685,0.19689100002869964,None,247.2658021999523,247.26582229998894,None,247.26584460004233,247.2658615000546,None,,,,,,,,,,,6,1,1,1,2025-03-10_10h25.10.008,rtmindeye,2024.2.4,59.98411628058783,2025-03-10 10h25.29.832350 -0400,,,,,,,,,,,,,,,,,
all_stimuli/MST_pairs1/pair_16_20_0.png,57,0,57,57,0,,,,1,0,1,1,1,"[9, 21, 31, 45, 56, 68, 69]",1,0,1.0762869000900537,0.2349151000380516,None,None,None,,,,,,,,,0,0,0,0,0,57,57,57,247.2850713999942,,,,,,,,,,,,,,,,,,,,,,247.26602219999768,247.2660658999812,247.28345649992116,247.2850713999942,247.2850713999942,247.2850713999942,247.2850713999942,250.29893669998273,250.29893669998273,251.2825464999769,1,0,1.0762869000900537,0.2349151000380516,None,251.2826123998966,251.2826324000489,None,251.2826560998801,251.28267330001108,None,,,,,,,,,,,6,1,1,1,2025-03-10_10h25.10.008,rtmindeye,2024.2.4,59.98411628058783,2025-03-10 10h25.29.832350 -0400,,,,,,,,,,,,,,,,,
all_stimuli/shared1000_notspecial/notspecial_12685.png,58,0,58,58,0,,,,0,0,1,1,1,"[9, 21, 31, 45, 56, 68, 69]",1,1,0.9084890000522137,0.2138651,None,None,None,,,,,,,,,0,0,0,0,0,58,58,58,251.31482569989748,,,,,,,,,,,,,,,,,,,,,,251.2828245998826,251.28286819998175,251.3130516000092,251.31482569989748,251.31482569989748,251.31482569989748,251.31482569989748,254.31571380002424,254.31571380002424,255.29914440005086,1,1,0.9084890000522137,0.2138651,None,255.29921140009537,255.2992312000133,None,255.2992545000743,255.29927180008963,None,,,,,,,,,,,6,1,1,1,2025-03-10_10h25.10.008,rtmindeye,2024.2.4,59.98411628058783,2025-03-10 10h25.29.832350 -0400,,,,,,,,,,,,,,,,,
all_stimuli/MST_pairs1/pair_36_nsd_949_2_cocoid_60031.png,59,0,59,59,0,,,,0,0,1,1,1,"[9, 21, 31, 45, 56, 68, 69]",1,1,0.7842015000060201,0.18116399995051324,None,None,None,,,,,,,,,0,0,0,0,0,59,59,59,255.34785029990599,,,,,,,,,,,,,,,,,,,,,,255.2994280999992,255.29947119997814,255.34612459992059,255.34785029990599,255.34785029990599,255.34785029990599,255.34785029990599,258.3490804999601,258.3490804999601,259.3157458000351,1,1,0.7842015000060201,0.18116399995051324,None,259.3158118999563,259.31583199999295,None,259.3158547000494,259.3158717,None,,,,,,,,,,,6,1,1,1,2025-03-10_10h25.10.008,rtmindeye,2024.2.4,59.98411628058783,2025-03-10 10h25.29.832350 -0400,,,,,,,,,,,,,,,,,
all_stimuli/shared1000_notspecial/notspecial_34068.png,60,0,60,60,0,,,,0,0,1,1,1,"[9, 21, 31, 45, 56, 68, 69]",1,1,0.7952559997793287,0.17198060010559857,None,None,None,,,,,,,,,0,0,0,0,0,60,60,60,259.3460341999307,,,,,,,,,,,,,,,,,,,,,,259.31602369993925,259.3160671000369,259.3444393998943,259.3460341999307,259.3460341999307,259.3460341999307,259.3460341999307,262.34905509999953,262.34905509999953,263.3324748000596,1,1,0.7952559997793287,0.17198060010559857,None,263.33254049997777,263.3325608999003,None,263.3325841999613,263.33260140009224,None,,,,,,,,,,,6,1,1,1,2025-03-10_10h25.10.008,rtmindeye,2024.2.4,59.98411628058783,2025-03-10 10h25.29.832350 -0400,,,,,,,,,,,,,,,,,
all_stimuli/special515/special_11159.jpg,61,0,61,61,0,,,,0,0,1,1,1,"[9, 21, 31, 45, 56, 68, 69]",1,1,0.9212515000253916,0.2029302001465112,None,None,None,,,,,,,,,0,0,0,0,0,61,61,61,263.40497489995323,,,,,,,,,,,,,,,,,,,,,,263.3327520999592,263.33279590005986,263.40144059993327,263.40497489995323,263.40497489995323,263.40497489995323,263.40497489995323,266.4157918000128,266.4157918000128,267.3491547999438,1,1,0.9212515000253916,0.2029302001465112,None,267.3492209999822,267.3492431000341,None,267.3492652999703,267.3492817999795,None,,,,,,,,,,,6,1,1,1,2025-03-10_10h25.10.008,rtmindeye,2024.2.4,59.98411628058783,2025-03-10 10h25.29.832350 -0400,,,,,,,,,,,,,,,,,
all_stimuli/MST_pairs1/pair_34_nsd_875_2_cocoid_72398.png,62,0,62,62,0,,,,1,0,1,1,1,"[9, 21, 31, 45, 56, 68, 69]",2,1,0.7408618999179453,0.20396760012954473,None,None,None,,,,,,,,,0,0,0,0,0,62,62,62,267.3732904000208,,,,,,,,,,,,,,,,,,,,,,267.3494351999834,267.3494784999639,267.37133420002647,267.3732904000208,267.3732904000208,267.3732904000208,267.3732904000208,270.38268480007537,270.38268480007537,271.3658642999362,2,1,0.7408618999179453,0.20396760012954473,None,271.36593129998073,271.3659512999002,None,271.36597499996424,271.3659920000937,None,,,,,,,,,,,6,1,1,1,2025-03-10_10h25.10.008,rtmindeye,2024.2.4,59.98411628058783,2025-03-10 10h25.29.832350 -0400,,,,,,,,,,,,,,,,,
all_stimuli/special515/special_67742.jpg,63,0,63,63,0,,,,0,0,1,1,1,"[9, 21, 31, 45, 56, 68, 69]",1,1,0.7996517999563366,0.3340051001869142,None,None,None,,,,,,,,,0,0,0,0,0,63,63,63,271.40149269998074,,,,,,,,,,,,,,,,,,,,,,271.3661446000915,271.3661879999563,271.3995765999425,271.40149269998074,271.40149269998074,271.40149269998074,271.40149269998074,274.4156792999711,274.4156792999711,275.38229379989207,1,1,0.7996517999563366,0.3340051001869142,None,275.38235990004614,275.38237980008125,None,275.38240200001746,275.3824191999156,None,,,,,,,,,,,6,1,1,1,2025-03-10_10h25.10.008,rtmindeye,2024.2.4,59.98411628058783,2025-03-10 10h25.29.832350 -0400,,,,,,,,,,,,,,,,,
all_stimuli/MST_pairs1/pair_48_w_runway2.jpg,64,0,64,64,0,,,,0,0,1,1,1,"[9, 21, 31, 45, 56, 68, 69]",1,1,0.8886019000783563,0.1850210998672992,None,None,None,,,,,,,,,0,0,0,0,0,64,64,64,275.4124880998861,,,,,,,,,,,,,,,,,,,,,,275.38256970001385,275.3826129999943,275.41065749991685,275.4124880998861,275.4124880998861,275.4124880998861,275.4124880998861,278.4156615000684,278.4156615000684,279.3987364999484,1,1,0.8886019000783563,0.1850210998672992,None,279.3988039,279.39882409991696,None,279.3988469000906,279.3988642001059,None,,,,,,,,,,,6,1,1,1,2025-03-10_10h25.10.008,rtmindeye,2024.2.4,59.98411628058783,2025-03-10 10h25.29.832350 -0400,,,,,,,,,,,,,,,,,
all_stimuli/MST_pairs1/pair_40_w_escalator1.jpg,65,0,65,65,0,,,,0,0,1,1,1,"[9, 21, 31, 45, 56, 68, 69]",1,1,0.7817202000878751,0.18881249986588955,None,None,None,,,,,,,,,0,0,0,0,0,65,65,65,279.43154060002416,,,,,,,,,,,,,,,,,,,,,,279.3990187998861,279.39906250010245,279.42989380005747,279.43154060002416,279.43154060002416,279.43154060002416,279.43154060002416,282.4321359999012,282.4321359999012,283.39916149992496,1,1,0.7817202000878751,0.18881249986588955,None,283.3992258000653,283.3992459999863,None,283.39926870004274,283.39928549993783,None,,,,,,,,,,,6,1,1,1,2025-03-10_10h25.10.008,rtmindeye,2024.2.4,59.98411628058783,2025-03-10 10h25.29.832350 -0400,,,,,,,,,,,,,,,,,
all_stimuli/special515/special_62228.jpg,66,0,66,66,0,,,,1,0,1,1,1,"[9, 21, 31, 45, 56, 68, 69]",1,0,0.9651550999842584,0.2230474001262337,None,None,None,,,,,,,,,0,0,0,0,0,66,66,66,283.4189399,,,,,,,,,,,,,,,,,,,,,,283.39943840005435,283.3994817000348,283.4167867999058,283.4189399,283.4189399,283.4189399,283.4189399,286.4324982999824,286.4324982999824,287.41574249998666,1,0,0.9651550999842584,0.2230474001262337,None,287.4158083999064,287.41582869994454,None,287.41585169988684,287.41586850001477,None,,,,,,,,,,,6,1,1,1,2025-03-10_10h25.10.008,rtmindeye,2024.2.4,59.98411628058783,2025-03-10 10h25.29.832350 -0400,,,,,,,,,,,,,,,,,
all_stimuli/MST_pairs1/pair_26_nsd_483_2_cocoid_8054.png,67,0,67,67,0,,,,0,0,1,1,1,"[9, 21, 31, 45, 56, 68, 69]",1,1,0.8770399000495672,0.24008850008249283,None,None,None,,,,,,,,,0,0,0,0,0,67,67,67,287.47511009988375,,,,,,,,,,,,,,,,,,,,,,287.41601760010235,287.4160613999702,287.47290250007063,287.47511009988375,287.47511009988375,287.47511009988375,287.47511009988375,290.48216319992207,290.48216319992207,291.4325880999677,1,1,0.8770399000495672,0.24008850008249283,None,291.4326557999011,291.4326760000549,None,291.4326987999957,291.4327155998908,None,,,,,,,,,,,6,1,1,1,2025-03-10_10h25.10.008,rtmindeye,2024.2.4,59.98411628058783,2025-03-10 10h25.29.832350 -0400,,,,,,,,,,,,,,,,,
blank.jpg,68,1,68,68,0,,,,0,0,1,1,1,"[9, 21, 31, 45, 56, 68, 69]",2,0,0.8249846000690013,0.21476019988767803,None,None,None,,,,,,,,,0,0,0,0,0,68,68,68,291.44934180006385,,,,,,,,,,,,,,,,,,,,,,291.4328751000576,291.43291860003956,291.44095310010016,291.44934180006385,291.44934180006385,291.44934180006385,291.44934180006385,294.44880750006996,294.44880750006996,295.43260659999214,2,0,0.8249846000690013,0.21476019988767803,None,295.4328093000222,295.43282909994014,None,295.43285260000266,295.43286950001493,None,295.4491132,295.4491132,,,,,,,,,6,1,1,1,2025-03-10_10h25.10.008,rtmindeye,2024.2.4,59.98411628058783,2025-03-10 10h25.29.832350 -0400,,,,,,,,,,,,,,,,,
