current_image,trial_index,is_blank_trial,thisN,thisTrialN,thisRepN,press_if_repeat_2.keys,press_if_repeat_2.corr,press_if_repeat_2.rt,press_if_repeat_2.duration,all_keys_pressed_2.keys,is_repeat,is_new_run,run_num,sess_num,is_not_last_trial,all_blanks_list,press_if_repeat.keys,press_if_repeat.corr,press_if_repeat.rt,press_if_repeat.duration,all_keys_pressed.keys,key_resp_5.keys,key_resp_4.keys,key_resp_5.rt,key_resp_5.duration,key_resp_4.rt,key_resp_4.duration,all_keys_pressed.rt,all_keys_pressed.duration,practice.thisRepN,practice.thisTrialN,practice.thisN,practice.thisIndex,loop_runs.thisRepN,loop_runs.thisTrialN,loop_runs.thisN,loop_runs.thisIndex,loop_all_images.thisRepN,loop_all_images.thisTrialN,loop_all_images.thisN,loop_all_images.thisIndex,thisRow.t,notes,set_up.started,set_up.stopped,practice_continue.started,key_resp_6.started,text_6.started,practice_continue.stopped,key_resp_6.keys,key_resp_6.rt,key_resp_6.duration,practice_trial.started,image_2.started,press_if_repeat_2.started,polygon_3.started,all_keys_pressed_2.started,image_2.stopped,press_if_repeat_2.stopped,practice_trial.stopped,practice.press_if_repeat_2.keys,practice.press_if_repeat_2.corr,practice.press_if_repeat_2.rt,practice.press_if_repeat_2.duration,practice.all_keys_pressed_2.keys,testing_continue.started,key_resp_7.started,text_7.started,testing_continue.stopped,key_resp_7.keys,key_resp_7.rt,key_resp_7.duration,waiting_fmri.started,key_resp_2.started,text_3.started,waiting_fmri.stopped,key_resp_2.keys,key_resp_2.rt,key_resp_2.duration,set_skips_and_correct_key.started,set_skips_and_correct_key.stopped,trial.started,image.started,press_if_repeat.started,polygon.started,all_keys_pressed.started,image.stopped,press_if_repeat.stopped,trial.stopped,loop_all_images.press_if_repeat.keys,loop_all_images.press_if_repeat.corr,loop_all_images.press_if_repeat.rt,loop_all_images.press_if_repeat.duration,loop_all_images.all_keys_pressed.keys,run_wait2_2.started,run_wait2_2.stopped,loop_all_images.key_resp_5.keys,waiting_fmri_2.started,waiting_fmri_2.stopped,loop_all_images.key_resp_4.keys,polygon.stopped,all_keys_pressed.stopped,key_resp_5.started,text_5.started,loop_all_images.key_resp_5.rt,loop_all_images.key_resp_5.duration,key_resp_4.started,text_4.started,loop_all_images.key_resp_4.rt,loop_all_images.key_resp_4.duration,loop_all_images.all_keys_pressed.rt,loop_all_images.all_keys_pressed.duration,participant,session (1 2 or 3),starting_run,skip_practice,date,expName,psychopyVersion,frameRate,expStart,
,,,,,,,,,,,,,,,,,,,,,,,,,,,,,,,,,,,,,,,,,,,,0.0016860002651810646,0.001751400064677,,,,,,,,,,,,,,,,,,,,,,,,,,,,,,,,,,,,,,,,,,,,,,,,,,,,,,,,,,,,,,,,,,,,4,8,0,0,2025-02-18_10h13.08.043,rtmindeye,2024.2.4,59.948983431415265,2025-02-18 10h13.22.980002 -0500,
,,,,,,,,,,,,,,,,,,,,,,,,,,,,,,,,,,,,,,,,,,,,,,0.006229500286281109,0.018317800015211105,0.018317800015211105,7.410332400351763,1,7.378518300130963,None,,,,,,,,,,,,,,,,,,,,,,,,,,,,,,,,,,,,,,,,,,,,,,,,,,,,,,,,,,,,,4,8,0,0,2025-02-18_10h13.08.043,rtmindeye,2024.2.4,59.948983431415265,2025-02-18 10h13.22.980002 -0500,
practice_images/w_kitchen2.jpg,0,0,0,0,0,1,0,1.265547400340438,0.2778910999186337,None,,,,,,,,,,,,,,,,,,,,0,0,0,0,,,,,,,,,7.445343600120395,,,,,,,,,,,7.442814400419593,7.445343600120395,7.445343600120395,7.445343600120395,7.445343600120395,10.451691800262779,10.451691800262779,11.418424500152469,1,0,1.265547400340438,0.2778910999186337,None,,,,,,,,,,,,,,,,,,,,,,,,,,,,,,,,,,,,,,,,,,,,,,,,4,8,0,0,2025-02-18_10h13.08.043,rtmindeye,2024.2.4,59.948983431415265,2025-02-18 10h13.22.980002 -0500,
practice_images/w_boardwalk2.jpg,1,0,1,1,0,1,0,0.6639793999493122,0.3468721997924149,None,,,,,,,,,,,,,,,,,,,,0,1,1,1,,,,,,,,,11.43679379997775,,,,,,,,,,,11.43520659999922,11.43679379997775,11.43679379997775,11.43679379997775,11.43679379997775,14.451735800132155,14.451735800132155,15.418430800084025,1,0,0.6639793999493122,0.3468721997924149,None,,,,,,,,,,,,,,,,,,,,,,,,,,,,,,,,,,,,,,,,,,,,,,,,4,8,0,0,2025-02-18_10h13.08.043,rtmindeye,2024.2.4,59.948983431415265,2025-02-18 10h13.22.980002 -0500,
practice_images/w_monument2.jpg,2,0,2,2,0,1,0,0.7540871002711356,0.36289049964398146,None,,,,,,,,,,,,,,,,,,,,0,2,2,2,,,,,,,,,15.43472780007869,,,,,,,,,,,15.43209720030427,15.43472780007869,15.43472780007869,15.43472780007869,15.43472780007869,18.435127300210297,18.435127300210297,19.41828650003299,1,0,0.7540871002711356,0.36289049964398146,None,,,,,,,,,,,,,,,,,,,,,,,,,,,,,,,,,,,,,,,,,,,,,,,,4,8,0,0,2025-02-18_10h13.08.043,rtmindeye,2024.2.4,59.948983431415265,2025-02-18 10h13.22.980002 -0500,
practice_images/w_auditorium2.jpg,3,0,3,3,0,1,0,0.40700400015339255,0.280997300054878,None,,,,,,,,,,,,,,,,,,,,0,3,3,3,,,,,,,,,19.434739800170064,,,,,,,,,,,19.432116200216115,19.434739800170064,19.434739800170064,19.434739800170064,19.434739800170064,22.434889300260693,22.434889300260693,23.4186741001904,1,0,0.40700400015339255,0.280997300054878,None,,,,,,,,,,,,,,,,,,,,,,,,,,,,,,,,,,,,,,,,,,,,,,,,4,8,0,0,2025-02-18_10h13.08.043,rtmindeye,2024.2.4,59.948983431415265,2025-02-18 10h13.22.980002 -0500,
practice_images/w_kitchen2.jpg,4,0,4,4,0,1,0,0.5221345997415483,0.26392320031300187,None,,,,,,,,,,,,,,,,,,,,0,4,4,4,,,,,,,,,23.434618200175464,,,,,,,,,,,23.431784000247717,23.434618200175464,23.434618200175464,23.434618200175464,23.434618200175464,26.434765700250864,26.434765700250864,27.41839690040797,1,0,0.5221345997415483,0.26392320031300187,None,,,,,,,,,,,,,,,,,,,,,,,,,,,,,,,,,,,,,,,,,,,,,,,,4,8,0,0,2025-02-18_10h13.08.043,rtmindeye,2024.2.4,59.948983431415265,2025-02-18 10h13.22.980002 -0500,
practice_images/w_auditorium1.jpg,5,0,5,5,0,2,0,1.8142280001193285,0.19595189997926354,None,,,,,,,,,,,,,,,,,,,,0,5,5,5,,,,,,,,,27.434600200038403,,,,,,,,,,,27.43188050016761,27.434600200038403,27.434600200038403,27.434600200038403,27.434600200038403,30.435100900009274,30.435100900009274,31.418348900042474,2,0,1.8142280001193285,0.19595189997926354,None,,,,,,,,,,,,,,,,,,,,,,,,,,,,,,,,,,,,,,,,,,,,,,,,4,8,0,0,2025-02-18_10h13.08.043,rtmindeye,2024.2.4,59.948983431415265,2025-02-18 10h13.22.980002 -0500,
practice_images/w_bedroom2.jpg,6,0,6,6,0,1,0,2.491963400039822,0.24800129979848862,None,,,,,,,,,,,,,,,,,,,,0,6,6,6,,,,,,,,,31.434779100120068,,,,,,,,,,,31.431767100002617,31.434779100120068,31.434779100120068,31.434779100120068,31.434779100120068,34.435070200357586,34.435070200357586,35.41843850025907,1,0,2.491963400039822,0.24800129979848862,None,,,,,,,,,,,,,,,,,,,,,,,,,,,,,,,,,,,,,,,,,,,,,,,,4,8,0,0,2025-02-18_10h13.08.043,rtmindeye,2024.2.4,59.948983431415265,2025-02-18 10h13.22.980002 -0500,
practice_images/w_kitchen1.jpg,7,0,7,7,0,1,0,0.966873100027442,0.24303549993783236,None,,,,,,,,,,,,,,,,,,,,0,7,7,7,,,,,,,,,35.434878000058234,,,,,,,,,,,35.433270800393075,35.434878000058234,35.434878000058234,35.434878000058234,35.434878000058234,38.43493020022288,38.43493020022288,39.41850920021534,1,0,0.966873100027442,0.24303549993783236,None,,,,,,,,,,,,,,,,,,,,,,,,,,,,,,,,,,,,,,,,,,,,,,,,4,8,0,0,2025-02-18_10h13.08.043,rtmindeye,2024.2.4,59.948983431415265,2025-02-18 10h13.22.980002 -0500,
practice_images/w_bedroom1.jpg,8,0,8,8,0,1,0,1.1240666997618973,0.3788514002226293,None,,,,,,,,,,,,,,,,,,,,0,8,8,8,,,,,,,,,39.43472830019891,,,,,,,,,,,39.43311270000413,39.43472830019891,39.43472830019891,39.43472830019891,39.43472830019891,42.43488070042804,42.43488070042804,43.41844480019063,1,0,1.1240666997618973,0.3788514002226293,None,,,,,,,,,,,,,,,,,,,,,,,,,,,,,,,,,,,,,,,,,,,,,,,,4,8,0,0,2025-02-18_10h13.08.043,rtmindeye,2024.2.4,59.948983431415265,2025-02-18 10h13.22.980002 -0500,
practice_images/w_monument2.jpg,9,0,9,9,0,2,0,1.151822800282389,0.3219665000215173,None,,,,,,,,,,,,,,,,,,,,0,9,9,9,,,,,,,,,43.434939300175756,,,,,,,,,,,43.42911580018699,43.434939300175756,43.434939300175756,43.434939300175756,43.434939300175756,46.43471690034494,46.43471690034494,47.41829790035263,2,0,1.151822800282389,0.3219665000215173,None,,,,,,,,,,,,,,,,,,,,,,,,,,,,,,,,,,,,,,,,,,,,,,,,4,8,0,0,2025-02-18_10h13.08.043,rtmindeye,2024.2.4,59.948983431415265,2025-02-18 10h13.22.980002 -0500,
,,,,,,,,,,,,,,,,,,,,,,,,,,,,,,,,,,,,,,,,,,,,,,,,,,,,,,,,,,,,,,,,,,47.47452530032024,47.476723400410265,47.476723400410265,93.80157060036436,1,46.31901520024985,None,,,,,,,,,,,,,,,,,,,,,,,,,,,,,,,,,,,,,,,,,4,8,0,0,2025-02-18_10h13.08.043,rtmindeye,2024.2.4,59.948983431415265,2025-02-18 10h13.22.980002 -0500,
,,,,,,,,,,,,,,,,,,,,,,,,,,,,,,,,,,,,,,,,,,,,,,,,,,,,,,,,,,,,,,,,,,,,,,,,,93.80161150032654,93.81805750029162,93.81805750029162,232.434436800424,equal,138.60753159970045,None,,,,,,,,,,,,,,,,,,,,,,,,,,,,,,,,,,4,8,0,0,2025-02-18_10h13.08.043,rtmindeye,2024.2.4,59.948983431415265,2025-02-18 10h13.22.980002 -0500,
all_stimuli/unchosen_nsd_1000_images/unchosen_204_cocoid_523.png,0,0,0,0,0,,,,,,0,0,0,8,1,"[9, 21, 31, 45, 56, 68, 69]",1,1,0.848885899875313,0.3959829001687467,None,None,None,,,,,,,,,,,0,0,0,0,0,0,0,0,232.50653770007193,,,,,,,,,,,,,,,,,,,,,,,,,,,,,,,,,,,,,,232.46500160032883,232.46510140039027,232.5022989003919,232.50653770007193,232.50653770007193,232.50653770007193,232.50653770007193,235.51766730006784,235.51766730006784,236.4675828004256,1,1,0.848885899875313,0.3959829001687467,None,236.4676549001597,236.46767870010808,None,236.4677022001706,236.46772030042484,None,,,,,,,,,,,,,4,8,0,0,2025-02-18_10h13.08.043,rtmindeye,2024.2.4,59.948983431415265,2025-02-18 10h13.22.980002 -0500,
all_stimuli/MST_pairs1/pair_26_nsd_483_2_cocoid_8054.png,1,0,1,1,0,,,,,,0,0,0,8,1,"[9, 21, 31, 45, 56, 68, 69]",1,1,0.8328059003688395,0.5470947995781898,None,None,None,,,,,,,,,,,0,0,0,0,0,1,1,1,236.49962660018355,,,,,,,,,,,,,,,,,,,,,,,,,,,,,,,,,,,,,,236.467878700234,236.46792230010033,236.49695760011673,236.49962660018355,236.49962660018355,236.49962660018355,236.49962660018355,239.50094450032339,239.50094450032339,240.48437050031498,1,1,0.8328059003688395,0.5470947995781898,None,240.484441800043,240.48446200042963,None,240.48448580037802,240.48450290039182,None,,,,,,,,,,,,,4,8,0,0,2025-02-18_10h13.08.043,rtmindeye,2024.2.4,59.948983431415265,2025-02-18 10h13.22.980002 -0500,
all_stimuli/unchosen_nsd_1000_images/unchosen_3506_cocoid_10771.png,2,0,2,2,0,,,,,,0,0,0,8,1,"[9, 21, 31, 45, 56, 68, 69]",1,1,0.8968989001587033,0.3481155000627041,None,None,None,,,,,,,,,,,0,0,0,0,0,2,2,2,240.52050750004128,,,,,,,,,,,,,,,,,,,,,,,,,,,,,,,,,,,,,,240.48467560019344,240.48471960006282,240.51885120011866,240.52050750004128,240.52050750004128,240.52050750004128,240.52050750004128,243.53409330034629,243.53409330034629,244.50102289998904,1,1,0.8968989001587033,0.3481155000627041,None,244.50109620019794,244.50111640011892,None,244.50114060007036,244.50115800043568,None,,,,,,,,,,,,,4,8,0,0,2025-02-18_10h13.08.043,rtmindeye,2024.2.4,59.948983431415265,2025-02-18 10h13.22.980002 -0500,
all_stimuli/unchosen_nsd_1000_images/unchosen_6825_cocoid_57631.png,3,0,3,3,0,,,,,,0,0,0,8,1,"[9, 21, 31, 45, 56, 68, 69]",1,1,1.0033569997176528,0.2619813000783324,None,None,None,,,,,,,,,,,0,0,0,0,0,3,3,3,244.52110660029575,,,,,,,,,,,,,,,,,,,,,,,,,,,,,,,,,,,,,,244.5013188002631,244.50136320013553,244.51950010005385,244.52110660029575,244.52110660029575,244.52110660029575,244.52110660029575,247.53405560040846,247.53405560040846,248.5176631002687,1,1,1.0033569997176528,0.2619813000783324,None,248.51773530011997,248.51775580039248,None,248.51777900010347,248.5177966002375,None,,,,,,,,,,,,,4,8,0,0,2025-02-18_10h13.08.043,rtmindeye,2024.2.4,59.948983431415265,2025-02-18 10h13.22.980002 -0500,
all_stimuli/special515/special_6489.jpg,4,0,4,4,0,,,,,,0,0,0,8,1,"[9, 21, 31, 45, 56, 68, 69]",1,1,0.8214238998480141,0.3298519002273679,None,None,None,,,,,,,,,,,0,0,0,0,0,4,4,4,248.536089300178,,,,,,,,,,,,,,,,,,,,,,,,,,,,,,,,,,,,,,248.51795630017295,248.51799940038472,248.53352440008894,248.536089300178,248.536089300178,248.536089300178,248.536089300178,251.55083240009844,251.55083240009844,252.53402630006894,1,1,0.8214238998480141,0.3298519002273679,None,252.53409980004653,252.53412119997665,None,252.53414510004222,252.53416260005906,None,,,,,,,,,,,,,4,8,0,0,2025-02-18_10h13.08.043,rtmindeye,2024.2.4,59.948983431415265,2025-02-18 10h13.22.980002 -0500,
all_stimuli/unchosen_nsd_1000_images/unchosen_3912_cocoid_45347.png,5,0,5,5,0,,,,,,0,0,0,8,1,"[9, 21, 31, 45, 56, 68, 69]",1,1,0.7062997999601066,0.24896549992263317,None,None,None,,,,,,,,,,,0,0,0,0,0,5,5,5,252.55914290016517,,,,,,,,,,,,,,,,,,,,,,,,,,,,,,,,,,,,,,252.53432060033083,252.53436430031434,252.55751259997487,252.55914290016517,252.55914290016517,252.55914290016517,252.55914290016517,255.56767060002312,255.56767060002312,256.5508380001411,1,1,0.7062997999601066,0.24896549992263317,None,256.5509089003317,256.5509296003729,None,256.55095300031826,256.5509705999866,None,,,,,,,,,,,,,4,8,0,0,2025-02-18_10h13.08.043,rtmindeye,2024.2.4,59.948983431415265,2025-02-18 10h13.22.980002 -0500,
all_stimuli/unchosen_nsd_1000_images/unchosen_4378_cocoid_47265.png,6,0,6,6,0,,,,,,0,0,0,8,1,"[9, 21, 31, 45, 56, 68, 69]",1,1,0.5957376002334058,0.29899560008198023,None,None,None,,,,,,,,,,,0,0,0,0,0,6,6,6,256.58868480008096,,,,,,,,,,,,,,,,,,,,,,,,,,,,,,,,,,,,,,256.551123900339,256.55116769997403,256.58705440023914,256.58868480008096,256.58868480008096,256.58868480008096,256.58868480008096,259.60086140036583,259.60086140036583,260.56738620018587,1,1,0.5957376002334058,0.29899560008198023,None,260.5674565001391,260.56747750006616,None,260.5675007002428,260.56751770013943,None,,,,,,,,,,,,,4,8,0,0,2025-02-18_10h13.08.043,rtmindeye,2024.2.4,59.948983431415265,2025-02-18 10h13.22.980002 -0500,
all_stimuli/unchosen_nsd_1000_images/unchosen_8469_cocoid_64307.png,7,0,7,7,0,,,,,,0,0,0,8,1,"[9, 21, 31, 45, 56, 68, 69]",1,1,0.606853200122714,0.6969528999179602,None,None,None,,,,,,,,,,,0,0,0,0,0,7,7,7,260.5935008004308,,,,,,,,,,,,,,,,,,,,,,,,,,,,,,,,,,,,,,260.56767260003835,260.56771610025316,260.5917466003448,260.5935008004308,260.5935008004308,260.5935008004308,260.5935008004308,263.601009900216,263.601009900216,264.5843083001673,1,1,0.606853200122714,0.6969528999179602,None,264.58437840035185,264.5843992000446,None,264.5844228002243,264.58444000035524,None,,,,,,,,,,,,,4,8,0,0,2025-02-18_10h13.08.043,rtmindeye,2024.2.4,59.948983431415265,2025-02-18 10h13.22.980002 -0500,
all_stimuli/unchosen_nsd_1000_images/unchosen_1350_cocoid_69162.png,8,0,8,8,0,,,,,,0,0,0,8,1,"[9, 21, 31, 45, 56, 68, 69]",1,1,0.4758858997374773,0.2887899000197649,None,None,None,,,,,,,,,,,0,0,0,0,0,8,8,8,264.60464860033244,,,,,,,,,,,,,,,,,,,,,,,,,,,,,,,,,,,,,,264.58459580037743,264.58464320003986,264.6030350001529,264.60464860033244,264.60464860033244,264.60464860033244,264.60464860033244,267.6173312002793,267.6173312002793,268.6008558999747,1,1,0.4758858997374773,0.2887899000197649,None,268.60093190008774,268.6009523002431,None,268.60097540030256,268.6009930004366,None,,,,,,,,,,,,,4,8,0,0,2025-02-18_10h13.08.043,rtmindeye,2024.2.4,59.948983431415265,2025-02-18 10h13.22.980002 -0500,
blank.jpg,9,1,9,9,0,,,,,,0,0,0,8,1,"[9, 21, 31, 45, 56, 68, 69]",None,0,,,None,None,None,,,,,,,,,,,0,0,0,0,0,9,9,9,268.62610270036384,,,,,,,,,,,,,,,,,,,,,,,,,,,,,,,,,,,,,,268.6011504000053,268.60119449999183,268.6244607004337,268.62610270036384,268.62610270036384,268.62610270036384,268.62610270036384,271.63392850011587,271.63392850011587,272.61759600043297,None,0,,,None,272.6176625001244,272.6176826003939,None,272.6177058001049,272.61772310035303,None,,,,,,,,,,,,,4,8,0,0,2025-02-18_10h13.08.043,rtmindeye,2024.2.4,59.948983431415265,2025-02-18 10h13.22.980002 -0500,
all_stimuli/unchosen_nsd_1000_images/unchosen_5495_cocoid_19397.png,10,0,10,10,0,,,,,,0,0,0,8,1,"[9, 21, 31, 45, 56, 68, 69]",1,1,0.5543064000084996,0.3877789000980556,None,None,None,,,,,,,,,,,0,0,0,0,0,10,10,10,272.66023040004075,,,,,,,,,,,,,,,,,,,,,,,,,,,,,,,,,,,,,,272.61787740001455,272.6179213002324,272.6585737001151,272.66023040004075,272.66023040004075,272.66023040004075,272.66023040004075,275.66745170019567,275.66745170019567,276.6342931999825,1,1,0.5543064000084996,0.3877789000980556,None,276.63436460029334,276.6343849003315,None,276.63440830027685,276.63442540029064,None,,,,,,,,,,,,,4,8,0,0,2025-02-18_10h13.08.043,rtmindeye,2024.2.4,59.948983431415265,2025-02-18 10h13.22.980002 -0500,
all_stimuli/unchosen_nsd_1000_images/unchosen_4703_cocoid_15918.png,11,0,11,11,0,,,,,,0,0,0,8,1,"[9, 21, 31, 45, 56, 68, 69]",1,1,1.0838230000808835,0.28309019980952144,None,None,None,,,,,,,,,,,0,0,0,0,0,11,11,11,276.6735496004112,,,,,,,,,,,,,,,,,,,,,,,,,,,,,,,,,,,,,,276.63458329997957,276.63463000021875,276.6719173002057,276.6735496004112,276.6735496004112,276.6735496004112,276.6735496004112,279.68392130034044,279.68392130034044,280.6508625000715,1,1,1.0838230000808835,0.28309019980952144,None,280.65093360003084,280.6509540001862,None,280.65097790025175,280.65099570015445,None,,,,,,,,,,,,,4,8,0,0,2025-02-18_10h13.08.043,rtmindeye,2024.2.4,59.948983431415265,2025-02-18 10h13.22.980002 -0500,
all_stimuli/unchosen_nsd_1000_images/unchosen_736_cocoid_34754.png,12,0,12,12,0,,,,,,0,0,0,8,1,"[9, 21, 31, 45, 56, 68, 69]",1,1,0.9767237999476492,0.4108221000060439,None,None,None,,,,,,,,,,,0,0,0,0,0,12,12,12,280.68572890013456,,,,,,,,,,,,,,,,,,,,,,,,,,,,,,,,,,,,,,280.6511526000686,280.65119890030473,280.6841048002243,280.68572890013456,280.68572890013456,280.68572890013456,280.68572890013456,283.70074310014024,283.70074310014024,284.667610200122,1,1,0.9767237999476492,0.4108221000060439,None,284.6676805000752,284.66770020034164,None,284.66772390017286,284.6677414001897,None,,,,,,,,,,,,,4,8,0,0,2025-02-18_10h13.08.043,rtmindeye,2024.2.4,59.948983431415265,2025-02-18 10h13.22.980002 -0500,
all_stimuli/unchosen_nsd_1000_images/unchosen_1977_cocoid_38143.png,13,0,13,13,0,,,,,,0,0,0,8,1,"[9, 21, 31, 45, 56, 68, 69]",1,1,1.0756231998093426,0.3839497002772987,None,None,None,,,,,,,,,,,0,0,0,0,0,13,13,13,284.68888460006565,,,,,,,,,,,,,,,,,,,,,,,,,,,,,,,,,,,,,,284.66789670009166,284.66794030042365,284.68713640002534,284.68888460006565,284.68888460006565,284.68888460006565,284.68888460006565,287.7003903002478,287.7003903002478,288.6843971000053,1,1,1.0756231998093426,0.3839497002772987,None,288.6844712002203,288.68449150025845,None,288.6845148000866,288.6845328002237,None,,,,,,,,,,,,,4,8,0,0,2025-02-18_10h13.08.043,rtmindeye,2024.2.4,59.948983431415265,2025-02-18 10h13.22.980002 -0500,
all_stimuli/unchosen_nsd_1000_images/unchosen_7409_cocoid_27274.png,14,0,14,14,0,,,,,,0,0,0,8,1,"[9, 21, 31, 45, 56, 68, 69]",1,1,0.6285192002542317,0.24583299970254302,None,None,None,,,,,,,,,,,0,0,0,0,0,14,14,14,288.73600180028006,,,,,,,,,,,,,,,,,,,,,,,,,,,,,,,,,,,,,,288.68469530018046,288.6847423003055,288.73445080034435,288.73600180028006,288.73600180028006,288.73600180028006,288.73600180028006,291.750855400227,291.750855400227,292.70055910013616,1,1,0.6285192002542317,0.24583299970254302,None,292.7006285004318,292.7006486002356,None,292.70067270006984,292.7006899002008,None,,,,,,,,,,,,,4,8,0,0,2025-02-18_10h13.08.043,rtmindeye,2024.2.4,59.948983431415265,2025-02-18 10h13.22.980002 -0500,
all_stimuli/unchosen_nsd_1000_images/unchosen_6454_cocoid_56111.png,15,0,15,15,0,,,,,,0,0,0,8,1,"[9, 21, 31, 45, 56, 68, 69]",1,1,0.5443491996265948,0.2409766004420817,None,None,None,,,,,,,,,,,0,0,0,0,0,15,15,15,292.73104770015925,,,,,,,,,,,,,,,,,,,,,,,,,,,,,,,,,,,,,,292.7008458999917,292.70088999997824,292.72928630001843,292.73104770015925,292.73104770015925,292.73104770015925,292.73104770015925,295.7338723000139,295.7338723000139,296.71753290016204,1,1,0.5443491996265948,0.2409766004420817,None,296.71760330023244,296.7176235001534,None,296.7176471003331,296.71766410022974,None,,,,,,,,,,,,,4,8,0,0,2025-02-18_10h13.08.043,rtmindeye,2024.2.4,59.948983431415265,2025-02-18 10h13.22.980002 -0500,
all_stimuli/unchosen_nsd_1000_images/unchosen_4787_cocoid_49175.png,16,0,16,16,0,,,,,,0,0,0,8,1,"[9, 21, 31, 45, 56, 68, 69]",1,1,0.9102555001154542,0.24802220007404685,None,None,None,,,,,,,,,,,0,0,0,0,0,16,16,16,296.75118210026994,,,,,,,,,,,,,,,,,,,,,,,,,,,,,,,,,,,,,,296.71782050002366,296.7178645003587,296.7494593001902,296.75118210026994,296.75118210026994,296.75118210026994,296.75118210026994,299.75080869998783,299.75080869998783,300.7341591003351,1,1,0.9102555001154542,0.24802220007404685,None,300.7342312000692,300.7342517999932,None,300.73427640041336,300.73429370019585,None,,,,,,,,,,,,,4,8,0,0,2025-02-18_10h13.08.043,rtmindeye,2024.2.4,59.948983431415265,2025-02-18 10h13.22.980002 -0500,
all_stimuli/unchosen_nsd_1000_images/unchosen_3375_cocoid_10255.png,17,0,17,17,0,,,,,,0,0,0,8,1,"[9, 21, 31, 45, 56, 68, 69]",1,1,0.714400399941951,0.25296800024807453,None,None,None,,,,,,,,,,,0,0,0,0,0,17,17,17,300.7668890003115,,,,,,,,,,,,,,,,,,,,,,,,,,,,,,,,,,,,,,300.73445080034435,300.7344951000996,300.7652851003222,300.7668890003115,300.7668890003115,300.7668890003115,300.7668890003115,303.76729660015553,303.76729660015553,304.75089510018006,1,1,0.714400399941951,0.25296800024807453,None,304.7509651002474,304.7509861001745,None,304.7510099001229,304.7510270001367,None,,,,,,,,,,,,,4,8,0,0,2025-02-18_10h13.08.043,rtmindeye,2024.2.4,59.948983431415265,2025-02-18 10h13.22.980002 -0500,
all_stimuli/unchosen_nsd_1000_images/unchosen_7274_cocoid_59479.png,18,0,18,18,0,,,,,,0,0,0,8,1,"[9, 21, 31, 45, 56, 68, 69]",1,1,0.9877778999507427,0.2302076001651585,None,None,None,,,,,,,,,,,0,0,0,0,0,18,18,18,304.79748610034585,,,,,,,,,,,,,,,,,,,,,,,,,,,,,,,,,,,,,,304.75118590006605,304.7512299004011,304.79584370041266,304.79748610034585,304.79748610034585,304.79748610034585,304.79748610034585,307.8003895999864,307.8003895999864,308.7675184002146,1,1,0.9877778999507427,0.2302076001651585,None,308.7675901004113,308.7676103999838,None,308.7676342003979,308.76765160029754,None,,,,,,,,,,,,,4,8,0,0,2025-02-18_10h13.08.043,rtmindeye,2024.2.4,59.948983431415265,2025-02-18 10h13.22.980002 -0500,
all_stimuli/unchosen_nsd_1000_images/unchosen_6645_cocoid_56898.png,19,0,19,19,0,,,,,,0,0,0,8,1,"[9, 21, 31, 45, 56, 68, 69]",1,1,0.7756736995652318,0.28890630044043064,None,None,None,,,,,,,,,,,0,0,0,0,0,19,19,19,308.78979880036786,,,,,,,,,,,,,,,,,,,,,,,,,,,,,,,,,,,,,,308.7678129002452,308.76785690011457,308.7880347003229,308.78979880036786,308.78979880036786,308.78979880036786,308.78979880036786,311.8004062999971,311.8004062999971,312.7842425000854,1,1,0.7756736995652318,0.28890630044043064,None,312.7843152000569,312.7843357003294,None,312.78435980016366,312.78437750041485,None,,,,,,,,,,,,,4,8,0,0,2025-02-18_10h13.08.043,rtmindeye,2024.2.4,59.948983431415265,2025-02-18 10h13.22.980002 -0500,
all_stimuli/unchosen_nsd_1000_images/unchosen_8598_cocoid_32075.png,20,0,20,20,0,,,,,,0,0,0,8,1,"[9, 21, 31, 45, 56, 68, 69]",1,1,1.8918761000968516,0.32582399994134903,None,None,None,,,,,,,,,,,0,0,0,0,0,20,20,20,312.80358370020986,,,,,,,,,,,,,,,,,,,,,,,,,,,,,,,,,,,,,,312.7845408003777,312.78458460001275,312.80195440026,312.80358370020986,312.80358370020986,312.80358370020986,312.80358370020986,315.8173591000959,315.8173591000959,316.8006978002377,1,1,1.8918761000968516,0.32582399994134903,None,316.8007710003294,316.80079210037366,None,316.80081599997357,316.8008334999904,None,,,,,,,,,,,,,4,8,0,0,2025-02-18_10h13.08.043,rtmindeye,2024.2.4,59.948983431415265,2025-02-18 10h13.22.980002 -0500,
blank.jpg,21,1,21,21,0,,,,,,0,0,0,8,1,"[9, 21, 31, 45, 56, 68, 69]",None,0,,,None,None,None,,,,,,,,,,,0,0,0,0,0,21,21,21,316.8174809003249,,,,,,,,,,,,,,,,,,,,,,,,,,,,,,,,,,,,,,316.80098740011454,316.8010313999839,316.81065920041874,316.8174809003249,316.8174809003249,316.8174809003249,316.8174809003249,319.8172704000026,319.8172704000026,320.8008954003453,None,0,,,None,320.8009556001052,320.8009750000201,None,320.8009986001998,320.80101610021666,None,320.83018440008163,320.83018440008163,,,,,,,,,,,4,8,0,0,2025-02-18_10h13.08.043,rtmindeye,2024.2.4,59.948983431415265,2025-02-18 10h13.22.980002 -0500,
all_stimuli/unchosen_nsd_1000_images/unchosen_1905_cocoid_70720.png,22,0,22,22,0,,,,,,0,0,0,8,1,"[9, 21, 31, 45, 56, 68, 69]",1,1,1.3421591999940574,0.290996799711138,None,None,None,,,,,,,,,,,0,0,0,0,0,22,22,22,320.83018440008163,,,,,,,,,,,,,,,,,,,,,,,,,,,,,,,,,,,,,,320.80116730043665,320.8012093002908,320.82849160023034,320.83018440008163,320.83018440008163,320.83018440008163,320.83018440008163,323.8339539002627,323.8339539002627,324.8172820000909,1,1,1.3421591999940574,0.290996799711138,None,324.8173533002846,324.81737280031666,None,324.8173957001418,324.8174133002758,None,,,,,,,,,,,,,4,8,0,0,2025-02-18_10h13.08.043,rtmindeye,2024.2.4,59.948983431415265,2025-02-18 10h13.22.980002 -0500,
all_stimuli/unchosen_nsd_1000_images/unchosen_3737_cocoid_44537.png,23,0,23,23,0,,,,,,0,0,0,8,1,"[9, 21, 31, 45, 56, 68, 69]",1,1,0.7281267996877432,0.3500205003656447,None,None,None,,,,,,,,,,,0,0,0,0,0,23,23,23,324.8411342999898,,,,,,,,,,,,,,,,,,,,,,,,,,,,,,,,,,,,,,324.81757160043344,324.8176156003028,324.83923280006275,324.8411342999898,324.8411342999898,324.8411342999898,324.8411342999898,327.8508868999779,327.8508868999779,328.8336569000967,1,1,0.7281267996877432,0.3500205003656447,None,328.83372900029644,328.8337501003407,None,328.8337745000608,328.8337916000746,None,,,,,,,,,,,,,4,8,0,0,2025-02-18_10h13.08.043,rtmindeye,2024.2.4,59.948983431415265,2025-02-18 10h13.22.980002 -0500,
all_stimuli/unchosen_nsd_1000_images/unchosen_7244_cocoid_59393.png,24,0,24,24,0,,,,,,0,0,0,8,1,"[9, 21, 31, 45, 56, 68, 69]",1,1,1.8435606001876295,0.2269387999549508,None,None,None,,,,,,,,,,,0,0,0,0,0,24,24,24,328.8677891003899,,,,,,,,,,,,,,,,,,,,,,,,,,,,,,,,,,,,,,328.8339540003799,328.83399820001796,328.8661531000398,328.8677891003899,328.8677891003899,328.8677891003899,328.8677891003899,331.86723060021177,331.86723060021177,332.8507163003087,1,1,1.8435606001876295,0.2269387999549508,None,332.85078860027716,332.8508097999729,None,332.8508335002698,332.85085170017555,None,,,,,,,,,,,,,4,8,0,0,2025-02-18_10h13.08.043,rtmindeye,2024.2.4,59.948983431415265,2025-02-18 10h13.22.980002 -0500,
all_stimuli/unchosen_nsd_1000_images/unchosen_3204_cocoid_9374.png,25,0,25,25,0,,,,,,0,0,0,8,1,"[9, 21, 31, 45, 56, 68, 69]",1,1,0.8099646996706724,0.3922101999633014,None,None,None,,,,,,,,,,,0,0,0,0,0,25,25,25,332.8722604000941,,,,,,,,,,,,,,,,,,,,,,,,,,,,,,,,,,,,,,332.8510108003393,332.85105410031974,332.8706586002372,332.8722604000941,332.8722604000941,332.8722604000941,332.8722604000941,335.8839438003488,335.8839438003488,336.867437500041,1,1,0.8099646996706724,0.3922101999633014,None,336.8675121003762,336.8675327003002,None,336.8675566003658,336.8675746000372,None,,,,,,,,,,,,,4,8,0,0,2025-02-18_10h13.08.043,rtmindeye,2024.2.4,59.948983431415265,2025-02-18 10h13.22.980002 -0500,
all_stimuli/MST_pairs1/pair_36_nsd_949_1_cocoid_43196.png,26,0,26,26,0,,,,,,0,0,0,8,1,"[9, 21, 31, 45, 56, 68, 69]",1,1,0.7707269000820816,0.27104549994692206,None,None,None,,,,,,,,,,,0,0,0,0,0,26,26,26,337.18859680043533,,,,,,,,,,,,,,,,,,,,,,,,,,,,,,,,,,,,,,336.8677285001613,336.8677726001479,337.1846311003901,337.18859680043533,337.18859680043533,337.18859680043533,337.18859680043533,340.2005698001012,340.2005698001012,340.88383680023253,1,1,0.7707269000820816,0.27104549994692206,None,340.88390920031816,340.88392930012196,None,340.8839527000673,340.8839699001983,None,,,,,,,,,,,,,4,8,0,0,2025-02-18_10h13.08.043,rtmindeye,2024.2.4,59.948983431415265,2025-02-18 10h13.22.980002 -0500,
all_stimuli/special515/special_30632.jpg,27,0,27,27,0,,,,,,0,0,0,8,1,"[9, 21, 31, 45, 56, 68, 69]",1,1,0.8659505997784436,0.45304020028561354,None,None,None,,,,,,,,,,,0,0,0,0,0,27,27,27,340.9042323003523,,,,,,,,,,,,,,,,,,,,,,,,,,,,,,,,,,,,,,340.88412500033155,340.88416880043224,340.9020068002865,340.9042323003523,340.9042323003523,340.9042323003523,340.9042323003523,343.9171735001728,343.9171735001728,344.9007979002781,1,1,0.8659505997784436,0.45304020028561354,None,344.9008714002557,344.9008922004141,None,344.900916100014,344.90093340026215,None,,,,,,,,,,,,,4,8,0,0,2025-02-18_10h13.08.043,rtmindeye,2024.2.4,59.948983431415265,2025-02-18 10h13.22.980002 -0500,
all_stimuli/special515/special_70427.jpg,28,0,28,28,0,,,,,,0,0,0,8,1,"[9, 21, 31, 45, 56, 68, 69]",1,1,0.8114074002951384,0.30095589999109507,None,None,None,,,,,,,,,,,0,0,0,0,0,28,28,28,344.92897460004315,,,,,,,,,,,,,,,,,,,,,,,,,,,,,,,,,,,,,,344.9010991002433,344.90114320022985,344.9268623003736,344.92897460004315,344.92897460004315,344.92897460004315,344.92897460004315,347.9339690003544,347.9339690003544,348.9171918001957,1,1,0.8114074002951384,0.30095589999109507,None,348.91726190038025,348.91728280019015,None,348.91730640036985,348.91732370015234,None,,,,,,,,,,,,,4,8,0,0,2025-02-18_10h13.08.043,rtmindeye,2024.2.4,59.948983431415265,2025-02-18 10h13.22.980002 -0500,
all_stimuli/MST_pairs1/pair_12_16_78.png,29,0,29,29,0,,,,,,0,0,0,8,1,"[9, 21, 31, 45, 56, 68, 69]",1,1,0.6504466999322176,0.2741644000634551,None,None,None,,,,,,,,,,,0,0,0,0,0,29,29,29,348.9497319003567,,,,,,,,,,,,,,,,,,,,,,,,,,,,,,,,,,,,,,348.9174817004241,348.9175251000561,348.94809090020135,348.9497319003567,348.9497319003567,348.9497319003567,348.9497319003567,351.9505952000618,351.9505952000618,352.93401180021465,1,1,0.6504466999322176,0.2741644000634551,None,352.9340817001648,352.934102000203,None,352.9341264003888,352.93414400005713,None,,,,,,,,,,,,,4,8,0,0,2025-02-18_10h13.08.043,rtmindeye,2024.2.4,59.948983431415265,2025-02-18 10h13.22.980002 -0500,
all_stimuli/special515/special_53155.jpg,30,0,30,30,0,,,,,,0,0,0,8,1,"[9, 21, 31, 45, 56, 68, 69]",1,1,0.878426400013268,0.3499716999940574,None,None,None,,,,,,,,,,,0,0,0,0,0,30,30,30,352.95093140006065,,,,,,,,,,,,,,,,,,,,,,,,,,,,,,,,,,,,,,352.9343004003167,352.9343444001861,352.9491609004326,352.95093140006065,352.95093140006065,352.95093140006065,352.95093140006065,355.9504470000975,355.9504470000975,356.9339536000043,1,1,0.878426400013268,0.3499716999940574,None,356.93402010016143,356.9340396001935,None,356.9340633000247,356.93408060027286,None,356.9508273000829,356.9508273000829,,,,,,,,,,,4,8,0,0,2025-02-18_10h13.08.043,rtmindeye,2024.2.4,59.948983431415265,2025-02-18 10h13.22.980002 -0500,
blank.jpg,31,1,31,31,0,,,,,,0,0,0,8,1,"[9, 21, 31, 45, 56, 68, 69]",None,0,,,None,None,None,,,,,,,,,,,0,0,0,0,0,31,31,31,356.9508273000829,,,,,,,,,,,,,,,,,,,,,,,,,,,,,,,,,,,,,,356.93423480028287,356.93427340034395,356.9417274002917,356.9508273000829,356.9508273000829,356.9508273000829,356.9508273000829,359.95024939998984,359.95024939998984,360.9339178004302,None,0,,,None,360.93397740041837,360.93399700010195,None,360.93402130017057,360.9340383000672,None,360.9528218000196,360.9528218000196,,,,,,,,,,,4,8,0,0,2025-02-18_10h13.08.043,rtmindeye,2024.2.4,59.948983431415265,2025-02-18 10h13.22.980002 -0500,
all_stimuli/unchosen_nsd_1000_images/unchosen_360_cocoid_33748.png,32,0,32,32,0,,,,,,0,0,0,8,1,"[9, 21, 31, 45, 56, 68, 69]",1,1,0.7564810998737812,0.4670321000739932,None,None,None,,,,,,,,,,,0,0,0,0,0,32,32,32,360.9528218000196,,,,,,,,,,,,,,,,,,,,,,,,,,,,,,,,,,,,,,360.93418770004064,360.93422530032694,360.95120860030875,360.9528218000196,360.9528218000196,360.9528218000196,360.9528218000196,363.9672456001863,363.9672456001863,364.9503792002797,1,1,0.7564810998737812,0.4670321000739932,None,364.950449900236,364.95047010015696,None,364.9504935001023,364.9505114001222,None,,,,,,,,,,,,,4,8,0,0,2025-02-18_10h13.08.043,rtmindeye,2024.2.4,59.948983431415265,2025-02-18 10h13.22.980002 -0500,
all_stimuli/unchosen_nsd_1000_images/unchosen_2806_cocoid_7728.png,33,0,33,33,0,,,,,,0,0,0,8,1,"[9, 21, 31, 45, 56, 68, 69]",1,1,1.0709819998592138,0.37309589982032776,None,None,None,,,,,,,,,,,0,0,0,0,0,33,33,33,364.98123670043424,,,,,,,,,,,,,,,,,,,,,,,,,,,,,,,,,,,,,,364.950669800397,364.95071360003203,364.9796209000051,364.98123670043424,364.98123670043424,364.98123670043424,364.98123670043424,367.98380960011855,367.98380960011855,368.96717330021784,1,1,1.0709819998592138,0.37309589982032776,None,368.9672455000691,368.96726640034467,None,368.9672900000587,368.9673078004271,None,,,,,,,,,,,,,4,8,0,0,2025-02-18_10h13.08.043,rtmindeye,2024.2.4,59.948983431415265,2025-02-18 10h13.22.980002 -0500,
all_stimuli/unchosen_nsd_1000_images/unchosen_4034_cocoid_45848.png,34,0,34,34,0,,,,,,0,0,0,8,1,"[9, 21, 31, 45, 56, 68, 69]",1,1,0.5667633996345103,0.26099530002102256,None,None,None,,,,,,,,,,,0,0,0,0,0,34,34,34,368.99652909999713,,,,,,,,,,,,,,,,,,,,,,,,,,,,,,,,,,,,,,368.9674635999836,368.96750760031864,368.9949158001691,368.99652909999713,368.99652909999713,368.99652909999713,368.99652909999713,372.0008138003759,372.0008138003759,372.983848400414,1,1,0.5667633996345103,0.26099530002102256,None,372.9839204000309,372.98394070006907,None,372.9839641000144,372.9839819003828,None,,,,,,,,,,,,,4,8,0,0,2025-02-18_10h13.08.043,rtmindeye,2024.2.4,59.948983431415265,2025-02-18 10h13.22.980002 -0500,
all_stimuli/unchosen_nsd_1000_images/unchosen_4683_cocoid_48574.png,35,0,35,35,0,,,,,,0,0,0,8,1,"[9, 21, 31, 45, 56, 68, 69]",1,1,0.8752832999452949,0.2408814998343587,None,None,None,,,,,,,,,,,0,0,0,0,0,35,35,35,373.0179612003267,,,,,,,,,,,,,,,,,,,,,,,,,,,,,,,,,,,,,,372.98414010042325,372.9841842004098,373.0163275003433,373.0179612003267,373.0179612003267,373.0179612003267,373.0179612003267,376.0170335001312,376.0170335001312,377.00053700013086,1,1,0.8752832999452949,0.2408814998343587,None,377.00060820020735,377.0006280001253,None,377.00065140007064,377.0006689000875,None,,,,,,,,,,,,,4,8,0,0,2025-02-18_10h13.08.043,rtmindeye,2024.2.4,59.948983431415265,2025-02-18 10h13.22.980002 -0500,
all_stimuli/unchosen_nsd_1000_images/unchosen_2249_cocoid_6116.png,36,0,36,36,0,,,,,,0,0,0,8,1,"[9, 21, 31, 45, 56, 68, 69]",1,1,0.8538931999355555,0.2598796999081969,None,None,None,,,,,,,,,,,0,0,0,0,0,36,36,36,377.02743610041216,,,,,,,,,,,,,,,,,,,,,,,,,,,,,,,,,,,,,,377.00082470010966,377.0008688000962,377.0258142002858,377.02743610041216,377.02743610041216,377.02743610041216,377.02743610041216,380.03374009998515,380.03374009998515,381.0170341003686,1,1,0.8538931999355555,0.2598796999081969,None,381.0171056999825,381.0171257001348,None,381.0171492001973,381.01716660009697,None,,,,,,,,,,,,,4,8,0,0,2025-02-18_10h13.08.043,rtmindeye,2024.2.4,59.948983431415265,2025-02-18 10h13.22.980002 -0500,
all_stimuli/unchosen_nsd_1000_images/unchosen_5676_cocoid_20049.png,37,0,37,37,0,,,,,,0,0,0,8,1,"[9, 21, 31, 45, 56, 68, 69]",1,1,0.6654778001829982,0.2588423998095095,None,None,None,,,,,,,,,,,0,0,0,0,0,37,37,37,381.04381680022925,,,,,,,,,,,,,,,,,,,,,,,,,,,,,,,,,,,,,,381.01732470002025,381.017368900124,381.04204550012946,381.04381680022925,381.04381680022925,381.04381680022925,381.04381680022925,384.0504817003384,384.0504817003384,385.033861100208,1,1,0.6654778001829982,0.2588423998095095,None,385.0339324004017,385.03395280009136,None,385.03397640027106,385.03399370005354,None,,,,,,,,,,,,,4,8,0,0,2025-02-18_10h13.08.043,rtmindeye,2024.2.4,59.948983431415265,2025-02-18 10h13.22.980002 -0500,
all_stimuli/unchosen_nsd_1000_images/unchosen_5411_cocoid_19064.png,38,0,38,38,0,,,,,,0,0,0,8,1,"[9, 21, 31, 45, 56, 68, 69]",1,1,0.5739039997570217,0.25491120014339685,None,None,None,,,,,,,,,,,0,0,0,0,0,38,38,38,385.06739380024374,,,,,,,,,,,,,,,,,,,,,,,,,,,,,,,,,,,,,,385.03415390010923,385.03419740032405,385.065799199976,385.06739380024374,385.06739380024374,385.06739380024374,385.06739380024374,388.0668329000473,388.0668329000473,389.05026280041784,1,1,0.5739039997570217,0.25491120014339685,None,389.0503343003802,389.05035480018705,None,389.0503789000213,389.0503960000351,None,,,,,,,,,,,,,4,8,0,0,2025-02-18_10h13.08.043,rtmindeye,2024.2.4,59.948983431415265,2025-02-18 10h13.22.980002 -0500,
all_stimuli/MST_pairs1/pair_2_4_22.png,39,0,39,39,0,,,,,,0,0,0,8,1,"[9, 21, 31, 45, 56, 68, 69]",1,1,0.7682468998245895,0.2919940003193915,None,None,None,,,,,,,,,,,0,0,0,0,0,39,39,39,389.0970041002147,,,,,,,,,,,,,,,,,,,,,,,,,,,,,,,,,,,,,,389.0505974004045,389.05064460029826,389.09540730016306,389.0970041002147,389.0970041002147,389.0970041002147,389.0970041002147,392.1004868000746,392.1004868000746,393.0671049002558,1,1,0.7682468998245895,0.2919940003193915,None,393.06717570032924,393.0671963002533,None,393.0672205002047,393.06723819999024,None,,,,,,,,,,,,,4,8,0,0,2025-02-18_10h13.08.043,rtmindeye,2024.2.4,59.948983431415265,2025-02-18 10h13.22.980002 -0500,
all_stimuli/unchosen_nsd_1000_images/unchosen_8726_cocoid_65372.png,40,0,40,40,0,,,,,,0,0,0,8,1,"[9, 21, 31, 45, 56, 68, 69]",1,1,1.2376982998102903,0.26896180026233196,None,None,None,,,,,,,,,,,0,0,0,0,0,40,40,40,393.1004910999909,,,,,,,,,,,,,,,,,,,,,,,,,,,,,,,,,,,,,,393.06739380024374,393.0674378001131,393.09885180043057,393.1004910999909,393.1004910999909,393.1004910999909,393.1004910999909,396.10044240020216,396.10044240020216,397.0834638001397,1,1,1.2376982998102903,0.26896180026233196,None,397.08353750035167,397.0835582003929,None,397.0835832003504,397.08360060025007,None,,,,,,,,,,,,,4,8,0,0,2025-02-18_10h13.08.043,rtmindeye,2024.2.4,59.948983431415265,2025-02-18 10h13.22.980002 -0500,
all_stimuli/unchosen_nsd_1000_images/unchosen_1854_cocoid_5051.png,41,0,41,41,0,,,,,,0,0,0,8,1,"[9, 21, 31, 45, 56, 68, 69]",1,1,0.8173841000534594,0.2949922000989318,None,None,None,,,,,,,,,,,0,0,0,0,0,41,41,41,397.15386630035937,,,,,,,,,,,,,,,,,,,,,,,,,,,,,,,,,,,,,,397.0837686001323,397.0838145003654,397.15031290007755,397.15386630035937,397.15386630035937,397.15386630035937,397.15386630035937,400.1670884001069,400.1670884001069,401.10065200040117,1,1,0.8173841000534594,0.2949922000989318,None,401.1007238002494,401.10074430005625,None,401.10076790023595,401.10078570013866,None,,,,,,,,,,,,,4,8,0,0,2025-02-18_10h13.08.043,rtmindeye,2024.2.4,59.948983431415265,2025-02-18 10h13.22.980002 -0500,
all_stimuli/unchosen_nsd_1000_images/unchosen_6417_cocoid_55979.png,42,0,42,42,0,,,,,,0,0,0,8,1,"[9, 21, 31, 45, 56, 68, 69]",1,1,0.7466528001241386,0.3939741998910904,None,None,None,,,,,,,,,,,0,0,0,0,0,42,42,42,401.1366254002787,,,,,,,,,,,,,,,,,,,,,,,,,,,,,,,,,,,,,,401.10093920025975,401.10098290024325,401.1348793003708,401.1366254002787,401.1366254002787,401.1366254002787,401.1366254002787,404.1501976000145,404.1501976000145,405.11739470018074,1,1,0.7466528001241386,0.3939741998910904,None,405.117463900242,405.11748430039734,None,405.1175077003427,405.11752450000495,None,,,,,,,,,,,,,4,8,0,0,2025-02-18_10h13.08.043,rtmindeye,2024.2.4,59.948983431415265,2025-02-18 10h13.22.980002 -0500,
all_stimuli/special515/special_45843.jpg,43,0,43,43,0,,,,,,0,0,0,8,1,"[9, 21, 31, 45, 56, 68, 69]",1,1,0.8266802998259664,0.3230314003303647,None,None,None,,,,,,,,,,,0,0,0,0,0,43,43,43,405.13356039999053,,,,,,,,,,,,,,,,,,,,,,,,,,,,,,,,,,,,,,405.11769330035895,405.117737499997,405.13084560027346,405.13356039999053,405.13356039999053,405.13356039999053,405.13356039999053,408.1338198003359,408.1338198003359,409.1170807001181,1,1,0.8266802998259664,0.3230314003303647,None,409.1171474000439,409.11716700019315,None,409.11719060037285,409.1172080002725,None,409.14658630033955,409.14658630033955,,,,,,,,,,,4,8,0,0,2025-02-18_10h13.08.043,rtmindeye,2024.2.4,59.948983431415265,2025-02-18 10h13.22.980002 -0500,
all_stimuli/unchosen_nsd_1000_images/unchosen_516_cocoid_66905.png,44,0,44,44,0,,,,,,0,0,0,8,1,"[9, 21, 31, 45, 56, 68, 69]",1,1,0.6366301998496056,0.24900220008566976,None,None,None,,,,,,,,,,,0,0,0,0,0,44,44,44,409.14658630033955,,,,,,,,,,,,,,,,,,,,,,,,,,,,,,,,,,,,,,409.1173690999858,409.1174113000743,409.14495090022683,409.14658630033955,409.14658630033955,409.14658630033955,409.14658630033955,412.15032930020243,412.15032930020243,413.13379070023075,1,1,0.6366301998496056,0.24900220008566976,None,413.13385980017483,413.133880100213,None,413.13390410039574,413.1339216004126,None,,,,,,,,,,,,,4,8,0,0,2025-02-18_10h13.08.043,rtmindeye,2024.2.4,59.948983431415265,2025-02-18 10h13.22.980002 -0500,
blank.jpg,45,1,45,45,0,,,,,,0,0,0,8,1,"[9, 21, 31, 45, 56, 68, 69]",None,0,,,None,None,None,,,,,,,,,,,0,0,0,0,0,45,45,45,413.15024680038914,,,,,,,,,,,,,,,,,,,,,,,,,,,,,,,,,,,,,,413.1343760001473,413.13442240003496,413.1435136999935,413.15024680038914,413.15024680038914,413.15024680038914,413.15024680038914,416.15036240033805,416.15036240033805,417.133794200141,None,0,,,None,417.1338542001322,417.13387370016426,None,417.1338972002268,417.1339147002436,None,417.157160800416,417.157160800416,,,,,,,,,,,4,8,0,0,2025-02-18_10h13.08.043,rtmindeye,2024.2.4,59.948983431415265,2025-02-18 10h13.22.980002 -0500,
all_stimuli/unchosen_nsd_1000_images/unchosen_2066_cocoid_71161.png,46,0,46,46,0,,,,,,0,0,0,8,1,"[9, 21, 31, 45, 56, 68, 69]",1,1,0.7381098000332713,0.8898702999576926,None,None,None,,,,,,,,,,,0,0,0,0,0,46,46,46,417.157160800416,,,,,,,,,,,,,,,,,,,,,,,,,,,,,,,,,,,,,,417.13406700035557,417.13410510029644,417.1553750000894,417.157160800416,417.157160800416,417.157160800416,417.157160800416,420.1672490001656,420.1672490001656,421.15048060007393,1,1,0.7381098000332713,0.8898702999576926,None,421.1505520003848,421.15057230042294,None,421.15059550013393,421.15061310026795,None,,,,,,,,,,,,,4,8,0,0,2025-02-18_10h13.08.043,rtmindeye,2024.2.4,59.948983431415265,2025-02-18 10h13.22.980002 -0500,
all_stimuli/MST_pairs1/pair_8_12_0.png,47,0,47,47,0,,,,,,0,0,0,8,1,"[9, 21, 31, 45, 56, 68, 69]",1,1,0.745620799716562,0.4080048003233969,None,None,None,,,,,,,,,,,0,0,0,0,0,47,47,47,421.1795895001851,,,,,,,,,,,,,,,,,,,,,,,,,,,,,,,,,,,,,,421.15077330032364,421.15081750042737,421.1777846002951,421.1795895001851,421.1795895001851,421.1795895001851,421.1795895001851,424.18370190029964,424.18370190029964,425.16694840043783,1,1,0.745620799716562,0.4080048003233969,None,425.1670186002739,425.16703910008073,None,425.1670625000261,425.16708020027727,None,,,,,,,,,,,,,4,8,0,0,2025-02-18_10h13.08.043,rtmindeye,2024.2.4,59.948983431415265,2025-02-18 10h13.22.980002 -0500,
all_stimuli/unchosen_nsd_1000_images/unchosen_4084_cocoid_46047.png,48,0,48,48,0,,,,,,0,0,0,8,1,"[9, 21, 31, 45, 56, 68, 69]",1,1,0.8477298002690077,0.29909770004451275,None,None,None,,,,,,,,,,,0,0,0,0,0,48,48,48,425.2403400000185,,,,,,,,,,,,,,,,,,,,,,,,,,,,,,,,,,,,,,425.16724710026756,425.1672913003713,425.2368599004112,425.2403400000185,425.2403400000185,425.2403400000185,425.2403400000185,428.25035600038245,428.25035600038245,429.18380940007046,1,1,0.8477298002690077,0.29909770004451275,None,429.1838809000328,429.1839015004225,None,429.1839248002507,429.18394220015034,None,,,,,,,,,,,,,4,8,0,0,2025-02-18_10h13.08.043,rtmindeye,2024.2.4,59.948983431415265,2025-02-18 10h13.22.980002 -0500,
all_stimuli/unchosen_nsd_1000_images/unchosen_2476_cocoid_72275.png,49,0,49,49,0,,,,,,0,0,0,8,1,"[9, 21, 31, 45, 56, 68, 69]",1,1,0.8308744998648763,0.27690730011090636,None,None,None,,,,,,,,,,,0,0,0,0,0,49,49,49,429.230282000266,,,,,,,,,,,,,,,,,,,,,,,,,,,,,,,,,,,,,,429.18410140043125,429.1841485002078,429.22860150039196,429.230282000266,429.230282000266,429.230282000266,429.230282000266,432.23377550020814,432.23377550020814,433.20045540016145,1,1,0.8308744998648763,0.27690730011090636,None,433.20052950037643,433.2005506004207,None,433.20057520037517,433.20059260027483,None,,,,,,,,,,,,,4,8,0,0,2025-02-18_10h13.08.043,rtmindeye,2024.2.4,59.948983431415265,2025-02-18 10h13.22.980002 -0500,
all_stimuli/unchosen_nsd_1000_images/unchosen_5565_cocoid_19653.png,50,0,50,50,0,,,,,,0,0,0,8,1,"[9, 21, 31, 45, 56, 68, 69]",1,1,1.4430239996872842,0.4429035000503063,None,None,None,,,,,,,,,,,0,0,0,0,0,50,50,50,433.2331818002276,,,,,,,,,,,,,,,,,,,,,,,,,,,,,,,,,,,,,,433.2007639002986,433.2008087001741,433.23155790008605,433.2331818002276,433.2331818002276,433.2331818002276,433.2331818002276,436.23372210003436,436.23372210003436,437.21701590018347,1,1,1.4430239996872842,0.4429035000503063,None,437.2170853000134,437.2171059004031,None,437.2171300002374,437.21714730001986,None,,,,,,,,,,,,,4,8,0,0,2025-02-18_10h13.08.043,rtmindeye,2024.2.4,59.948983431415265,2025-02-18 10h13.22.980002 -0500,
all_stimuli/unchosen_nsd_1000_images/unchosen_2161_cocoid_71424.png,51,0,51,51,0,,,,,,0,0,0,8,1,"[9, 21, 31, 45, 56, 68, 69]",1,1,1.0876679001376033,0.3888232000172138,None,None,None,,,,,,,,,,,0,0,0,0,0,51,51,51,437.23771090013906,,,,,,,,,,,,,,,,,,,,,,,,,,,,,,,,,,,,,,437.2173019000329,437.2173457001336,437.2361032003537,437.23771090013906,437.23771090013906,437.23771090013906,437.23771090013906,440.250046600122,440.250046600122,441.2337389001623,1,1,1.0876679001376033,0.3888232000172138,None,441.23380800010636,441.23382800025865,None,441.2338517000899,441.23386909998953,None,,,,,,,,,,,,,4,8,0,0,2025-02-18_10h13.08.043,rtmindeye,2024.2.4,59.948983431415265,2025-02-18 10h13.22.980002 -0500,
all_stimuli/MST_pairs1/pair_16_20_0.png,52,0,52,52,0,,,,,,0,0,0,8,1,"[9, 21, 31, 45, 56, 68, 69]",1,1,1.2246098998002708,0.3911546003073454,None,None,None,,,,,,,,,,,0,0,0,0,0,52,52,52,441.2614671001211,,,,,,,,,,,,,,,,,,,,,,,,,,,,,,,,,,,,,,441.2340220003389,441.234065100085,441.25966199999675,441.2614671001211,441.2614671001211,441.2614671001211,441.2614671001211,444.26689970027655,444.26689970027655,445.25020330026746,1,1,1.2246098998002708,0.3911546003073454,None,445.2502751001157,445.250295100268,None,445.2503186003305,445.25033619999886,None,,,,,,,,,,,,,4,8,0,0,2025-02-18_10h13.08.043,rtmindeye,2024.2.4,59.948983431415265,2025-02-18 10h13.22.980002 -0500,
all_stimuli/unchosen_nsd_1000_images/unchosen_2333_cocoid_6338.png,53,0,53,53,0,,,,,,0,0,0,8,1,"[9, 21, 31, 45, 56, 68, 69]",1,1,0.8088854998350143,0.596963900141418,None,None,None,,,,,,,,,,,0,0,0,0,0,53,53,53,445.27925510006025,,,,,,,,,,,,,,,,,,,,,,,,,,,,,,,,,,,,,,445.25049490015954,445.2505380003713,445.2776015000418,445.27925510006025,445.27925510006025,445.27925510006025,445.27925510006025,448.283725600224,448.283725600224,449.2668608003296,1,1,0.8088854998350143,0.596963900141418,None,449.2669326001778,449.26695330021903,None,449.26697700005025,449.2669943002984,None,,,,,,,,,,,,,4,8,0,0,2025-02-18_10h13.08.043,rtmindeye,2024.2.4,59.948983431415265,2025-02-18 10h13.22.980002 -0500,
all_stimuli/unchosen_nsd_1000_images/unchosen_1314_cocoid_36318.png,54,0,54,54,0,,,,,,0,0,0,8,1,"[9, 21, 31, 45, 56, 68, 69]",1,1,0.8227099003270268,0.3111392999999225,None,None,None,,,,,,,,,,,0,0,0,0,0,54,54,54,449.2933805002831,,,,,,,,,,,,,,,,,,,,,,,,,,,,,,,,,,,,,,449.2671536002308,449.26719720009714,449.2917618001811,449.2933805002831,449.2933805002831,449.2933805002831,449.2933805002831,452.30026430031285,452.30026430031285,453.2837061001919,1,1,0.8227099003270268,0.3111392999999225,None,453.28377540037036,453.28379580006003,None,453.2838196000084,453.28383700037375,None,,,,,,,,,,,,,4,8,0,0,2025-02-18_10h13.08.043,rtmindeye,2024.2.4,59.948983431415265,2025-02-18 10h13.22.980002 -0500,
all_stimuli/special515/special_48508.jpg,55,0,55,55,0,,,,,,0,0,0,8,1,"[9, 21, 31, 45, 56, 68, 69]",1,1,0.8043634002096951,0.4019614001736045,None,None,None,,,,,,,,,,,0,0,0,0,0,55,55,55,453.3098765001632,,,,,,,,,,,,,,,,,,,,,,,,,,,,,,,,,,,,,,453.28399370005354,453.28403720026836,453.3080870001577,453.3098765001632,453.3098765001632,453.3098765001632,453.3098765001632,456.31685480009764,456.31685480009764,457.30053360015154,1,1,0.8043634002096951,0.4019614001736045,None,457.30060539999977,457.30062600038946,None,457.30064989998937,457.30066780000925,None,,,,,,,,,,,,,4,8,0,0,2025-02-18_10h13.08.043,rtmindeye,2024.2.4,59.948983431415265,2025-02-18 10h13.22.980002 -0500,
blank.jpg,56,1,56,56,0,,,,,,0,0,0,8,1,"[9, 21, 31, 45, 56, 68, 69]",None,0,,,None,None,None,,,,,,,,,,,0,0,0,0,0,56,56,56,457.31702750036493,,,,,,,,,,,,,,,,,,,,,,,,,,,,,,,,,,,,,,457.30083500035107,457.3008787999861,457.308542100247,457.31702750036493,457.31702750036493,457.31702750036493,457.31702750036493,460.31683490006253,460.31683490006253,461.3002033000812,None,0,,,None,461.30026280041784,461.3002826003358,None,461.3003062000498,461.30032380018383,None,461.35947909997776,461.35947909997776,,,,,,,,,,,4,8,0,0,2025-02-18_10h13.08.043,rtmindeye,2024.2.4,59.948983431415265,2025-02-18 10h13.22.980002 -0500,
all_stimuli/MST_pairs1/pair_20_nsd_41_1_cocoid_15472.png,57,0,57,57,0,,,,,,0,0,0,8,1,"[9, 21, 31, 45, 56, 68, 69]",1,1,0.6496163001284003,0.23615340003743768,None,None,None,,,,,,,,,,,0,0,0,0,0,57,57,57,461.35947909997776,,,,,,,,,,,,,,,,,,,,,,,,,,,,,,,,,,,,,,461.30047420039773,461.3005161001347,461.35751130012795,461.35947909997776,461.35947909997776,461.35947909997776,461.35947909997776,464.3668188001029,464.3668188001029,465.31661830004305,1,1,0.6496163001284003,0.23615340003743768,None,465.3166868002154,465.3167074001394,None,465.3167310003191,465.316748900339,None,,,,,,,,,,,,,4,8,0,0,2025-02-18_10h13.08.043,rtmindeye,2024.2.4,59.948983431415265,2025-02-18 10h13.22.980002 -0500,
all_stimuli/unchosen_nsd_1000_images/unchosen_5035_cocoid_17426.png,58,0,58,58,0,,,,,,0,0,0,8,1,"[9, 21, 31, 45, 56, 68, 69]",1,1,0.6165734999813139,0.25509680015966296,None,None,None,,,,,,,,,,,0,0,0,0,0,58,58,58,465.35446230042726,,,,,,,,,,,,,,,,,,,,,,,,,,,,,,,,,,,,,,465.31690270034596,465.3169472999871,465.35281810024753,465.35446230042726,465.35446230042726,465.35446230042726,465.35446230042726,468.36700400011614,468.36700400011614,469.33367510000244,1,1,0.6165734999813139,0.25509680015966296,None,469.33374630007893,469.33376680035144,None,469.3337910003029,469.3338086004369,None,,,,,,,,,,,,,4,8,0,0,2025-02-18_10h13.08.043,rtmindeye,2024.2.4,59.948983431415265,2025-02-18 10h13.22.980002 -0500,
all_stimuli/shared1000_notspecial/notspecial_27580.png,59,0,59,59,0,,,,,,0,0,0,8,1,"[9, 21, 31, 45, 56, 68, 69]",1,1,1.7129075000993907,0.25582269998267293,None,None,None,,,,,,,,,,,0,0,0,0,0,59,59,59,469.3652309002355,,,,,,,,,,,,,,,,,,,,,,,,,,,,,,,,,,,,,,469.3339728000574,469.334016200155,469.363623900339,469.3652309002355,469.3652309002355,469.3652309002355,469.3652309002355,472.36670650029555,472.36670650029555,473.3504304001108,1,1,1.7129075000993907,0.25582269998267293,None,473.35050400020555,473.35052490001544,None,473.35054920008406,473.35056640021503,None,,,,,,,,,,,,,4,8,0,0,2025-02-18_10h13.08.043,rtmindeye,2024.2.4,59.948983431415265,2025-02-18 10h13.22.980002 -0500,
all_stimuli/unchosen_nsd_1000_images/unchosen_4877_cocoid_16752.png,60,0,60,60,0,,,,,,0,0,0,8,1,"[9, 21, 31, 45, 56, 68, 69]",1,1,0.5903890002518892,0.22705669980496168,None,None,None,,,,,,,,,,,0,0,0,0,0,60,60,60,473.3806447000243,,,,,,,,,,,,,,,,,,,,,,,,,,,,,,,,,,,,,,473.35073170019314,473.3507766001858,473.37902700016275,473.3806447000243,473.3806447000243,473.3806447000243,473.3806447000243,476.3836058001034,476.3836058001034,477.36687050014734,1,1,0.5903890002518892,0.22705669980496168,None,477.3669410003349,477.3669613003731,None,477.3669851003215,477.3670021002181,None,,,,,,,,,,,,,4,8,0,0,2025-02-18_10h13.08.043,rtmindeye,2024.2.4,59.948983431415265,2025-02-18 10h13.22.980002 -0500,
all_stimuli/MST_pairs1/pair_44_w_log_cabin1.jpg,61,0,61,61,0,,,,,,0,0,0,8,1,"[9, 21, 31, 45, 56, 68, 69]",1,1,0.5991411004215479,0.25489879958331585,None,None,None,,,,,,,,,,,0,0,0,0,0,61,61,61,477.39601400028914,,,,,,,,,,,,,,,,,,,,,,,,,,,,,,,,,,,,,,477.3671579002403,477.36720170034096,477.3941680002026,477.39601400028914,477.39601400028914,477.39601400028914,477.39601400028914,480.4002833003178,480.4002833003178,481.3835523002781,1,1,0.5991411004215479,0.25489879958331585,None,481.3836405002512,481.3836614000611,None,481.3836852000095,481.38370240014046,None,,,,,,,,,,,,,4,8,0,0,2025-02-18_10h13.08.043,rtmindeye,2024.2.4,59.948983431415265,2025-02-18 10h13.22.980002 -0500,
all_stimuli/special515/special_6489.jpg,62,0,62,62,0,,,,,,1,0,0,8,1,"[9, 21, 31, 45, 56, 68, 69]",2,1,1.0029465998522937,0.48203170020133257,None,None,None,,,,,,,,,,,0,0,0,0,0,62,62,62,481.4000597000122,,,,,,,,,,,,,,,,,,,,,,,,,,,,,,,,,,,,,,481.3838638002053,481.383907600306,481.39685410028324,481.4000597000122,481.4000597000122,481.4000597000122,481.4000597000122,484.39999010041356,484.39999010041356,485.38354970002547,2,1,1.0029465998522937,0.48203170020133257,None,485.3836159002967,485.38363520009443,None,485.3836584002711,485.383675200399,None,485.4043688001111,485.4043688001111,,,,,,,,,,,4,8,0,0,2025-02-18_10h13.08.043,rtmindeye,2024.2.4,59.948983431415265,2025-02-18 10h13.22.980002 -0500,
all_stimuli/unchosen_nsd_1000_images/unchosen_4415_cocoid_47465.png,63,0,63,63,0,,,,,,0,0,0,8,1,"[9, 21, 31, 45, 56, 68, 69]",1,1,0.7357276999391615,0.3010559002868831,None,None,None,,,,,,,,,,,0,0,0,0,0,63,63,63,485.4043688001111,,,,,,,,,,,,,,,,,,,,,,,,,,,,,,,,,,,,,,485.3838333999738,485.3838718002662,485.4027311000973,485.4043688001111,485.4043688001111,485.4043688001111,485.4043688001111,488.4167614001781,488.4167614001781,489.4001643001102,1,1,0.7357276999391615,0.3010559002868831,None,489.4002347001806,489.40025570010766,None,489.40027860039845,489.400296300184,None,,,,,,,,,,,,,4,8,0,0,2025-02-18_10h13.08.043,rtmindeye,2024.2.4,59.948983431415265,2025-02-18 10h13.22.980002 -0500,
all_stimuli/special515/special_17048.jpg,64,0,64,64,0,,,,,,0,0,0,8,1,"[9, 21, 31, 45, 56, 68, 69]",1,1,0.6251362999901175,0.3088774001225829,None,None,None,,,,,,,,,,,0,0,0,0,0,64,64,64,489.4169809999876,,,,,,,,,,,,,,,,,,,,,,,,,,,,,,,,,,,,,,489.40045370021835,489.4004976004362,489.4150872002356,489.4169809999876,489.4169809999876,489.4169809999876,489.4169809999876,492.41651310026646,492.41651310026646,493.40027940040454,1,1,0.6251362999901175,0.3088774001225829,None,493.40034499997273,493.40036480035633,None,493.4003881001845,493.4004052001983,None,493.4285189001821,493.4285189001821,,,,,,,,,,,4,8,0,0,2025-02-18_10h13.08.043,rtmindeye,2024.2.4,59.948983431415265,2025-02-18 10h13.22.980002 -0500,
all_stimuli/unchosen_nsd_1000_images/unchosen_1528_cocoid_4153.png,65,0,65,65,0,,,,,,0,0,0,8,1,"[9, 21, 31, 45, 56, 68, 69]",1,1,0.7166408998891711,0.37181949988007545,None,None,None,,,,,,,,,,,0,0,0,0,0,65,65,65,493.4285189001821,,,,,,,,,,,,,,,,,,,,,,,,,,,,,,,,,,,,,,493.4005589000881,493.40059700002894,493.42670350009575,493.4285189001821,493.4285189001821,493.4285189001821,493.4285189001821,496.4333455003798,496.4333455003798,497.41684320010245,1,1,0.7166408998891711,0.37181949988007545,None,497.4169130004011,497.4169334000908,None,497.41695630038157,497.4169738003984,None,,,,,,,,,,,,,4,8,0,0,2025-02-18_10h13.08.043,rtmindeye,2024.2.4,59.948983431415265,2025-02-18 10h13.22.980002 -0500,
all_stimuli/unchosen_nsd_1000_images/unchosen_1846_cocoid_70572.png,66,0,66,66,0,,,,,,0,0,0,8,1,"[9, 21, 31, 45, 56, 68, 69]",1,1,0.549580099992454,0.2680097999982536,None,None,None,,,,,,,,,,,0,0,0,0,0,66,66,66,497.4475705004297,,,,,,,,,,,,,,,,,,,,,,,,,,,,,,,,,,,,,,497.41713020019233,497.4171735001728,497.4459065999836,497.4475705004297,497.4475705004297,497.4475705004297,497.4475705004297,500.4498729002662,500.4498729002662,501.4331307001412,1,1,0.549580099992454,0.2680097999982536,None,501.43320590024814,501.4332262002863,None,501.43325030012056,501.4332677000202,None,,,,,,,,,,,,,4,8,0,0,2025-02-18_10h13.08.043,rtmindeye,2024.2.4,59.948983431415265,2025-02-18 10h13.22.980002 -0500,
all_stimuli/unchosen_nsd_1000_images/unchosen_3655_cocoid_11461.png,67,0,67,67,0,,,,,,0,0,0,8,1,"[9, 21, 31, 45, 56, 68, 69]",1,1,1.0510498001240194,0.623146700207144,None,None,None,,,,,,,,,,,0,0,0,0,0,67,67,67,501.45194509997964,,,,,,,,,,,,,,,,,,,,,,,,,,,,,,,,,,,,,,501.4334301003255,501.43347869999707,501.45028780028224,501.45194509997964,501.45194509997964,501.45194509997964,501.45194509997964,504.46662520011887,504.46662520011887,505.45009200042114,1,1,1.0510498001240194,0.623146700207144,None,505.45016180025414,505.4501820001751,None,505.4502056003548,505.4502230002545,None,,,,,,,,,,,,,4,8,0,0,2025-02-18_10h13.08.043,rtmindeye,2024.2.4,59.948983431415265,2025-02-18 10h13.22.980002 -0500,
blank.jpg,68,1,68,68,0,,,,,,0,0,0,8,1,"[9, 21, 31, 45, 56, 68, 69]",None,0,,,None,None,None,,,,,,,,,,,0,0,0,0,0,68,68,68,505.4666493004188,,,,,,,,,,,,,,,,,,,,,,,,,,,,,,,,,,,,,,505.45038060005754,505.45047070039436,505.4595785001293,505.4666493004188,505.4666493004188,505.4666493004188,505.4666493004188,508.4666774002835,508.4666774002835,509.45000030007213,None,0,,,None,509.4500602004118,509.45007969997823,None,509.45010390039533,509.4501210004091,None,509.466681800317,509.466681800317,,,,,,,,,,,4,8,0,0,2025-02-18_10h13.08.043,rtmindeye,2024.2.4,59.948983431415265,2025-02-18 10h13.22.980002 -0500,
blank.jpg,69,1,69,69,0,,,,,,0,1,0,8,0,"[9, 21, 31, 45, 56, 68, 69]",None,0,,,None,1,equal,10.64642750006169,None,27.02364130038768,None,,,,,,,0,0,0,0,0,69,69,69,509.466681800317,,,,,,,,,,,,,,,,,,,,,,,,,,,,,,,,,,,,,,509.45027000037953,509.4503076002002,509.45669450005516,509.466681800317,509.466681800317,509.466681800317,509.466681800317,512.4667636002414,512.4667636002414,513.4501945003867,None,0,,,None,513.4572800002061,524.1169682000764,1,524.11702730041,551.1668991004117,equal,513.4666971000843,513.4666971000843,513.4666971000843,513.4666971000843,10.64642750006169,None,524.1334687001072,524.1334687001072,27.02364130038768,None,,,4,8,0,0,2025-02-18_10h13.08.043,rtmindeye,2024.2.4,59.948983431415265,2025-02-18 10h13.22.980002 -0500,
,,,0,0,0,,,,,,,,,,,,,,,,,,,,,,,,,,,,,0,0,0,0,,,,,,,,,,,,,,,,,,,,,,,,,,,,,,,,,,,,,,,,,,,,,,,,,,,,,,,,,,,,,,,,,,,,,,,,,,,,4,8,0,0,2025-02-18_10h13.08.043,rtmindeye,2024.2.4,59.948983431415265,2025-02-18 10h13.22.980002 -0500,
all_stimuli/unchosen_nsd_1000_images/unchosen_3589_cocoid_11125.png,0,0,0,0,0,,,,,,0,0,1,8,1,"[9, 21, 31, 45, 56, 68, 69]",1,1,1.1069320002570748,0.26905309967696667,None,None,None,,,,,,,,,,,1,0,1,0,0,0,0,0,551.2181140002795,,,,,,,,,,,,,,,,,,,,,,,,,,,,,,,,,,,,,,551.199978900142,551.2000855002552,551.2159099001437,551.2181140002795,551.2181140002795,551.2181140002795,551.2181140002795,554.2331451000646,554.2331451000646,555.2167524001561,1,1,1.1069320002570748,0.26905309967696667,None,555.2168229999952,555.2168443002738,None,555.2168674003333,555.2168851001188,None,,,,,,,,,,,,,4,8,0,0,2025-02-18_10h13.08.043,rtmindeye,2024.2.4,59.948983431415265,2025-02-18 10h13.22.980002 -0500,
all_stimuli/unchosen_nsd_1000_images/unchosen_1823_cocoid_4988.png,1,0,1,1,0,,,,,,0,0,1,8,1,"[9, 21, 31, 45, 56, 68, 69]",1,1,0.8247303003445268,0.24487269995734096,None,None,None,,,,,,,,,,,1,0,1,0,0,1,1,1,555.2553711002693,,,,,,,,,,,,,,,,,,,,,,,,,,,,,,,,,,,,,,555.2170435003936,555.2170862001367,555.2536492003128,555.2553711002693,555.2553711002693,555.2553711002693,555.2553711002693,558.266512000002,558.266512000002,559.2332535004243,1,1,0.8247303003445268,0.24487269995734096,None,559.2333244001493,559.2333448003046,None,559.233368600253,559.2333864001557,None,,,,,,,,,,,,,4,8,0,0,2025-02-18_10h13.08.043,rtmindeye,2024.2.4,59.948983431415265,2025-02-18 10h13.22.980002 -0500,
all_stimuli/unchosen_nsd_1000_images/unchosen_6014_cocoid_21570.png,2,0,2,2,0,,,,,,0,0,1,8,1,"[9, 21, 31, 45, 56, 68, 69]",1,1,0.6720902002416551,0.35588179994374514,None,None,None,,,,,,,,,,,1,0,1,0,0,2,2,2,559.2739994004369,,,,,,,,,,,,,,,,,,,,,,,,,,,,,,,,,,,,,,559.233551800251,559.2335964003578,559.2723730001599,559.2739994004369,559.2739994004369,559.2739994004369,559.2739994004369,562.2835767003708,562.2835767003708,563.2501127002761,1,1,0.6720902002416551,0.35588179994374514,None,563.250182100106,563.2502020001411,None,563.2502254000865,563.2502427003346,None,,,,,,,,,,,,,4,8,0,0,2025-02-18_10h13.08.043,rtmindeye,2024.2.4,59.948983431415265,2025-02-18 10h13.22.980002 -0500,
all_stimuli/unchosen_nsd_1000_images/unchosen_7381_cocoid_27166.png,3,0,3,3,0,,,,,,0,0,1,8,1,"[9, 21, 31, 45, 56, 68, 69]",1,1,1.5028095999732614,0.4729360998608172,None,None,None,,,,,,,,,,,1,0,1,0,0,3,3,3,563.2782427002676,,,,,,,,,,,,,,,,,,,,,,,,,,,,,,,,,,,,,,563.2503999001347,563.2504537003115,563.2766078002751,563.2782427002676,563.2782427002676,563.2782427002676,563.2782427002676,566.2828772002831,566.2828772002831,567.2666613003239,1,1,1.5028095999732614,0.4729360998608172,None,567.2667305003852,567.266751000192,None,567.2667750003748,567.2667922000401,None,,,,,,,,,,,,,4,8,0,0,2025-02-18_10h13.08.043,rtmindeye,2024.2.4,59.948983431415265,2025-02-18 10h13.22.980002 -0500,
all_stimuli/special515/special_33543.jpg,4,0,4,4,0,,,,,,0,0,1,8,1,"[9, 21, 31, 45, 56, 68, 69]",1,1,0.7211507000029087,0.5859878999181092,None,None,None,,,,,,,,,,,1,0,1,0,0,4,4,4,567.2838006000966,,,,,,,,,,,,,,,,,,,,,,,,,,,,,,,,,,,,,,567.2669528000988,567.2670061001554,567.2819935004227,567.2838006000966,567.2838006000966,567.2838006000966,567.2838006000966,570.2832899000496,570.2832899000496,571.2666501002386,1,1,0.7211507000029087,0.5859878999181092,None,571.2667135000229,571.266733000055,None,571.2667559003457,571.2667724001221,None,571.310098499991,571.310098499991,,,,,,,,,,,4,8,0,0,2025-02-18_10h13.08.043,rtmindeye,2024.2.4,59.948983431415265,2025-02-18 10h13.22.980002 -0500,
all_stimuli/unchosen_nsd_1000_images/unchosen_2490_cocoid_6768.png,5,0,5,5,0,,,,,,0,0,1,8,1,"[9, 21, 31, 45, 56, 68, 69]",1,1,0.6098543000407517,0.5138615998439491,None,None,None,,,,,,,,,,,1,0,1,0,0,5,5,5,571.310098499991,,,,,,,,,,,,,,,,,,,,,,,,,,,,,,,,,,,,,,571.2669255002402,571.2669691001065,571.3084915000945,571.310098499991,571.310098499991,571.310098499991,571.310098499991,574.3166102999821,574.3166102999821,575.2832450000569,1,1,0.6098543000407517,0.5138615998439491,None,575.2833170001395,575.2833373001777,None,575.283362200018,575.2833802001551,None,,,,,,,,,,,,,4,8,0,0,2025-02-18_10h13.08.043,rtmindeye,2024.2.4,59.948983431415265,2025-02-18 10h13.22.980002 -0500,
all_stimuli/MST_pairs1/pair_42_w_icerink1.jpg,6,0,6,6,0,,,,,,0,0,1,8,1,"[9, 21, 31, 45, 56, 68, 69]",1,1,0.6572492998093367,0.3341045002453029,None,None,None,,,,,,,,,,,1,0,1,0,0,6,6,6,575.3248274000362,,,,,,,,,,,,,,,,,,,,,,,,,,,,,,,,,,,,,,575.283551600296,575.2835964001715,575.3231184002943,575.3248274000362,575.3248274000362,575.3248274000362,575.3248274000362,578.3332585003227,578.3332585003227,579.2998584001325,1,1,0.6572492998093367,0.3341045002453029,None,579.2999295000918,579.2999507002532,None,579.299974700436,579.2999920002185,None,,,,,,,,,,,,,4,8,0,0,2025-02-18_10h13.08.043,rtmindeye,2024.2.4,59.948983431415265,2025-02-18 10h13.22.980002 -0500,
all_stimuli/shared1000_notspecial/notspecial_70038.png,7,0,7,7,0,,,,,,0,0,1,8,1,"[9, 21, 31, 45, 56, 68, 69]",1,1,0.692954100202769,0.2518882001750171,None,None,None,,,,,,,,,,,1,0,1,0,0,7,7,7,579.3161106002517,,,,,,,,,,,,,,,,,,,,,,,,,,,,,,,,,,,,,,579.3001534002833,579.300196800381,579.3144523003139,579.3161106002517,579.3161106002517,579.3161106002517,579.3161106002517,582.316626300104,582.316626300104,583.2999343001284,1,1,0.692954100202769,0.2518882001750171,None,583.2999986000359,583.3000175002962,None,583.3000485002995,583.3000660003163,None,583.319016400259,583.319016400259,,,,,,,,,,,4,8,0,0,2025-02-18_10h13.08.043,rtmindeye,2024.2.4,59.948983431415265,2025-02-18 10h13.22.980002 -0500,
all_stimuli/unchosen_nsd_1000_images/unchosen_5237_cocoid_51014.png,8,0,8,8,0,,,,,,0,0,1,8,1,"[9, 21, 31, 45, 56, 68, 69]",2,0,0.9969942001625896,0.6959571000188589,None,None,None,,,,,,,,,,,1,0,1,0,0,8,8,8,583.319016400259,,,,,,,,,,,,,,,,,,,,,,,,,,,,,,,,,,,,,,583.3002235000022,583.3002626001835,583.3173843002878,583.319016400259,583.319016400259,583.319016400259,583.319016400259,586.3331711003557,586.3331711003557,587.3164651002735,2,0,0.9969942001625896,0.6959571000188589,None,587.3165354002267,587.316555800382,None,587.3165800003335,587.3165970002301,None,,,,,,,,,,,,,4,8,0,0,2025-02-18_10h13.08.043,rtmindeye,2024.2.4,59.948983431415265,2025-02-18 10h13.22.980002 -0500,
blank.jpg,9,1,9,9,0,,,,,,0,0,1,8,1,"[9, 21, 31, 45, 56, 68, 69]",None,0,,,None,None,None,,,,,,,,,,,1,0,1,0,0,9,9,9,587.3331716000102,,,,,,,,,,,,,,,,,,,,,,,,,,,,,,,,,,,,,,587.3167548002675,587.3167988001369,587.3255662000738,587.3331716000102,587.3331716000102,587.3331716000102,587.3331716000102,590.3330353000201,590.3330353000201,591.3165301000699,None,0,,,None,591.316588900052,591.316608000081,None,591.3166314000264,591.3166482001543,None,591.3600862002932,591.3600862002932,,,,,,,,,,,4,8,0,0,2025-02-18_10h13.08.043,rtmindeye,2024.2.4,59.948983431415265,2025-02-18 10h13.22.980002 -0500,
all_stimuli/unchosen_nsd_1000_images/unchosen_6323_cocoid_55621.png,10,0,10,10,0,,,,,,0,0,1,8,1,"[9, 21, 31, 45, 56, 68, 69]",1,1,0.8358870996162295,0.3959892001003027,None,None,None,,,,,,,,,,,1,0,1,0,0,10,10,10,591.3600862002932,,,,,,,,,,,,,,,,,,,,,,,,,,,,,,,,,,,,,,591.3168049002998,591.3168433001265,591.3584145000204,591.3600862002932,591.3600862002932,591.3600862002932,591.3600862002932,594.3666187003255,594.3666187003255,595.3330894000828,1,1,0.8358870996162295,0.3959892001003027,None,595.3331611002795,595.3331817002036,None,595.3332049003802,595.333222000394,None,,,,,,,,,,,,,4,8,0,0,2025-02-18_10h13.08.043,rtmindeye,2024.2.4,59.948983431415265,2025-02-18 10h13.22.980002 -0500,
all_stimuli/special515/special_7039.jpg,11,0,11,11,0,,,,,,0,0,1,8,1,"[9, 21, 31, 45, 56, 68, 69]",1,1,1.0943422997370362,0.3248931001871824,None,None,None,,,,,,,,,,,1,0,1,0,0,11,11,11,595.3655954999849,,,,,,,,,,,,,,,,,,,,,,,,,,,,,,,,,,,,,,595.333381399978,595.3334255004302,595.3636900000274,595.3655954999849,595.3655954999849,595.3655954999849,595.3655954999849,598.366018500179,598.366018500179,599.3497520000674,1,1,1.0943422997370362,0.3248931001871824,None,599.3498245002702,599.3498456003144,None,599.3498702002689,599.3498875000514,None,,,,,,,,,,,,,4,8,0,0,2025-02-18_10h13.08.043,rtmindeye,2024.2.4,59.948983431415265,2025-02-18 10h13.22.980002 -0500,
all_stimuli/unchosen_nsd_1000_images/unchosen_644_cocoid_1701.png,12,0,12,12,0,,,,,,0,0,1,8,1,"[9, 21, 31, 45, 56, 68, 69]",1,1,0.7982312999665737,0.4788985000923276,None,None,None,,,,,,,,,,,1,0,1,0,0,12,12,12,599.3717101002112,,,,,,,,,,,,,,,,,,,,,,,,,,,,,,,,,,,,,,599.3500529001467,599.3500975002535,599.3699172004126,599.3717101002112,599.3717101002112,599.3717101002112,599.3717101002112,602.3830053000711,602.3830053000711,603.3664653999731,1,1,0.7982312999665737,0.4788985000923276,None,603.3665366000496,603.3665569000877,None,603.3665813002735,603.3665991001762,None,,,,,,,,,,,,,4,8,0,0,2025-02-18_10h13.08.043,rtmindeye,2024.2.4,59.948983431415265,2025-02-18 10h13.22.980002 -0500,
all_stimuli/unchosen_nsd_1000_images/unchosen_1740_cocoid_37522.png,13,0,13,13,0,,,,,,0,0,1,8,1,"[9, 21, 31, 45, 56, 68, 69]",1,1,0.6110256002284586,0.3710693996399641,None,None,None,,,,,,,,,,,1,0,1,0,0,13,13,13,603.3878010003828,,,,,,,,,,,,,,,,,,,,,,,,,,,,,,,,,,,,,,603.3667606003582,603.366807400249,603.3858597003855,603.3878010003828,603.3878010003828,603.3878010003828,603.3878010003828,606.3998430999927,606.3998430999927,607.3832922000438,1,1,0.6110256002284586,0.3710693996399641,None,607.3833623002283,607.3833820000291,None,607.383406100329,607.3834234001115,None,,,,,,,,,,,,,4,8,0,0,2025-02-18_10h13.08.043,rtmindeye,2024.2.4,59.948983431415265,2025-02-18 10h13.22.980002 -0500,
all_stimuli/unchosen_nsd_1000_images/unchosen_4132_cocoid_13482.png,14,0,14,14,0,,,,,,0,0,1,8,1,"[9, 21, 31, 45, 56, 68, 69]",2,0,0.9623437002301216,0.5460758996196091,None,None,None,,,,,,,,,,,1,0,1,0,0,14,14,14,607.4065994000994,,,,,,,,,,,,,,,,,,,,,,,,,,,,,,,,,,,,,,607.3835821002722,607.3836293001659,607.4048353000544,607.4065994000994,607.4065994000994,607.4065994000994,607.4065994000994,610.4164353003725,610.4164353003725,611.3998735002242,2,0,0.9623437002301216,0.5460758996196091,None,611.3999421000481,611.3999623004347,None,611.3999858000316,611.4000036003999,None,,,,,,,,,,,,,4,8,0,0,2025-02-18_10h13.08.043,rtmindeye,2024.2.4,59.948983431415265,2025-02-18 10h13.22.980002 -0500,
all_stimuli/unchosen_nsd_1000_images/unchosen_8522_cocoid_64557.png,15,0,15,15,0,,,,,,0,0,1,8,1,"[9, 21, 31, 45, 56, 68, 69]",2,0,0.8182335002347827,0.3941251002252102,None,None,None,,,,,,,,,,,1,0,1,0,0,15,15,15,611.4356411001645,,,,,,,,,,,,,,,,,,,,,,,,,,,,,,,,,,,,,,611.4001602004282,611.4002138003707,611.4340292001143,611.4356411001645,611.4356411001645,611.4356411001645,611.4356411001645,614.4496547002345,614.4496547002345,615.4166335002519,2,0,0.8182335002347827,0.3941251002252102,None,615.416705599986,615.4167262003757,None,615.416749600321,615.4167665001005,None,,,,,,,,,,,,,4,8,0,0,2025-02-18_10h13.08.043,rtmindeye,2024.2.4,59.948983431415265,2025-02-18 10h13.22.980002 -0500,
all_stimuli/unchosen_nsd_1000_images/unchosen_3038_cocoid_41490.png,16,0,16,16,0,,,,,,0,0,1,8,1,"[9, 21, 31, 45, 56, 68, 69]",1,1,0.9723582998849452,0.7199663002975285,None,None,None,,,,,,,,,,,1,0,1,0,0,16,16,16,615.477514100261,,,,,,,,,,,,,,,,,,,,,,,,,,,,,,,,,,,,,,615.4169384003617,615.4169821003452,615.4758577002212,615.477514100261,615.477514100261,615.477514100261,615.477514100261,618.482729700394,618.482729700394,619.4328797003254,1,1,0.9723582998849452,0.7199663002975285,None,619.4329498000443,619.4329700004309,None,619.4329933002591,619.4330104002729,None,,,,,,,,,,,,,4,8,0,0,2025-02-18_10h13.08.043,rtmindeye,2024.2.4,59.948983431415265,2025-02-18 10h13.22.980002 -0500,
all_stimuli/unchosen_nsd_1000_images/unchosen_7388_cocoid_59961.png,17,0,17,17,0,,,,,,0,0,1,8,1,"[9, 21, 31, 45, 56, 68, 69]",1,1,1.2759822998195887,0.5957688000053167,None,None,None,,,,,,,,,,,1,0,1,0,0,17,17,17,619.4640216003172,,,,,,,,,,,,,,,,,,,,,,,,,,,,,,,,,,,,,,619.4331687004305,619.4332126001827,619.4622198999859,619.4640216003172,619.4640216003172,619.4640216003172,619.4640216003172,622.4664345001802,622.4664345001802,623.4496629000641,1,1,1.2759822998195887,0.5957688000053167,None,623.4497338002548,623.449754900299,None,623.4497790001333,623.4497967003845,None,,,,,,,,,,,,,4,8,0,0,2025-02-18_10h13.08.043,rtmindeye,2024.2.4,59.948983431415265,2025-02-18 10h13.22.980002 -0500,
all_stimuli/unchosen_nsd_1000_images/unchosen_8017_cocoid_62393.png,18,0,18,18,0,,,,,,0,0,1,8,1,"[9, 21, 31, 45, 56, 68, 69]",1,1,1.1207480998709798,0.7260517999529839,None,None,None,,,,,,,,,,,1,0,1,0,0,18,18,18,623.4951810999773,,,,,,,,,,,,,,,,,,,,,,,,,,,,,,,,,,,,,,623.4499611002393,623.450006400235,623.4934220002033,623.4951810999773,623.4951810999773,623.4951810999773,623.4951810999773,626.4996952000074,626.4996952000074,627.4663803000003,1,1,1.1207480998709798,0.7260517999529839,None,627.466450100299,627.4664708999917,None,627.4664946002886,627.4665121003054,None,,,,,,,,,,,,,4,8,0,0,2025-02-18_10h13.08.043,rtmindeye,2024.2.4,59.948983431415265,2025-02-18 10h13.22.980002 -0500,
all_stimuli/unchosen_nsd_1000_images/unchosen_5215_cocoid_18163.png,19,0,19,19,0,,,,,,0,0,1,8,1,"[9, 21, 31, 45, 56, 68, 69]",1,1,1.0340690999291837,0.4610720998607576,None,None,None,,,,,,,,,,,1,0,1,0,0,19,19,19,627.4857792002149,,,,,,,,,,,,,,,,,,,,,,,,,,,,,,,,,,,,,,627.4666763003916,627.4667199002579,627.4841720000841,627.4857792002149,627.4857792002149,627.4857792002149,627.4857792002149,630.499486700166,630.499486700166,631.4829161004163,1,1,1.0340690999291837,0.4610720998607576,None,631.4829884003848,631.4830090003088,None,631.4830328002572,631.483049900271,None,,,,,,,,,,,,,4,8,0,0,2025-02-18_10h13.08.043,rtmindeye,2024.2.4,59.948983431415265,2025-02-18 10h13.22.980002 -0500,
all_stimuli/special515/special_29711.jpg,20,0,20,20,0,,,,,,0,0,1,8,1,"[9, 21, 31, 45, 56, 68, 69]",1,1,0.8644885001704097,0.3048692997545004,None,None,None,,,,,,,,,,,1,0,1,0,0,20,20,20,631.5164725002833,,,,,,,,,,,,,,,,,,,,,,,,,,,,,,,,,,,,,,631.4832109003328,631.4832547004335,631.5147077003494,631.5164725002833,631.5164725002833,631.5164725002833,631.5164725002833,634.5162885002792,634.5162885002792,635.4995783003978,1,1,0.8644885001704097,0.3048692997545004,None,635.4996480001137,635.4996682000346,None,635.4996921001002,635.4997094003484,None,,,,,,,,,,,,,4,8,0,0,2025-02-18_10h13.08.043,rtmindeye,2024.2.4,59.948983431415265,2025-02-18 10h13.22.980002 -0500,
blank.jpg,21,1,21,21,0,,,,,,0,0,1,8,1,"[9, 21, 31, 45, 56, 68, 69]",None,0,,,None,None,None,,,,,,,,,,,1,0,1,0,0,21,21,21,635.516289900057,,,,,,,,,,,,,,,,,,,,,,,,,,,,,,,,,,,,,,635.4998657000251,635.499909600243,635.5097419000231,635.516289900057,635.516289900057,635.516289900057,635.516289900057,638.5164714003913,638.5164714003913,639.4995306003839,None,0,,,None,639.4995910003781,639.499610400293,None,639.4996346002445,639.4996516001411,None,639.5217448002659,639.5217448002659,,,,,,,,,,,4,8,0,0,2025-02-18_10h13.08.043,rtmindeye,2024.2.4,59.948983431415265,2025-02-18 10h13.22.980002 -0500,
all_stimuli/unchosen_nsd_1000_images/unchosen_6727_cocoid_57234.png,22,0,22,22,0,,,,,,0,0,1,8,1,"[9, 21, 31, 45, 56, 68, 69]",1,1,1.5301341000013053,0.7249771999195218,None,None,None,,,,,,,,,,,1,0,1,0,0,22,22,22,639.5217448002659,,,,,,,,,,,,,,,,,,,,,,,,,,,,,,,,,,,,,,639.4998089000583,639.4998465003446,639.5200729002245,639.5217448002659,639.5217448002659,639.5217448002659,639.5217448002659,642.5330292000435,642.5330292000435,643.5164439002983,1,1,1.5301341000013053,0.7249771999195218,None,643.5165142002515,643.5165346004069,None,643.5165589000098,643.5165763003752,None,,,,,,,,,,,,,4,8,0,0,2025-02-18_10h13.08.043,rtmindeye,2024.2.4,59.948983431415265,2025-02-18 10h13.22.980002 -0500,
all_stimuli/unchosen_nsd_1000_images/unchosen_7843_cocoid_28939.png,23,0,23,23,0,,,,,,0,0,1,8,1,"[9, 21, 31, 45, 56, 68, 69]",1,1,0.7829324998892844,0.8281212002038956,None,None,None,,,,,,,,,,,1,0,1,0,0,23,23,23,643.5497817001306,,,,,,,,,,,,,,,,,,,,,,,,,,,,,,,,,,,,,,643.5167419002391,643.5167864002287,643.5482300003059,643.5497817001306,643.5497817001306,643.5497817001306,643.5497817001306,646.5495595000684,646.5495595000684,647.5332051003352,1,1,0.7829324998892844,0.8281212002038956,None,647.5332735003904,647.5332936001942,None,647.5333174001426,647.5333354002796,None,,,,,,,,,,,,,4,8,0,0,2025-02-18_10h13.08.043,rtmindeye,2024.2.4,59.948983431415265,2025-02-18 10h13.22.980002 -0500,
all_stimuli/unchosen_nsd_1000_images/unchosen_1304_cocoid_69053.png,24,0,24,24,0,,,,,,0,0,1,8,1,"[9, 21, 31, 45, 56, 68, 69]",1,1,0.9164365003816783,0.6960696997120976,None,None,None,,,,,,,,,,,1,0,1,0,0,24,24,24,647.5634236000478,,,,,,,,,,,,,,,,,,,,,,,,,,,,,,,,,,,,,,647.5334892002866,647.5335367000662,647.5616816002876,647.5634236000478,647.5634236000478,647.5634236000478,647.5634236000478,650.5664713000879,650.5664713000879,651.5496252002195,1,1,0.9164365003816783,0.6960696997120976,None,651.5496967001818,651.5497171003371,None,651.5497407000512,651.5497579001822,None,,,,,,,,,,,,,4,8,0,0,2025-02-18_10h13.08.043,rtmindeye,2024.2.4,59.948983431415265,2025-02-18 10h13.22.980002 -0500,
all_stimuli/unchosen_nsd_1000_images/unchosen_5231_cocoid_51002.png,25,0,25,25,0,,,,,,0,0,1,8,1,"[9, 21, 31, 45, 56, 68, 69]",1,1,0.8152413000352681,0.4969518003053963,None,None,None,,,,,,,,,,,1,0,1,0,0,25,25,25,651.584739100188,,,,,,,,,,,,,,,,,,,,,,,,,,,,,,,,,,,,,,651.5499186003581,651.54996199999,651.5829652003013,651.584739100188,651.584739100188,651.584739100188,651.584739100188,654.5995669001713,654.5995669001713,655.5663217003457,1,1,0.8152413000352681,0.4969518003053963,None,655.566392400302,655.566413000226,None,655.5664372001775,655.5664549004287,None,,,,,,,,,,,,,4,8,0,0,2025-02-18_10h13.08.043,rtmindeye,2024.2.4,59.948983431415265,2025-02-18 10h13.22.980002 -0500,
all_stimuli/special515/special_28524.jpg,26,0,26,26,0,,,,,,0,0,1,8,1,"[9, 21, 31, 45, 56, 68, 69]",1,1,0.8782433001324534,0.7539353999309242,None,None,None,,,,,,,,,,,1,0,1,0,0,26,26,26,655.5826132004149,,,,,,,,,,,,,,,,,,,,,,,,,,,,,,,,,,,,,,655.5666177002713,655.5666621001437,655.5806864001788,655.5826132004149,655.5826132004149,655.5826132004149,655.5826132004149,658.582807100378,658.582807100378,659.5659733000211,1,1,0.8782433001324534,0.7539353999309242,None,659.5660390001722,659.5660589002073,None,659.5660826000385,659.5660995002836,None,659.6056206002831,659.6056206002831,,,,,,,,,,,4,8,0,0,2025-02-18_10h13.08.043,rtmindeye,2024.2.4,59.948983431415265,2025-02-18 10h13.22.980002 -0500,
all_stimuli/unchosen_nsd_1000_images/unchosen_2450_cocoid_72201.png,27,0,27,27,0,,,,,,0,0,1,8,1,"[9, 21, 31, 45, 56, 68, 69]",1,1,1.0093073998577893,0.4969254001043737,None,None,None,,,,,,,,,,,1,0,1,0,0,27,27,27,659.6056206002831,,,,,,,,,,,,,,,,,,,,,,,,,,,,,,,,,,,,,,659.566256900318,659.5662954002619,659.6039429004304,659.6056206002831,659.6056206002831,659.6056206002831,659.6056206002831,662.6164222001098,662.6164222001098,663.5665538003668,1,1,1.0093073998577893,0.4969254001043737,None,663.56662410032,663.5666449000128,None,663.5666690003127,663.5666863000952,None,,,,,,,,,,,,,4,8,0,0,2025-02-18_10h13.08.043,rtmindeye,2024.2.4,59.948983431415265,2025-02-18 10h13.22.980002 -0500,
all_stimuli/special515/special_42912.jpg,28,0,28,28,0,,,,,,0,0,1,8,1,"[9, 21, 31, 45, 56, 68, 69]",1,1,0.8319469997659326,0.34102809987962246,None,None,None,,,,,,,,,,,1,0,1,0,0,28,28,28,663.5909469001926,,,,,,,,,,,,,,,,,,,,,,,,,,,,,,,,,,,,,,663.5668570003472,663.5669011999853,663.5891660000198,663.5909469001926,663.5909469001926,663.5909469001926,663.5909469001926,666.5994781004265,666.5994781004265,667.5829006000422,1,1,0.8319469997659326,0.34102809987962246,None,667.5829708003439,667.5829915003851,None,667.5830157003365,667.5830328003503,None,,,,,,,,,,,,,4,8,0,0,2025-02-18_10h13.08.043,rtmindeye,2024.2.4,59.948983431415265,2025-02-18 10h13.22.980002 -0500,
all_stimuli/special515/special_4423.jpg,29,0,29,29,0,,,,,,0,0,1,8,1,"[9, 21, 31, 45, 56, 68, 69]",1,1,0.6316549000330269,0.33202029997482896,None,None,None,,,,,,,,,,,1,0,1,0,0,29,29,29,667.599156500306,,,,,,,,,,,,,,,,,,,,,,,,,,,,,,,,,,,,,,667.5831946004182,667.5832384000532,667.5974521003664,667.599156500306,667.599156500306,667.599156500306,667.599156500306,670.59956410015,670.59956410015,671.5831603002734,1,1,0.6316549000330269,0.33202029997482896,None,671.5832244004123,671.5832438999787,None,671.5832686000504,671.5832858001813,None,671.6178882000968,671.6178882000968,,,,,,,,,,,4,8,0,0,2025-02-18_10h13.08.043,rtmindeye,2024.2.4,59.948983431415265,2025-02-18 10h13.22.980002 -0500,
all_stimuli/unchosen_nsd_1000_images/unchosen_2316_cocoid_71831.png,30,0,30,30,0,,,,,,0,0,1,8,1,"[9, 21, 31, 45, 56, 68, 69]",1,1,0.7130661001428962,0.17289189994335175,None,None,None,,,,,,,,,,,1,0,1,0,0,30,30,30,671.6178882000968,,,,,,,,,,,,,,,,,,,,,,,,,,,,,,,,,,,,,,671.5834418004379,671.5834806002676,671.6162739000283,671.6178882000968,671.6178882000968,671.6178882000968,671.6178882000968,674.6328855999745,674.6328855999745,675.5994765004143,1,1,0.7130661001428962,0.17289189994335175,None,675.5995462001301,675.5995663003996,None,675.5995906000026,675.5996082001366,None,,,,,,,,,,,,,4,8,0,0,2025-02-18_10h13.08.043,rtmindeye,2024.2.4,59.948983431415265,2025-02-18 10h13.22.980002 -0500,
blank.jpg,31,1,31,31,0,,,,,,0,0,1,8,1,"[9, 21, 31, 45, 56, 68, 69]",None,0,,,None,None,None,,,,,,,,,,,1,0,1,0,0,31,31,31,675.616372000426,,,,,,,,,,,,,,,,,,,,,,,,,,,,,,,,,,,,,,675.5997659000568,675.5998094002716,675.6084271003492,675.616372000426,675.616372000426,675.616372000426,675.616372000426,678.6162818004377,678.6162818004377,679.5995745002292,None,0,,,None,679.599633899983,679.5996538000181,None,679.5996787003241,679.5996960001066,None,679.6240631002001,679.6240631002001,,,,,,,,,,,4,8,0,0,2025-02-18_10h13.08.043,rtmindeye,2024.2.4,59.948983431415265,2025-02-18 10h13.22.980002 -0500,
all_stimuli/special515/special_28096.jpg,32,0,32,32,0,,,,,,0,0,1,8,1,"[9, 21, 31, 45, 56, 68, 69]",1,1,0.8018672997131944,0.3628923003561795,None,None,None,,,,,,,,,,,1,0,1,0,0,32,32,32,679.6240631002001,,,,,,,,,,,,,,,,,,,,,,,,,,,,,,,,,,,,,,679.5998491002247,679.5998911000788,679.6222537001595,679.6240631002001,679.6240631002001,679.6240631002001,679.6240631002001,682.6328004002571,682.6328004002571,683.6162329004146,1,1,0.8018672997131944,0.3628923003561795,None,683.6163043002598,683.6163249001838,None,683.616348600015,683.6163665000349,None,,,,,,,,,,,,,4,8,0,0,2025-02-18_10h13.08.043,rtmindeye,2024.2.4,59.948983431415265,2025-02-18 10h13.22.980002 -0500,
all_stimuli/unchosen_nsd_1000_images/unchosen_6892_cocoid_25093.png,33,0,33,33,0,,,,,,0,0,1,8,1,"[9, 21, 31, 45, 56, 68, 69]",1,1,0.737637999933213,0.36411930015310645,None,None,None,,,,,,,,,,,1,0,1,0,0,33,33,33,683.6450939001516,,,,,,,,,,,,,,,,,,,,,,,,,,,,,,,,,,,,,,683.6165411002003,683.6165858004242,683.6434608004056,683.6450939001516,683.6450939001516,683.6450939001516,683.6450939001516,686.649454000406,686.649454000406,687.6327944002114,1,1,0.737637999933213,0.36411930015310645,None,687.632864900399,687.6328853000887,None,687.6329089002684,687.6329257003963,None,,,,,,,,,,,,,4,8,0,0,2025-02-18_10h13.08.043,rtmindeye,2024.2.4,59.948983431415265,2025-02-18 10h13.22.980002 -0500,
all_stimuli/shared1000_notspecial/notspecial_19672.png,34,0,34,34,0,,,,,,0,0,1,8,1,"[9, 21, 31, 45, 56, 68, 69]",1,1,0.6340924999676645,0.38189430022612214,None,None,None,,,,,,,,,,,1,0,1,0,0,34,34,34,687.6507524000481,,,,,,,,,,,,,,,,,,,,,,,,,,,,,,,,,,,,,,687.6330945002846,687.6331389001571,687.6492265001871,687.6507524000481,687.6507524000481,687.6507524000481,687.6507524000481,690.6664398000576,690.6664398000576,691.6495134001598,1,1,0.6340924999676645,0.38189430022612214,None,691.6495834002271,691.6496038003825,None,691.6496276999824,691.6496447999962,None,,,,,,,,,,,,,4,8,0,0,2025-02-18_10h13.08.043,rtmindeye,2024.2.4,59.948983431415265,2025-02-18 10h13.22.980002 -0500,
all_stimuli/unchosen_nsd_1000_images/unchosen_2012_cocoid_38236.png,35,0,35,35,0,,,,,,0,0,1,8,1,"[9, 21, 31, 45, 56, 68, 69]",1,1,0.550097799859941,0.3469537999480963,None,None,None,,,,,,,,,,,1,0,1,0,0,35,35,35,691.673683500383,,,,,,,,,,,,,,,,,,,,,,,,,,,,,,,,,,,,,,691.6498124999925,691.649856199976,691.6720690000802,691.673683500383,691.673683500383,691.673683500383,691.673683500383,694.6827827002853,694.6827827002853,695.6664015999995,1,1,0.550097799859941,0.3469537999480963,None,695.6664710002951,695.6664912002161,None,695.6665150001645,695.6665421002544,None,,,,,,,,,,,,,4,8,0,0,2025-02-18_10h13.08.043,rtmindeye,2024.2.4,59.948983431415265,2025-02-18 10h13.22.980002 -0500,
all_stimuli/unchosen_nsd_1000_images/unchosen_888_cocoid_35152.png,36,0,36,36,0,,,,,,0,0,1,8,1,"[9, 21, 31, 45, 56, 68, 69]",1,1,0.9162944997660816,0.3278534999117255,None,None,None,,,,,,,,,,,1,0,1,0,0,36,36,36,695.6985367001034,,,,,,,,,,,,,,,,,,,,,,,,,,,,,,,,,,,,,,695.6667080000043,695.6667520999908,695.696764500346,695.6985367001034,695.6985367001034,695.6985367001034,695.6985367001034,698.6994213000871,698.6994213000871,699.6827367004007,1,1,0.9162944997660816,0.3278534999117255,None,699.682807400357,699.6828278000467,None,699.6828522002324,699.6828694003634,None,,,,,,,,,,,,,4,8,0,0,2025-02-18_10h13.08.043,rtmindeye,2024.2.4,59.948983431415265,2025-02-18 10h13.22.980002 -0500,
all_stimuli/unchosen_nsd_1000_images/unchosen_8054_cocoid_29813.png,37,0,37,37,0,,,,,,0,0,1,8,1,"[9, 21, 31, 45, 56, 68, 69]",1,1,0.8208373999223113,0.29901459999382496,None,None,None,,,,,,,,,,,1,0,1,0,0,37,37,37,699.7059746002778,,,,,,,,,,,,,,,,,,,,,,,,,,,,,,,,,,,,,,699.683038700372,699.6831304002553,699.7041801000014,699.7059746002778,699.7059746002778,699.7059746002778,699.7059746002778,702.7159848003648,702.7159848003648,703.6994487000629,1,1,0.8208373999223113,0.29901459999382496,None,703.6995212002657,703.6995416004211,None,703.699565500021,703.6995828002691,None,,,,,,,,,,,,,4,8,0,0,2025-02-18_10h13.08.043,rtmindeye,2024.2.4,59.948983431415265,2025-02-18 10h13.22.980002 -0500,
all_stimuli/unchosen_nsd_1000_images/unchosen_6425_cocoid_23230.png,38,0,38,38,0,,,,,,0,0,1,8,1,"[9, 21, 31, 45, 56, 68, 69]",1,1,0.6839657002128661,0.4290058999322355,None,None,None,,,,,,,,,,,1,0,1,0,0,38,38,38,703.7387247001752,,,,,,,,,,,,,,,,,,,,,,,,,,,,,,,,,,,,,,703.6997458999977,703.699793100357,703.7370780003257,703.7387247001752,703.7387247001752,703.7387247001752,703.7387247001752,706.7492046002299,706.7492046002299,707.7162542003207,1,1,0.6839657002128661,0.4290058999322355,None,707.71632830007,707.7163492003456,None,707.7163740000688,707.7163921999745,None,,,,,,,,,,,,,4,8,0,0,2025-02-18_10h13.08.043,rtmindeye,2024.2.4,59.948983431415265,2025-02-18 10h13.22.980002 -0500,
all_stimuli/unchosen_nsd_1000_images/unchosen_5795_cocoid_53336.png,39,0,39,39,0,,,,,,0,0,1,8,1,"[9, 21, 31, 45, 56, 68, 69]",1,1,0.954453400336206,0.31806600000709295,None,None,None,,,,,,,,,,,1,0,1,0,0,39,39,39,707.7373355003074,,,,,,,,,,,,,,,,,,,,,,,,,,,,,,,,,,,,,,707.7165571004152,707.7166009000503,707.7357079000212,707.7373355003074,707.7373355003074,707.7373355003074,707.7373355003074,710.7494370001368,710.7494370001368,711.7327937004156,1,1,0.954453400336206,0.31806600000709295,None,711.7328637000173,711.7328845001757,None,711.73290860001,711.7329256003723,None,,,,,,,,,,,,,4,8,0,0,2025-02-18_10h13.08.043,rtmindeye,2024.2.4,59.948983431415265,2025-02-18 10h13.22.980002 -0500,
all_stimuli/unchosen_nsd_1000_images/unchosen_6021_cocoid_21605.png,40,0,40,40,0,,,,,,0,0,1,8,1,"[9, 21, 31, 45, 56, 68, 69]",1,1,0.9104392002336681,0.23400630010291934,None,None,None,,,,,,,,,,,1,0,1,0,0,40,40,40,711.7623252002522,,,,,,,,,,,,,,,,,,,,,,,,,,,,,,,,,,,,,,711.7330838004127,711.7331271003932,711.7606844003312,711.7623252002522,711.7623252002522,711.7623252002522,711.7623252002522,714.7659982000478,714.7659982000478,715.749477500096,1,1,0.9104392002336681,0.23400630010291934,None,715.7495484002866,715.7495689000934,None,715.749592400156,715.7496096002869,None,,,,,,,,,,,,,4,8,0,0,2025-02-18_10h13.08.043,rtmindeye,2024.2.4,59.948983431415265,2025-02-18 10h13.22.980002 -0500,
all_stimuli/MST_pairs1/pair_46_w_pool1.jpg,41,0,41,41,0,,,,,,0,0,1,8,1,"[9, 21, 31, 45, 56, 68, 69]",1,1,0.7920371000654995,0.2879627998918295,None,None,None,,,,,,,,,,,1,0,1,0,0,41,41,41,715.780755400192,,,,,,,,,,,,,,,,,,,,,,,,,,,,,,,,,,,,,,715.7497692001052,715.7498126002029,715.7790863001719,715.780755400192,715.780755400192,715.780755400192,715.780755400192,718.782723300159,718.782723300159,719.7659297999926,1,1,0.7920371000654995,0.2879627998918295,None,719.7660031002015,719.7660242002457,None,719.76604830008,719.7660652003251,None,,,,,,,,,,,,,4,8,0,0,2025-02-18_10h13.08.043,rtmindeye,2024.2.4,59.948983431415265,2025-02-18 10h13.22.980002 -0500,
all_stimuli/unchosen_nsd_1000_images/unchosen_8125_cocoid_62879.png,42,0,42,42,0,,,,,,0,0,1,8,1,"[9, 21, 31, 45, 56, 68, 69]",1,1,0.628596100024879,0.42506020003929734,None,None,None,,,,,,,,,,,1,0,1,0,0,42,42,42,719.8081215000711,,,,,,,,,,,,,,,,,,,,,,,,,,,,,,,,,,,,,,719.7662263000384,719.766270400025,719.8064636001363,719.8081215000711,719.8081215000711,719.8081215000711,719.8081215000711,722.8159680999815,722.8159680999815,723.7826022002846,1,1,0.628596100024879,0.42506020003929734,None,723.7826717002317,723.7826923001558,None,723.7827161001042,723.7827333002351,None,,,,,,,,,,,,,4,8,0,0,2025-02-18_10h13.08.043,rtmindeye,2024.2.4,59.948983431415265,2025-02-18 10h13.22.980002 -0500,
all_stimuli/unchosen_nsd_1000_images/unchosen_1191_cocoid_3177.png,43,0,43,43,0,,,,,,0,0,1,8,1,"[9, 21, 31, 45, 56, 68, 69]",1,1,1.4262717999517918,0.39723190013319254,None,None,None,,,,,,,,,,,1,0,1,0,0,43,43,43,723.8073500003666,,,,,,,,,,,,,,,,,,,,,,,,,,,,,,,,,,,,,,723.7828894001432,723.782936300151,723.8057237002067,723.8073500003666,723.8073500003666,723.8073500003666,723.8073500003666,726.816103100311,726.816103100311,727.7994221001863,1,1,1.4262717999517918,0.39723190013319254,None,727.7994933002628,727.7995138000697,None,727.7995377001353,727.7995546003804,None,,,,,,,,,,,,,4,8,0,0,2025-02-18_10h13.08.043,rtmindeye,2024.2.4,59.948983431415265,2025-02-18 10h13.22.980002 -0500,
all_stimuli/MST_pairs1/pair_36_nsd_949_1_cocoid_43196.png,44,0,44,44,0,,,,,,1,0,1,8,1,"[9, 21, 31, 45, 56, 68, 69]",2,1,1.2413487997837365,0.6430158000439405,None,None,None,,,,,,,,,,,1,0,1,0,0,44,44,44,727.8224871000275,,,,,,,,,,,,,,,,,,,,,,,,,,,,,,,,,,,,,,727.7997134001926,727.7997678001411,727.820571300108,727.8224871000275,727.8224871000275,727.8224871000275,727.8224871000275,730.832559700124,730.832559700124,731.815817499999,2,1,1.2413487997837365,0.6430158000439405,None,731.8158878004178,731.8159076003358,None,731.8159308000468,731.8159483000636,None,,,,,,,,,,,,,4,8,0,0,2025-02-18_10h13.08.043,rtmindeye,2024.2.4,59.948983431415265,2025-02-18 10h13.22.980002 -0500,
blank.jpg,45,1,45,45,0,,,,,,0,0,1,8,1,"[9, 21, 31, 45, 56, 68, 69]",None,0,,,None,None,None,,,,,,,,,,,1,0,1,0,0,45,45,45,731.8327648001723,,,,,,,,,,,,,,,,,,,,,,,,,,,,,,,,,,,,,,731.8161083003506,731.816154200118,731.8257576003671,731.8327648001723,731.8327648001723,731.8327648001723,731.8327648001723,734.8325672000647,734.8325672000647,735.8162986002862,None,0,,,None,735.8163678003475,735.8163889003918,None,735.8164135003462,735.8164311000146,None,,,,,,,,,,,,,4,8,0,0,2025-02-18_10h13.08.043,rtmindeye,2024.2.4,59.948983431415265,2025-02-18 10h13.22.980002 -0500,
all_stimuli/unchosen_nsd_1000_images/unchosen_4062_cocoid_45959.png,46,0,46,46,0,,,,,,0,0,1,8,1,"[9, 21, 31, 45, 56, 68, 69]",1,1,1.4492338998243213,0.3470971998758614,None,None,None,,,,,,,,,,,1,0,1,0,0,46,46,46,735.8484592000023,,,,,,,,,,,,,,,,,,,,,,,,,,,,,,,,,,,,,,735.8165939999744,735.8166377004236,735.8467965000309,735.8484592000023,735.8484592000023,735.8484592000023,735.8484592000023,738.8493350003846,738.8493350003846,739.8322885003872,1,1,1.4492338998243213,0.3470971998758614,None,739.8323612003587,739.8323821001686,None,739.8324065003544,739.832423500251,None,,,,,,,,,,,,,4,8,0,0,2025-02-18_10h13.08.043,rtmindeye,2024.2.4,59.948983431415265,2025-02-18 10h13.22.980002 -0500,
all_stimuli/unchosen_nsd_1000_images/unchosen_7744_cocoid_61344.png,47,0,47,47,0,,,,,,0,0,1,8,1,"[9, 21, 31, 45, 56, 68, 69]",1,1,1.5197582002729177,0.36197719955816865,None,None,None,,,,,,,,,,,1,0,1,0,0,47,47,47,739.8668947000988,,,,,,,,,,,,,,,,,,,,,,,,,,,,,,,,,,,,,,739.8325836001895,739.8326270002872,739.8652693000622,739.8668947000988,739.8668947000988,739.8668947000988,739.8668947000988,742.8662363002077,742.8662363002077,743.8493658001535,1,1,1.5197582002729177,0.36197719955816865,None,743.8494369001128,743.8494573002681,None,743.8494808999822,743.8494987003505,None,,,,,,,,,,,,,4,8,0,0,2025-02-18_10h13.08.043,rtmindeye,2024.2.4,59.948983431415265,2025-02-18 10h13.22.980002 -0500,
all_stimuli/unchosen_nsd_1000_images/unchosen_291_cocoid_66316.png,48,0,48,48,0,,,,,,0,0,1,8,1,"[9, 21, 31, 45, 56, 68, 69]",1,1,0.7810382000170648,0.409975599963218,None,None,None,,,,,,,,,,,1,0,1,0,0,48,48,48,743.8816924002022,,,,,,,,,,,,,,,,,,,,,,,,,,,,,,,,,,,,,,743.8496656003408,743.8497196002863,743.8800741001032,743.8816924002022,743.8816924002022,743.8816924002022,743.8816924002022,746.8825792004354,746.8825792004354,747.8657873002812,1,1,0.7810382000170648,0.409975599963218,None,747.8658593003638,747.865879600402,None,747.8659046003595,747.8659218000248,None,,,,,,,,,,,,,4,8,0,0,2025-02-18_10h13.08.043,rtmindeye,2024.2.4,59.948983431415265,2025-02-18 10h13.22.980002 -0500,
all_stimuli/unchosen_nsd_1000_images/unchosen_2988_cocoid_41339.png,49,0,49,49,0,,,,,,0,0,1,8,1,"[9, 21, 31, 45, 56, 68, 69]",1,1,2.7457558000460267,None,None,None,None,,,,,,,,,,,1,0,1,0,0,49,49,49,747.8928930000402,,,,,,,,,,,,,,,,,,,,,,,,,,,,,,,,,,,,,,747.8660818003118,747.866125700064,747.8911987002939,747.8928930000402,747.8928930000402,747.8928930000402,747.8928930000402,750.8993685999885,750.8993685999885,751.8827768000774,1,1,2.7457558000460267,None,None,751.8828466003761,751.882867500186,None,751.8828918002546,751.8829094003886,None,,,,,,,,,,,,,4,8,0,0,2025-02-18_10h13.08.043,rtmindeye,2024.2.4,59.948983431415265,2025-02-18 10h13.22.980002 -0500,
all_stimuli/unchosen_nsd_1000_images/unchosen_5636_cocoid_19947.png,50,0,50,50,0,,,,,,0,0,1,8,1,"[9, 21, 31, 45, 56, 68, 69]",1,1,1.1744260000996292,0.3328776000998914,None,None,None,,,,,,,,,,,1,0,1,0,0,50,50,50,751.9113080003299,,,,,,,,,,,,,,,,,,,,,,,,,,,,,,,,,,,,,,751.8830729001202,751.883116800338,751.9096962003969,751.9113080003299,751.9113080003299,751.9113080003299,751.9113080003299,754.9159131003544,754.9159131003544,755.8992684003897,1,1,1.1744260000996292,0.3328776000998914,None,755.8993429001421,755.8993633002974,None,755.8993879002519,755.8994052000344,None,,,,,,,,,,,,,4,8,0,0,2025-02-18_10h13.08.043,rtmindeye,2024.2.4,59.948983431415265,2025-02-18 10h13.22.980002 -0500,
all_stimuli/unchosen_nsd_1000_images/unchosen_2822_cocoid_7813.png,51,0,51,51,0,,,,,,0,0,1,8,1,"[9, 21, 31, 45, 56, 68, 69]",1,1,0.8862823001109064,0.3930174997076392,None,None,None,,,,,,,,,,,1,0,1,0,0,51,51,51,755.9203091003001,,,,,,,,,,,,,,,,,,,,,,,,,,,,,,,,,,,,,,755.8995725000277,755.8996164002456,755.918554100208,755.9203091003001,755.9203091003001,755.9203091003001,755.9203091003001,758.9323229002766,758.9323229002766,759.9160360000096,1,1,0.8862823001109064,0.3930174997076392,None,759.9161086999811,759.9161296002567,None,759.9161538002081,759.916171300225,None,,,,,,,,,,,,,4,8,0,0,2025-02-18_10h13.08.043,rtmindeye,2024.2.4,59.948983431415265,2025-02-18 10h13.22.980002 -0500,
all_stimuli/special515/special_29886.jpg,52,0,52,52,0,,,,,,0,0,1,8,1,"[9, 21, 31, 45, 56, 68, 69]",1,1,1.1702483999542892,0.3369024000130594,None,None,None,,,,,,,,,,,1,0,1,0,0,52,52,52,759.9445071001537,,,,,,,,,,,,,,,,,,,,,,,,,,,,,,,,,,,,,,759.9163363003172,759.916382400319,759.9422840001062,759.9445071001537,759.9445071001537,759.9445071001537,759.9445071001537,762.9492667000741,762.9492667000741,763.9324373002164,1,1,1.1702483999542892,0.3369024000130594,None,763.9325099000707,763.9325300999917,None,763.9325539004058,763.9325712001882,None,,,,,,,,,,,,,4,8,0,0,2025-02-18_10h13.08.043,rtmindeye,2024.2.4,59.948983431415265,2025-02-18 10h13.22.980002 -0500,
all_stimuli/unchosen_nsd_1000_images/unchosen_2421_cocoid_6603.png,53,0,53,53,0,,,,,,0,0,1,8,1,"[9, 21, 31, 45, 56, 68, 69]",2,0,1.1108671999536455,0.48196080001071095,None,None,None,,,,,,,,,,,1,0,1,0,0,53,53,53,763.9708732003346,,,,,,,,,,,,,,,,,,,,,,,,,,,,,,,,,,,,,,763.9327345001511,763.9327780003659,763.9692035000771,763.9708732003346,763.9708732003346,763.9708732003346,763.9708732003346,766.9824626003392,766.9824626003392,767.9493901003152,2,0,1.1108671999536455,0.48196080001071095,None,767.9494605003856,767.9494817000814,None,767.9495065002702,767.949523600284,None,,,,,,,,,,,,,4,8,0,0,2025-02-18_10h13.08.043,rtmindeye,2024.2.4,59.948983431415265,2025-02-18 10h13.22.980002 -0500,
all_stimuli/special515/special_3687.jpg,54,0,54,54,0,,,,,,0,0,1,8,1,"[9, 21, 31, 45, 56, 68, 69]",1,1,1.1861197999678552,0.47116609988734126,None,None,None,,,,,,,,,,,1,0,1,0,0,54,54,54,767.9664708999917,,,,,,,,,,,,,,,,,,,,,,,,,,,,,,,,,,,,,,767.9496867000125,767.9497311003506,767.9646876002662,767.9664708999917,767.9664708999917,767.9664708999917,767.9664708999917,770.965715800412,770.965715800412,771.9660688000731,1,1,1.1861197999678552,0.47116609988734126,None,771.9661373002455,771.9661575001664,None,771.9661818002351,771.9661993002519,None,,,,,,,,,,,,,4,8,0,0,2025-02-18_10h13.08.043,rtmindeye,2024.2.4,59.948983431415265,2025-02-18 10h13.22.980002 -0500,
all_stimuli/unchosen_nsd_1000_images/unchosen_7943_cocoid_29364.png,55,0,55,55,0,,,,,,0,0,1,8,1,"[9, 21, 31, 45, 56, 68, 69]",1,1,0.9478564001619816,0.8199283997528255,None,None,None,,,,,,,,,,,1,0,1,0,0,55,55,55,771.9918955001049,,,,,,,,,,,,,,,,,,,,,,,,,,,,,,,,,,,,,,771.9663583002985,771.9664022000507,771.9903274001554,771.9918955001049,771.9918955001049,771.9918955001049,771.9918955001049,774.999226400163,774.999226400163,775.9824377000332,1,1,0.9478564001619816,0.8199283997528255,None,775.9825075003318,775.9825281002559,None,775.9825518000871,775.9825691999868,None,,,,,,,,,,,,,4,8,0,0,2025-02-18_10h13.08.043,rtmindeye,2024.2.4,59.948983431415265,2025-02-18 10h13.22.980002 -0500,
blank.jpg,56,1,56,56,0,,,,,,0,0,1,8,1,"[9, 21, 31, 45, 56, 68, 69]",None,0,,,None,None,None,,,,,,,,,,,1,0,1,0,0,56,56,56,775.9993494004011,,,,,,,,,,,,,,,,,,,,,,,,,,,,,,,,,,,,,,775.9827295001596,775.9827730003744,775.9912543999963,775.9993494004011,775.9993494004011,775.9993494004011,775.9993494004011,778.9985947003588,778.9985947003588,779.9825729001313,None,0,,,None,779.9826345001347,779.9826540001668,None,779.982677699998,779.9826941001229,None,780.0008392003365,780.0008392003365,,,,,,,,,,,4,8,0,0,2025-02-18_10h13.08.043,rtmindeye,2024.2.4,59.948983431415265,2025-02-18 10h13.22.980002 -0500,
all_stimuli/special515/special_22515.jpg,57,0,57,57,0,,,,,,0,0,1,8,1,"[9, 21, 31, 45, 56, 68, 69]",1,1,0.6609946000389755,0.4608950996771455,None,None,None,,,,,,,,,,,1,0,1,0,0,57,57,57,780.0008392003365,,,,,,,,,,,,,,,,,,,,,,,,,,,,,,,,,,,,,,779.9828519001603,779.9828905002214,779.9989027003758,780.0008392003365,780.0008392003365,780.0008392003365,780.0008392003365,783.0157020003535,783.0157020003535,783.9993587001227,1,1,0.6609946000389755,0.4608950996771455,None,783.999430899974,783.9994517001323,None,783.9994744001888,783.9994912003167,None,,,,,,,,,,,,,4,8,0,0,2025-02-18_10h13.08.043,rtmindeye,2024.2.4,59.948983431415265,2025-02-18 10h13.22.980002 -0500,
all_stimuli/unchosen_nsd_1000_images/unchosen_4580_cocoid_48162.png,58,0,58,58,0,,,,,,0,0,1,8,1,"[9, 21, 31, 45, 56, 68, 69]",1,1,0.61698989989236,0.3480032002553344,None,None,None,,,,,,,,,,,1,0,1,0,0,58,58,58,784.0297003001906,,,,,,,,,,,,,,,,,,,,,,,,,,,,,,,,,,,,,,783.9996524001472,783.999696300365,784.0280690002255,784.0297003001906,784.0297003001906,784.0297003001906,784.0297003001906,787.0322381001897,787.0322381001897,788.015866199974,1,1,0.61698989989236,0.3480032002553344,None,788.015938100405,788.0159586002119,None,788.0159827000462,788.0160003001802,None,,,,,,,,,,,,,4,8,0,0,2025-02-18_10h13.08.043,rtmindeye,2024.2.4,59.948983431415265,2025-02-18 10h13.22.980002 -0500,
all_stimuli/unchosen_nsd_1000_images/unchosen_7068_cocoid_25874.png,59,0,59,59,0,,,,,,0,0,1,8,1,"[9, 21, 31, 45, 56, 68, 69]",1,1,0.8838084996677935,0.3168709999881685,None,None,None,,,,,,,,,,,1,0,1,0,0,59,59,59,788.0488335001282,,,,,,,,,,,,,,,,,,,,,,,,,,,,,,,,,,,,,,788.0161683000624,788.0162119003944,788.0472438000143,788.0488335001282,788.0488335001282,788.0488335001282,788.0488335001282,791.0490362001583,791.0490362001583,792.0324949002825,1,1,0.8838084996677935,0.3168709999881685,None,792.0325652002357,792.032585600391,None,792.032609899994,792.0326276002452,None,,,,,,,,,,,,,4,8,0,0,2025-02-18_10h13.08.043,rtmindeye,2024.2.4,59.948983431415265,2025-02-18 10h13.22.980002 -0500,
all_stimuli/unchosen_nsd_1000_images/unchosen_4714_cocoid_15974.png,60,0,60,60,0,,,,,,0,0,1,8,1,"[9, 21, 31, 45, 56, 68, 69]",1,1,0.7201509000733495,0.3378832000307739,None,None,None,,,,,,,,,,,1,0,1,0,0,60,60,60,792.0846129003912,,,,,,,,,,,,,,,,,,,,,,,,,,,,,,,,,,,,,,792.0327956001274,792.0328428000212,792.0828607003205,792.0846129003912,792.0846129003912,792.0846129003912,792.0846129003912,795.0992792001925,795.0992792001925,796.0488840001635,1,1,0.7201509000733495,0.3378832000307739,None,796.0489564002492,796.0489763002843,None,796.0489998003468,796.0490210000426,None,,,,,,,,,,,,,4,8,0,0,2025-02-18_10h13.08.043,rtmindeye,2024.2.4,59.948983431415265,2025-02-18 10h13.22.980002 -0500,
all_stimuli/unchosen_nsd_1000_images/unchosen_2896_cocoid_8150.png,61,0,61,61,0,,,,,,0,0,1,8,1,"[9, 21, 31, 45, 56, 68, 69]",1,1,1.312330599874258,0.3060227003879845,None,None,None,,,,,,,,,,,1,0,1,0,0,61,61,61,796.0912992004305,,,,,,,,,,,,,,,,,,,,,,,,,,,,,,,,,,,,,,796.0491862003691,796.0492302002385,796.0895408000797,796.0912992004305,796.0912992004305,796.0912992004305,796.0912992004305,799.0991808003746,799.0991808003746,800.0492983004078,1,1,1.312330599874258,0.3060227003879845,None,800.049368200358,800.0493887001649,None,800.0494127003476,800.0494300001301,None,,,,,,,,,,,,,4,8,0,0,2025-02-18_10h13.08.043,rtmindeye,2024.2.4,59.948983431415265,2025-02-18 10h13.22.980002 -0500,
all_stimuli/special515/special_48679.jpg,62,0,62,62,0,,,,,,0,0,1,8,1,"[9, 21, 31, 45, 56, 68, 69]",1,1,0.9964725999161601,0.4589957003481686,None,None,None,,,,,,,,,,,1,0,1,0,0,62,62,62,800.069169100374,,,,,,,,,,,,,,,,,,,,,,,,,,,,,,,,,,,,,,800.0496015003882,800.0496449000202,800.0673539000563,800.069169100374,800.069169100374,800.069169100374,800.069169100374,803.0824364,803.0824364,804.0657089999877,1,1,0.9964725999161601,0.4589957003481686,None,804.0657797004096,804.0658002002165,None,804.0658276001923,804.0658452999778,None,,,,,,,,,,,,,4,8,0,0,2025-02-18_10h13.08.043,rtmindeye,2024.2.4,59.948983431415265,2025-02-18 10h13.22.980002 -0500,
