current_image,trial_index,is_blank_trial,thisN,thisTrialN,thisRepN,press_if_repeat_2.keys,press_if_repeat_2.corr,all_keys_pressed_2.keys,is_repeat,is_new_run,run_num,sess_num,is_not_last_trial,all_blanks_list,press_if_repeat.keys,press_if_repeat.corr,press_if_repeat.rt,press_if_repeat.duration,all_keys_pressed.keys,key_resp_5.keys,key_resp_4.keys,key_resp_5.rt,key_resp_5.duration,key_resp_4.rt,key_resp_4.duration,loop_runs.thisRepN,loop_runs.thisTrialN,loop_runs.thisN,loop_runs.thisIndex,loop_all_images.thisRepN,loop_all_images.thisTrialN,loop_all_images.thisN,loop_all_images.thisIndex,thisRow.t,notes,set_up.started,set_up.stopped,practice_continue.started,practice_continue.stopped,key_resp_6.keys,practice_trial.started,practice_trial.stopped,practice.press_if_repeat_2.keys,practice.press_if_repeat_2.corr,practice.all_keys_pressed_2.keys,testing_continue.started,testing_continue.stopped,key_resp_7.keys,waiting_fmri.started,key_resp_2.started,text_3.started,waiting_fmri.stopped,key_resp_2.keys,key_resp_2.rt,key_resp_2.duration,set_skips_and_correct_key.started,set_skips_and_correct_key.stopped,trial.started,image.started,press_if_repeat.started,polygon.started,all_keys_pressed.started,image.stopped,press_if_repeat.stopped,trial.stopped,loop_all_images.press_if_repeat.keys,loop_all_images.press_if_repeat.corr,loop_all_images.press_if_repeat.rt,loop_all_images.press_if_repeat.duration,loop_all_images.all_keys_pressed.keys,run_wait2_2.started,run_wait2_2.stopped,loop_all_images.key_resp_5.keys,waiting_fmri_2.started,waiting_fmri_2.stopped,loop_all_images.key_resp_4.keys,polygon.stopped,all_keys_pressed.stopped,key_resp_5.started,text_5.started,participant,session (1 2 or 3),starting_run,skip_practice,date,expName,psychopyVersion,frameRate,expStart,,,,,,,,,
,,,,,,,,,,,,,,,,,,,,,,,,,,,,,,,,,,,,0.0016702,0.0018201,,,,,,,,,,,,,,,,,,,,,,,,,,,,,,,,,,,,,,,,,,,,6,2,0,1,2025-03-10_10h56.51.508,rtmindeye,2024.2.4,59.98256908631936,2025-03-10 10h57.24.880099 -0400,,,,,,,,,
,,,,,,,,,,,,,,,,,,,,,,,,,,,,,,,,,,,,,,0.0064292,0.0064572,None,,,,,,,,,,,,,,,,,,,,,,,,,,,,,,,,,,,,,,,,,6,2,0,1,2025-03-10_10h56.51.508,rtmindeye,2024.2.4,59.98256908631936,2025-03-10 10h57.24.880099 -0400,,,,,,,,,
practice_images/w_kitchen2.jpg,0,0,0,0,0,None,0,None,,,,,,,,,,,,,,,,,,,,,,,,,,0.14701880002394319,,,,,,,0.0344741,0.0345166,None,0,None,,,,,,,,,,,,,,,,,,,,,,,,,,,,,,,,,,,,6,2,0,1,2025-03-10_10h56.51.508,rtmindeye,2024.2.4,59.98256908631936,2025-03-10 10h57.24.880099 -0400,,,,,,,,,
practice_images/w_boardwalk2.jpg,1,0,1,1,0,None,0,None,,,,,,,,,,,,,,,,,,,,,,,,,,0.14701880002394319,,,,,,,0.047745499992743134,0.047782199922949076,None,0,None,,,,,,,,,,,,,,,,,,,,,,,,,,,,,,,,,,,,6,2,0,1,2025-03-10_10h56.51.508,rtmindeye,2024.2.4,59.98256908631936,2025-03-10 10h57.24.880099 -0400,,,,,,,,,
practice_images/w_monument2.jpg,2,0,2,2,0,None,0,None,,,,,,,,,,,,,,,,,,,,,,,,,,0.14701880002394319,,,,,,,0.060366000048816204,0.0604019,None,0,None,,,,,,,,,,,,,,,,,,,,,,,,,,,,,,,,,,,,6,2,0,1,2025-03-10_10h56.51.508,rtmindeye,2024.2.4,59.98256908631936,2025-03-10 10h57.24.880099 -0400,,,,,,,,,
practice_images/w_auditorium2.jpg,3,0,3,3,0,None,0,None,,,,,,,,,,,,,,,,,,,,,,,,,,0.14701880002394319,,,,,,,0.0749216,0.0749567,None,0,None,,,,,,,,,,,,,,,,,,,,,,,,,,,,,,,,,,,,6,2,0,1,2025-03-10_10h56.51.508,rtmindeye,2024.2.4,59.98256908631936,2025-03-10 10h57.24.880099 -0400,,,,,,,,,
practice_images/w_kitchen2.jpg,4,0,4,4,0,None,0,None,,,,,,,,,,,,,,,,,,,,,,,,,,0.14701880002394319,,,,,,,0.0800734,0.0801081,None,0,None,,,,,,,,,,,,,,,,,,,,,,,,,,,,,,,,,,,,6,2,0,1,2025-03-10_10h56.51.508,rtmindeye,2024.2.4,59.98256908631936,2025-03-10 10h57.24.880099 -0400,,,,,,,,,
practice_images/w_auditorium1.jpg,5,0,5,5,0,None,0,None,,,,,,,,,,,,,,,,,,,,,,,,,,0.14701880002394319,,,,,,,0.0930168,0.0930603,None,0,None,,,,,,,,,,,,,,,,,,,,,,,,,,,,,,,,,,,,6,2,0,1,2025-03-10_10h56.51.508,rtmindeye,2024.2.4,59.98256908631936,2025-03-10 10h57.24.880099 -0400,,,,,,,,,
practice_images/w_bedroom2.jpg,6,0,6,6,0,None,0,None,,,,,,,,,,,,,,,,,,,,,,,,,,0.14701880002394319,,,,,,,0.10530139994807541,0.10533539997413754,None,0,None,,,,,,,,,,,,,,,,,,,,,,,,,,,,,,,,,,,,6,2,0,1,2025-03-10_10h56.51.508,rtmindeye,2024.2.4,59.98256908631936,2025-03-10 10h57.24.880099 -0400,,,,,,,,,
practice_images/w_kitchen1.jpg,7,0,7,7,0,None,0,None,,,,,,,,,,,,,,,,,,,,,,,,,,0.14701880002394319,,,,,,,0.11853819992393255,0.1185880999546498,None,0,None,,,,,,,,,,,,,,,,,,,,,,,,,,,,,,,,,,,,6,2,0,1,2025-03-10_10h56.51.508,rtmindeye,2024.2.4,59.98256908631936,2025-03-10 10h57.24.880099 -0400,,,,,,,,,
practice_images/w_bedroom1.jpg,8,0,8,8,0,None,0,None,,,,,,,,,,,,,,,,,,,,,,,,,,0.14701880002394319,,,,,,,0.13346070004627109,0.13350889994762838,None,0,None,,,,,,,,,,,,,,,,,,,,,,,,,,,,,,,,,,,,6,2,0,1,2025-03-10_10h56.51.508,rtmindeye,2024.2.4,59.98256908631936,2025-03-10 10h57.24.880099 -0400,,,,,,,,,
practice_images/w_monument2.jpg,9,0,9,9,0,None,0,None,,,,,,,,,,,,,,,,,,,,,,,,,,0.14701880002394319,,,,,,,0.13848809991031885,0.13853790005668998,None,0,None,,,,,,,,,,,,,,,,,,,,,,,,,,,,,,,,,,,,6,2,0,1,2025-03-10_10h56.51.508,rtmindeye,2024.2.4,59.98256908631936,2025-03-10 10h57.24.880099 -0400,,,,,,,,,
,,,,,,,,,,,,,,,,,,,,,,,,,,,,,,,,,,,,,,,,,,,,,,0.14460120000876486,0.14462679997086525,None,,,,,,,,,,,,,,,,,,,,,,,,,,,,,,,,,6,2,0,1,2025-03-10_10h56.51.508,rtmindeye,2024.2.4,59.98256908631936,2025-03-10 10h57.24.880099 -0400,,,,,,,,,
,,,,,,,,,,,,,,,,,,,,,,,,,,,,,,,,,,,,,,,,,,,,,,,,,0.14464979991316795,0.14701880002394319,0.14701880002394319,94.60854150005616,equal,94.44549449998885,None,,,,,,,,,,,,,,,,,,,,,,,,,,6,2,0,1,2025-03-10_10h56.51.508,rtmindeye,2024.2.4,59.98256908631936,2025-03-10 10h57.24.880099 -0400,,,,,,,,,
all_stimuli/special515/special_13613.jpg,0,0,0,0,0,,,,0,0,0,2,1,"[9, 21, 31, 45, 56, 68, 69]",1,1,1.3770373999141157,0.17900290014222264,None,None,None,,,,,0,0,0,0,0,0,0,0,94.6635264,,,,,,,,,,,,,,,,,,,,,,94.64089779998176,94.6409986,94.65966530004516,94.6635264,94.6635264,94.6635264,94.6635264,97.66382750007324,97.66382750007324,98.64731870009564,1,1,1.3770373999141157,0.17900290014222264,None,98.64738820004277,98.64741179998964,None,98.64743430004455,98.6474525,None,,,,,6,2,0,1,2025-03-10_10h56.51.508,rtmindeye,2024.2.4,59.98256908631936,2025-03-10 10h57.24.880099 -0400,,,,,,,,,
all_stimuli/shared1000_notspecial/notspecial_31049.png,1,0,1,1,0,,,,0,0,0,2,1,"[9, 21, 31, 45, 56, 68, 69]",1,1,0.5698132000397891,0.17798470007255673,None,None,None,,,,,0,0,0,0,0,1,1,1,98.66467009996995,,,,,,,,,,,,,,,,,,,,,,98.64759920001961,98.64764229999855,98.66300259996206,98.66467009996995,98.66467009996995,98.66467009996995,98.66467009996995,101.66385030001402,101.66385030001402,102.66381970001385,1,1,0.5698132000397891,0.17798470007255673,None,102.66388770006597,102.66390909999609,None,102.66393189993687,102.66394970007241,None,,,,,6,2,0,1,2025-03-10_10h56.51.508,rtmindeye,2024.2.4,59.98256908631936,2025-03-10 10h57.24.880099 -0400,,,,,,,,,
all_stimuli/special515/special_28096.jpg,2,0,2,2,0,,,,0,0,0,2,1,"[9, 21, 31, 45, 56, 68, 69]",1,1,0.4307114998809993,0.19586370000615716,None,None,None,,,,,0,0,0,0,0,2,2,2,102.68189719994552,,,,,,,,,,,,,,,,,,,,,,102.6640995000489,102.66414309991524,102.6794398999773,102.68189719994552,102.68189719994552,102.68189719994552,102.68189719994552,105.69732660008594,105.69732660008594,106.68053769995458,1,1,0.4307114998809993,0.19586370000615716,None,106.68060559988953,106.68062660004944,None,106.68064910010435,106.68066630000249,None,,,,,6,2,0,1,2025-03-10_10h56.51.508,rtmindeye,2024.2.4,59.98256908631936,2025-03-10 10h57.24.880099 -0400,,,,,,,,,
all_stimuli/shared1000_notspecial/notspecial_68471.png,3,0,3,3,0,,,,0,0,0,2,1,"[9, 21, 31, 45, 56, 68, 69]",1,1,0.5916521998587996,0.19565950008109212,None,None,None,,,,,0,0,0,0,0,3,3,3,106.69901490001939,,,,,,,,,,,,,,,,,,,,,,106.68081169994548,106.68085510004312,106.69722740002908,106.69901490001939,106.69901490001939,106.69901490001939,106.69901490001939,109.71377880009823,109.71377880009823,110.69737929990515,1,1,0.5916521998587996,0.19565950008109212,None,110.6974474999588,110.6974690000061,None,110.69749279995449,110.69751049997285,None,,,,,6,2,0,1,2025-03-10_10h56.51.508,rtmindeye,2024.2.4,59.98256908631936,2025-03-10 10h57.24.880099 -0400,,,,,,,,,
all_stimuli/special515/special_15506.jpg,4,0,4,4,0,,,,0,0,0,2,1,"[9, 21, 31, 45, 56, 68, 69]",1,1,0.5213414998725057,0.20706020016223192,None,None,None,,,,,0,0,0,0,0,4,4,4,110.72412050003186,,,,,,,,,,,,,,,,,,,,,,110.69765820004977,110.69770159991458,110.72223019995727,110.72412050003186,110.72412050003186,110.72412050003186,110.72412050003186,113.73049700004049,113.73049700004049,114.71401749993674,1,1,0.5213414998725057,0.20706020016223192,None,114.71408890001476,114.71411040006205,None,114.71413469989784,114.71415230003186,None,,,,,6,2,0,1,2025-03-10_10h56.51.508,rtmindeye,2024.2.4,59.98256908631936,2025-03-10 10h57.24.880099 -0400,,,,,,,,,
all_stimuli/MST_pairs1/pair_24_nsd_158_1_cocoid_2285.png,5,0,5,5,0,,,,0,0,0,2,1,"[9, 21, 31, 45, 56, 68, 69]",1,1,0.4530746000818908,0.1880195999983698,None,None,None,,,,,0,0,0,0,0,5,5,5,115.01336269988678,,,,,,,,,,,,,,,,,,,,,,114.71430060011335,114.71434410009533,115.0091218999587,115.01336269988678,115.01336269988678,115.01336269988678,115.01336269988678,118.01374579989351,118.01374579989351,118.73076700000092,1,1,0.4530746000818908,0.1880195999983698,None,118.73083789995871,118.73085920000449,None,118.73088290006854,118.73090040008537,None,,,,,6,2,0,1,2025-03-10_10h56.51.508,rtmindeye,2024.2.4,59.98256908631936,2025-03-10 10h57.24.880099 -0400,,,,,,,,,
all_stimuli/MST_pairs1/pair_10_14_89.png,6,0,6,6,0,,,,0,0,0,2,1,"[9, 21, 31, 45, 56, 68, 69]",1,1,0.8113104000221938,0.1849336999002844,None,None,None,,,,,0,0,0,0,0,6,6,6,118.75216030003503,,,,,,,,,,,,,,,,,,,,,,118.73105169995688,118.7310964,118.75034640007652,118.75216030003503,118.75216030003503,118.75216030003503,118.75216030003503,121.76360690011643,121.76360690011643,122.74725100002252,1,1,0.8113104000221938,0.1849336999002844,None,122.74732160009444,122.74734280002303,None,122.74736599996686,122.7473834999837,None,,,,,6,2,0,1,2025-03-10_10h56.51.508,rtmindeye,2024.2.4,59.98256908631936,2025-03-10 10h57.24.880099 -0400,,,,,,,,,
all_stimuli/special515/special_62015.jpg,7,0,7,7,0,,,,0,0,0,2,1,"[9, 21, 31, 45, 56, 68, 69]",1,1,0.6069076999556273,0.18997419998049736,None,None,None,,,,,0,0,0,0,0,7,7,7,122.7636802000925,,,,,,,,,,,,,,,,,,,,,,122.74753340007737,122.74757739994675,122.76044799992815,122.7636802000925,122.7636802000925,122.7636802000925,122.7636802000925,125.76372759998776,125.76372759998776,126.74742770008743,1,1,0.6069076999556273,0.18997419998049736,None,126.74749079998583,126.74751070002094,None,126.74753420008346,126.74755210010335,None,126.76361149991862,126.76361149991862,,,6,2,0,1,2025-03-10_10h56.51.508,rtmindeye,2024.2.4,59.98256908631936,2025-03-10 10h57.24.880099 -0400,,,,,,,,,
all_stimuli/special515/special_47687.jpg,8,0,8,8,0,,,,0,0,0,2,1,"[9, 21, 31, 45, 56, 68, 69]",1,1,0.5858892998658121,0.1910451001022011,None,None,None,,,,,0,0,0,0,0,8,8,8,126.76361149991862,,,,,,,,,,,,,,,,,,,,,,126.74769370001741,126.74773139995523,126.76191390003078,126.76361149991862,126.76361149991862,126.76361149991862,126.76361149991862,129.76372810010798,129.76372810010798,130.74738730001263,1,1,0.5858892998658121,0.1910451001022011,None,130.74744779989123,130.74746780004352,None,130.74749039998278,130.74750740011223,None,130.76348549989052,130.76348549989052,,,6,2,0,1,2025-03-10_10h56.51.508,rtmindeye,2024.2.4,59.98256908631936,2025-03-10 10h57.24.880099 -0400,,,,,,,,,
blank.jpg,9,1,9,9,0,,,,0,0,0,2,1,"[9, 21, 31, 45, 56, 68, 69]",1,1,1.017843300011009,0.21216939995065331,None,None,None,,,,,0,0,0,0,0,9,9,9,130.76348549989052,,,,,,,,,,,,,,,,,,,,,,130.74765189993195,130.74769049999304,130.7583067000378,130.76348549989052,130.76348549989052,130.76348549989052,130.76348549989052,133.76372790010646,133.76372790010646,134.74733870010823,1,1,1.017843300011009,0.21216939995065331,None,134.74740149988793,134.7474219999276,None,134.7474460999947,134.74746340001002,None,134.76459609996527,134.76459609996527,,,6,2,0,1,2025-03-10_10h56.51.508,rtmindeye,2024.2.4,59.98256908631936,2025-03-10 10h57.24.880099 -0400,,,,,,,,,
all_stimuli/special515/special_4249.jpg,10,0,10,10,0,,,,0,0,0,2,1,"[9, 21, 31, 45, 56, 68, 69]",1,1,0.6579597999807447,0.18303620000369847,None,None,None,,,,,0,0,0,0,0,10,10,10,134.76459609996527,,,,,,,,,,,,,,,,,,,,,,134.74760799994692,134.74764550011605,134.7628552999813,134.76459609996527,134.76459609996527,134.76459609996527,134.76459609996527,137.76383919990622,137.76383919990622,138.7472611,1,1,0.6579597999807447,0.18303620000369847,None,138.74732429999858,138.74734369991347,None,138.74736839998513,138.74738590000197,None,138.76338310004212,138.76338310004212,,,6,2,0,1,2025-03-10_10h56.51.508,rtmindeye,2024.2.4,59.98256908631936,2025-03-10 10h57.24.880099 -0400,,,,,,,,,
all_stimuli/special515/special_54361.jpg,11,0,11,11,0,,,,0,0,0,2,1,"[9, 21, 31, 45, 56, 68, 69]",1,1,0.3940609998535365,0.2041001000907272,None,None,None,,,,,0,0,0,0,0,11,11,11,138.76338310004212,,,,,,,,,,,,,,,,,,,,,,138.7475395000074,138.7475785999559,138.76144340005703,138.76338310004212,138.76338310004212,138.76338310004212,138.76338310004212,141.76374879991636,141.76374879991636,142.7473075001035,1,1,0.3940609998535365,0.2041001000907272,None,142.74736999999732,142.74739039991982,None,142.74741309997626,142.74742990010418,None,142.77055880008265,142.77055880008265,,,6,2,0,1,2025-03-10_10h56.51.508,rtmindeye,2024.2.4,59.98256908631936,2025-03-10 10h57.24.880099 -0400,,,,,,,,,
all_stimuli/special515/special_6489.jpg,12,0,12,12,0,,,,0,0,0,2,1,"[9, 21, 31, 45, 56, 68, 69]",1,1,0.4260014998726547,0.2038318000268191,None,None,None,,,,,0,0,0,0,0,12,12,12,142.77055880008265,,,,,,,,,,,,,,,,,,,,,,142.74757659994066,142.7476152998861,142.7687083000783,142.77055880008265,142.77055880008265,142.77055880008265,142.77055880008265,145.78036740003154,145.78036740003154,146.7639051999431,1,1,0.4260014998726547,0.2038318000268191,None,146.76397350011393,146.76399519992992,None,146.76401880010962,146.7640368998982,None,,,,,6,2,0,1,2025-03-10_10h56.51.508,rtmindeye,2024.2.4,59.98256908631936,2025-03-10 10h57.24.880099 -0400,,,,,,,,,
all_stimuli/special515/special_38641.jpg,13,0,13,13,0,,,,0,0,0,2,1,"[9, 21, 31, 45, 56, 68, 69]",1,1,0.4169073000084609,0.23922730004414916,None,None,None,,,,,0,0,0,0,0,13,13,13,146.78144849999808,,,,,,,,,,,,,,,,,,,,,,146.7641843999736,146.76422760006972,146.7796960999258,146.78144849999808,146.78144849999808,146.78144849999808,146.78144849999808,149.79665030003525,149.79665030003525,150.78034229995683,1,1,0.4169073000084609,0.23922730004414916,None,150.7804099000059,150.78043089993298,None,150.78045419999398,150.78047110000625,None,,,,,6,2,0,1,2025-03-10_10h56.51.508,rtmindeye,2024.2.4,59.98256908631936,2025-03-10 10h57.24.880099 -0400,,,,,,,,,
all_stimuli/shared1000_notspecial/notspecial_67168.png,14,0,14,14,0,,,,0,0,0,2,1,"[9, 21, 31, 45, 56, 68, 69]",1,1,0.5432910998351872,0.2067760000936687,None,None,None,,,,,0,0,0,0,0,14,14,14,150.79726039990783,,,,,,,,,,,,,,,,,,,,,,150.78061769995838,150.78066130005755,150.79564739996567,150.79726039990783,150.79726039990783,150.79726039990783,150.79726039990783,153.79710719990544,153.79710719990544,154.78024909994565,1,1,0.5432910998351872,0.2067760000936687,None,154.78031540010124,154.78033529990353,None,154.78035799995996,154.78037489997223,None,154.80377000011504,154.80377000011504,,,6,2,0,1,2025-03-10_10h56.51.508,rtmindeye,2024.2.4,59.98256908631936,2025-03-10 10h57.24.880099 -0400,,,,,,,,,
all_stimuli/shared1000_notspecial/notspecial_59079.png,15,0,15,15,0,,,,0,0,0,2,1,"[9, 21, 31, 45, 56, 68, 69]",1,1,0.44754780014045537,0.1931292,None,None,None,,,,,0,0,0,0,0,15,15,15,154.80377000011504,,,,,,,,,,,,,,,,,,,,,,154.78052140004002,154.7805596999824,154.8021821998991,154.80377000011504,154.80377000011504,154.80377000011504,154.80377000011504,157.8135728999041,157.8135728999041,158.78071979992092,1,1,0.44754780014045537,0.1931292,None,158.78079119999893,158.78082380001433,None,158.7808477000799,158.78086569998413,None,,,,,6,2,0,1,2025-03-10_10h56.51.508,rtmindeye,2024.2.4,59.98256908631936,2025-03-10 10h57.24.880099 -0400,,,,,,,,,
all_stimuli/MST_pairs1/pair_2_4_89.png,16,0,16,16,0,,,,0,0,0,2,1,"[9, 21, 31, 45, 56, 68, 69]",1,1,0.6426434998866171,0.2837944000493735,None,None,None,,,,,0,0,0,0,0,16,16,16,158.8029188,,,,,,,,,,,,,,,,,,,,,,158.7810134999454,158.7810571999289,158.80125049990602,158.8029188,158.8029188,158.8029188,158.8029188,161.8135168,161.8135168,162.79728899989277,1,1,0.6426434998866171,0.2837944000493735,None,162.79735630005598,162.7973769,None,162.7973996999208,162.79741670005023,None,,,,,6,2,0,1,2025-03-10_10h56.51.508,rtmindeye,2024.2.4,59.98256908631936,2025-03-10 10h57.24.880099 -0400,,,,,,,,,
all_stimuli/shared1000_notspecial/notspecial_26127.png,17,0,17,17,0,,,,0,0,0,2,1,"[9, 21, 31, 45, 56, 68, 69]",1,1,0.6029562000185251,0.1760766999796033,None,None,None,,,,,0,0,0,0,0,17,17,17,162.81548379990272,,,,,,,,,,,,,,,,,,,,,,162.7975658,162.79760920000263,162.8138534000609,162.81548379990272,162.81548379990272,162.81548379990272,162.81548379990272,165.83054629992694,165.83054629992694,166.81368979997933,1,1,0.6029562000185251,0.1760766999796033,None,166.8137574000284,166.81377830007114,None,166.81380210001953,166.81381960003637,None,,,,,6,2,0,1,2025-03-10_10h56.51.508,rtmindeye,2024.2.4,59.98256908631936,2025-03-10 10h57.24.880099 -0400,,,,,,,,,
all_stimuli/shared1000_notspecial/notspecial_20223.png,18,0,18,18,0,,,,0,0,0,2,1,"[9, 21, 31, 45, 56, 68, 69]",1,1,0.6614656997844577,0.17066190019249916,None,None,None,,,,,0,0,0,0,0,18,18,18,166.83123630005866,,,,,,,,,,,,,,,,,,,,,,166.8139661999885,166.81400980008766,166.8296990999952,166.83123630005866,166.83123630005866,166.83123630005866,166.83123630005866,169.83024360006675,169.83024360006675,170.81382700009272,1,1,0.6614656997844577,0.17066190019249916,None,170.81389049999416,170.81391020002775,None,170.81393339997157,170.81395080010407,None,170.8303310999181,170.8303310999181,,,6,2,0,1,2025-03-10_10h56.51.508,rtmindeye,2024.2.4,59.98256908631936,2025-03-10 10h57.24.880099 -0400,,,,,,,,,
all_stimuli/special515/special_62015.jpg,19,0,19,19,0,,,,1,0,0,2,1,"[9, 21, 31, 45, 56, 68, 69]",1,0,0.7540814999956638,0.21388290007598698,None,None,None,,,,,0,0,0,0,0,19,19,19,170.8303310999181,,,,,,,,,,,,,,,,,,,,,,170.81410009996034,170.81413830001839,170.82558239996433,170.8303310999181,170.8303310999181,170.8303310999181,170.8303310999181,173.8303690000903,173.8303690000903,174.81343999993987,1,0,0.7540814999956638,0.21388290007598698,None,174.8135043999646,174.81352409999818,None,174.81354769994505,174.8135651999619,None,174.83099699998274,174.83099699998274,,,6,2,0,1,2025-03-10_10h56.51.508,rtmindeye,2024.2.4,59.98256908631936,2025-03-10 10h57.24.880099 -0400,,,,,,,,,
all_stimuli/special515/special_10244.jpg,20,0,20,20,0,,,,0,0,0,2,1,"[9, 21, 31, 45, 56, 68, 69]",1,1,0.9983077999204397,0.21902410010807216,None,None,None,,,,,0,0,0,0,0,20,20,20,174.83099699998274,,,,,,,,,,,,,,,,,,,,,,174.81370870000683,174.81374650006182,174.8292652000673,174.83099699998274,174.83099699998274,174.83099699998274,174.83099699998274,177.83026709989645,177.83026709989645,178.81370729999617,1,1,0.9983077999204397,0.21902410010807216,None,178.8137711000163,178.81379100005142,None,178.81381370010786,178.81383050000295,None,178.8303229000885,178.8303229000885,,,6,2,0,1,2025-03-10_10h56.51.508,rtmindeye,2024.2.4,59.98256908631936,2025-03-10 10h57.24.880099 -0400,,,,,,,,,
blank.jpg,21,1,21,21,0,,,,0,0,0,2,1,"[9, 21, 31, 45, 56, 68, 69]",2,0,0.9472829999867827,0.20991930016316473,None,None,None,,,,,0,0,0,0,0,21,21,21,178.8303229000885,,,,,,,,,,,,,,,,,,,,,,178.81397600006312,178.81401419988833,178.8234796000179,178.8303229000885,178.8303229000885,178.8303229000885,178.8303229000885,181.8304878999479,181.8304878999479,182.81384840002283,2,0,0.9472829999867827,0.20991930016316473,None,182.81391169992276,182.81393239996396,None,182.81395570002496,182.8139728999231,None,182.83110950002447,182.83110950002447,,,6,2,0,1,2025-03-10_10h56.51.508,rtmindeye,2024.2.4,59.98256908631936,2025-03-10 10h57.24.880099 -0400,,,,,,,,,
all_stimuli/special515/special_28524.jpg,22,0,22,22,0,,,,0,0,0,2,1,"[9, 21, 31, 45, 56, 68, 69]",1,1,0.6474537,0.24594600009731948,None,None,None,,,,,0,0,0,0,0,22,22,22,182.83110950002447,,,,,,,,,,,,,,,,,,,,,,182.8141177999787,182.81415880005807,182.82939300010912,182.83110950002447,182.83110950002447,182.83110950002447,182.83110950002447,185.83023199997842,185.83023199997842,186.81396230007522,1,1,0.6474537,0.24594600009731948,None,186.8140269999858,186.8140469000209,None,186.81406980007887,186.81408670009114,None,186.8310658999253,186.8310658999253,,,6,2,0,1,2025-03-10_10h56.51.508,rtmindeye,2024.2.4,59.98256908631936,2025-03-10 10h57.24.880099 -0400,,,,,,,,,
all_stimuli/special515/special_30430.jpg,23,0,23,23,0,,,,0,0,0,2,1,"[9, 21, 31, 45, 56, 68, 69]",1,1,0.7743593999184668,0.18909700005315244,None,None,None,,,,,0,0,0,0,0,23,23,23,186.8310658999253,,,,,,,,,,,,,,,,,,,,,,186.81423199991696,186.8142705000937,186.82937870011665,186.8310658999253,186.8310658999253,186.8310658999253,186.8310658999253,189.83021380007267,189.83021380007267,190.81398080009967,1,1,0.7743593999184668,0.18909700005315244,None,190.81404320010915,190.8140674000606,None,190.81409060000442,190.8141077000182,None,190.8332060999237,190.8332060999237,,,6,2,0,1,2025-03-10_10h56.51.508,rtmindeye,2024.2.4,59.98256908631936,2025-03-10 10h57.24.880099 -0400,,,,,,,,,
all_stimuli/MST_pairs1/pair_10_14_33.png,24,0,24,24,0,,,,0,0,0,2,1,"[9, 21, 31, 45, 56, 68, 69]",1,1,0.8822051999159157,0.24887760006822646,None,None,None,,,,,0,0,0,0,0,24,24,24,190.8332060999237,,,,,,,,,,,,,,,,,,,,,,190.81425040005706,190.81429199990816,190.8315596000757,190.8332060999237,190.8332060999237,190.8332060999237,190.8332060999237,193.8470783000812,193.8470783000812,194.830304,1,1,0.8822051999159157,0.24887760006822646,None,194.83037290000357,194.83039400004782,None,194.83041799999774,194.8304353998974,None,,,,,6,2,0,1,2025-03-10_10h56.51.508,rtmindeye,2024.2.4,59.98256908631936,2025-03-10 10h57.24.880099 -0400,,,,,,,,,
all_stimuli/shared1000_notspecial/notspecial_10907.png,25,0,25,25,0,,,,0,0,0,2,1,"[9, 21, 31, 45, 56, 68, 69]",1,1,0.7846590999979526,0.18916659988462925,None,None,None,,,,,0,0,0,0,0,25,25,25,194.8487929000985,,,,,,,,,,,,,,,,,,,,,,194.8305906,194.8306341,194.84711869992316,194.8487929000985,194.8487929000985,194.8487929000985,194.8487929000985,197.8638339000754,197.8638339000754,198.84715600009076,1,1,0.7846590999979526,0.18916659988462925,None,198.84722610004246,198.84724729997106,None,198.84727040003054,198.84728830005042,None,,,,,6,2,0,1,2025-03-10_10h56.51.508,rtmindeye,2024.2.4,59.98256908631936,2025-03-10 10h57.24.880099 -0400,,,,,,,,,
all_stimuli/special515/special_22587.jpg,26,0,26,26,0,,,,0,0,0,2,1,"[9, 21, 31, 45, 56, 68, 69]",1,1,1.1498556998558342,0.1988948001526296,None,None,None,,,,,0,0,0,0,0,26,26,26,198.86660449998453,,,,,,,,,,,,,,,,,,,,,,198.8474353000056,198.84747839998454,198.86483220010996,198.86660449998453,198.86660449998453,198.86660449998453,198.86660449998453,201.88021959993057,201.88021959993057,202.86375749995932,1,1,1.1498556998558342,0.1988948001526296,None,202.8638269000221,202.8638480999507,None,202.86387169989757,202.8638893000316,None,,,,,6,2,0,1,2025-03-10_10h56.51.508,rtmindeye,2024.2.4,59.98256908631936,2025-03-10 10h57.24.880099 -0400,,,,,,,,,
all_stimuli/special515/special_3687.jpg,27,0,27,27,0,,,,0,0,0,2,1,"[9, 21, 31, 45, 56, 68, 69]",1,1,1.4269514998886734,0.21804599999450147,None,None,None,,,,,0,0,0,0,0,27,27,27,202.8853577999398,,,,,,,,,,,,,,,,,,,,,,202.86404099990614,202.8640879,202.88363700010814,202.8853577999398,202.8853577999398,202.8853577999398,202.8853577999398,205.8969372001011,205.8969372001011,206.88047820003703,1,1,1.4269514998886734,0.21804599999450147,None,206.88054689997807,206.88056809990667,None,206.88059090008028,206.88060829997994,None,,,,,6,2,0,1,2025-03-10_10h56.51.508,rtmindeye,2024.2.4,59.98256908631936,2025-03-10 10h57.24.880099 -0400,,,,,,,,,
all_stimuli/shared1000_notspecial/notspecial_58164.png,28,0,28,28,0,,,,0,0,0,2,1,"[9, 21, 31, 45, 56, 68, 69]",1,1,0.9955335,0.1897732000797987,None,None,None,,,,,0,0,0,0,0,28,28,28,206.89902099990286,,,,,,,,,,,,,,,,,,,,,,206.88075860007666,206.88080190005712,206.89736189995892,206.89902099990286,206.89902099990286,206.89902099990286,206.89902099990286,209.9137484,209.9137484,210.89697139989585,1,1,0.9955335,0.1897732000797987,None,210.8970395999495,210.89706069999374,None,210.89708369993605,210.89710130007006,None,,,,,6,2,0,1,2025-03-10_10h56.51.508,rtmindeye,2024.2.4,59.98256908631936,2025-03-10 10h57.24.880099 -0400,,,,,,,,,
all_stimuli/special515/special_38494.jpg,29,0,29,29,0,,,,0,0,0,2,1,"[9, 21, 31, 45, 56, 68, 69]",1,1,0.7909250999800861,0.2099504000507295,None,None,None,,,,,0,0,0,0,0,29,29,29,210.91346570011228,,,,,,,,,,,,,,,,,,,,,,210.89724779990502,210.89729149988852,210.9116847999394,210.91346570011228,210.91346570011228,210.91346570011228,210.91346570011228,213.91362749994732,213.91362749994732,214.8971581000369,1,1,0.7909250999800861,0.2099504000507295,None,214.89722250006162,214.8972422000952,None,214.89726609992795,214.8972831000574,None,214.9222872001119,214.9222872001119,,,6,2,0,1,2025-03-10_10h56.51.508,rtmindeye,2024.2.4,59.98256908631936,2025-03-10 10h57.24.880099 -0400,,,,,,,,,
all_stimuli/MST_pairs1/pair_12_16_22.png,30,0,30,30,0,,,,0,0,0,2,1,"[9, 21, 31, 45, 56, 68, 69]",1,1,1.0202293,0.22178009990602732,None,None,None,,,,,0,0,0,0,0,30,30,30,214.9222872001119,,,,,,,,,,,,,,,,,,,,,,214.89743250003085,214.8974717000965,214.92058230005205,214.9222872001119,214.9222872001119,214.9222872001119,214.9222872001119,217.93020859989338,217.93020859989338,218.91368409991264,1,1,1.0202293,0.22178009990602732,None,218.9137528000865,218.91377409989946,None,218.9137971000746,218.91381460009143,None,,,,,6,2,0,1,2025-03-10_10h56.51.508,rtmindeye,2024.2.4,59.98256908631936,2025-03-10 10h57.24.880099 -0400,,,,,,,,,
blank.jpg,31,1,31,31,0,,,,0,0,0,2,1,"[9, 21, 31, 45, 56, 68, 69]",2,0,0.9679618999361992,0.18903780006803572,None,None,None,,,,,0,0,0,0,0,31,31,31,218.9304180999752,,,,,,,,,,,,,,,,,,,,,,218.91396369994618,218.91400750004686,218.92297370010056,218.9304180999752,218.9304180999752,218.9304180999752,218.9304180999752,221.9302457999438,221.9302457999438,222.9136703000404,2,0,0.9679618999361992,0.18903780006803572,None,222.91373150004074,222.91375140007585,None,222.91377440001816,222.91379170003347,None,222.93044680007733,222.93044680007733,,,6,2,0,1,2025-03-10_10h56.51.508,rtmindeye,2024.2.4,59.98256908631936,2025-03-10 10h57.24.880099 -0400,,,,,,,,,
all_stimuli/special515/special_66489.jpg,32,0,32,32,0,,,,0,0,0,2,1,"[9, 21, 31, 45, 56, 68, 69]",1,1,0.6219747001305223,0.17106859991326928,None,None,None,,,,,0,0,0,0,0,32,32,32,222.93044680007733,,,,,,,,,,,,,,,,,,,,,,222.91394099988975,222.91397910006344,222.92868559993804,222.93044680007733,222.93044680007733,222.93044680007733,222.93044680007733,225.9299363999162,225.9299363999162,226.91341509995982,1,1,0.6219747001305223,0.17106859991326928,None,226.91347840009257,226.91349840001203,None,226.9135223000776,226.91354209999554,None,226.93907710001804,226.93907710001804,,,6,2,0,1,2025-03-10_10h56.51.508,rtmindeye,2024.2.4,59.98256908631936,2025-03-10 10h57.24.880099 -0400,,,,,,,,,
all_stimuli/MST_pairs1/pair_28_nsd_547_1_cocoid_60932.png,33,0,33,33,0,,,,0,0,0,2,1,"[9, 21, 31, 45, 56, 68, 69]",1,1,0.9133115999866277,0.19397979998029768,None,None,None,,,,,0,0,0,0,0,33,33,33,226.93907710001804,,,,,,,,,,,,,,,,,,,,,,226.91368609992787,226.91372380009852,226.93683620006777,226.93907710001804,226.93907710001804,226.93907710001804,226.93907710001804,229.9468664000742,229.9468664000742,230.9298135000281,1,1,0.9133115999866277,0.19397979998029768,None,230.92988239997067,230.92990350001492,None,230.9299274000805,230.9299455001019,None,,,,,6,2,0,1,2025-03-10_10h56.51.508,rtmindeye,2024.2.4,59.98256908631936,2025-03-10 10h57.24.880099 -0400,,,,,,,,,
all_stimuli/shared1000_notspecial/notspecial_46002.png,34,0,34,34,0,,,,0,0,0,2,1,"[9, 21, 31, 45, 56, 68, 69]",1,1,0.8673781999386847,0.19216520013287663,None,None,None,,,,,0,0,0,0,0,34,34,34,230.94692909996957,,,,,,,,,,,,,,,,,,,,,,230.93009590008296,230.93013969995081,230.9453640000429,230.94692909996957,230.94692909996957,230.94692909996957,230.94692909996957,233.94669950008392,233.94669950008392,234.93026569997892,1,1,0.8673781999386847,0.19216520013287663,None,234.93033519992605,234.93035669997334,None,234.93038029992022,234.93039830005728,None,,,,,6,2,0,1,2025-03-10_10h56.51.508,rtmindeye,2024.2.4,59.98256908631936,2025-03-10 10h57.24.880099 -0400,,,,,,,,,
all_stimuli/special515/special_30632.jpg,35,0,35,35,0,,,,0,0,0,2,1,"[9, 21, 31, 45, 56, 68, 69]",1,1,1.1252568999771029,0.2149028000421822,None,None,None,,,,,0,0,0,0,0,35,35,35,234.9493392999284,,,,,,,,,,,,,,,,,,,,,,234.93056000000797,234.93060369999148,234.9475958000403,234.9493392999284,234.9493392999284,234.9493392999284,234.9493392999284,237.96357750007883,237.96357750007883,238.9467601000797,1,1,1.1252568999771029,0.2149028000421822,None,238.9468294000253,238.94685039995238,None,238.94687410001643,238.9468914999161,None,,,,,6,2,0,1,2025-03-10_10h56.51.508,rtmindeye,2024.2.4,59.98256908631936,2025-03-10 10h57.24.880099 -0400,,,,,,,,,
all_stimuli/special515/special_31936.jpg,36,0,36,36,0,,,,0,0,0,2,1,"[9, 21, 31, 45, 56, 68, 69]",1,1,1.0686521,0.2189805000089109,None,None,None,,,,,0,0,0,0,0,36,36,36,238.97286439989693,,,,,,,,,,,,,,,,,,,,,,238.94703890010715,238.94708240008913,238.97114949999377,238.97286439989693,238.97286439989693,238.97286439989693,238.97286439989693,241.98013509996235,241.98013509996235,242.96362939989194,1,1,1.0686521,0.2189805000089109,None,242.96369750006124,242.96371849998832,None,242.96374200005084,242.96375899994746,None,,,,,6,2,0,1,2025-03-10_10h56.51.508,rtmindeye,2024.2.4,59.98256908631936,2025-03-10 10h57.24.880099 -0400,,,,,,,,,
all_stimuli/MST_pairs1/pair_8_12_56.png,37,0,37,37,0,,,,0,0,0,2,1,"[9, 21, 31, 45, 56, 68, 69]",1,1,1.1061663997825235,0.21788470004685223,None,None,None,,,,,0,0,0,0,0,37,37,37,242.98636920005083,,,,,,,,,,,,,,,,,,,,,,242.96390930004418,242.96395640005358,242.9846956001129,242.98636920005083,242.98636920005083,242.98636920005083,242.98636920005083,245.9968423000537,245.9968423000537,246.98013269994408,1,1,1.1061663997825235,0.21788470004685223,None,246.9802010001149,246.9802222000435,None,246.9802459999919,246.98026399989612,None,,,,,6,2,0,1,2025-03-10_10h56.51.508,rtmindeye,2024.2.4,59.98256908631936,2025-03-10 10h57.24.880099 -0400,,,,,,,,,
all_stimuli/special515/special_19074.jpg,38,0,38,38,0,,,,0,0,0,2,1,"[9, 21, 31, 45, 56, 68, 69]",1,1,0.9061821000650525,0.19778460008092225,None,None,None,,,,,0,0,0,0,0,38,38,38,246.9974016000051,,,,,,,,,,,,,,,,,,,,,,246.98041289998218,246.9804561000783,246.9956521000713,246.9974016000051,246.9974016000051,246.9974016000051,246.9974016000051,249.99683979991823,249.99683979991823,250.98040849994868,1,1,0.9061821000650525,0.19778460008092225,None,250.98047260008752,250.98049289989285,None,250.98051630007103,250.9805336999707,None,250.99945660005324,250.99945660005324,,,6,2,0,1,2025-03-10_10h56.51.508,rtmindeye,2024.2.4,59.98256908631936,2025-03-10 10h57.24.880099 -0400,,,,,,,,,
all_stimuli/shared1000_notspecial/notspecial_42648.png,39,0,39,39,0,,,,0,0,0,2,1,"[9, 21, 31, 45, 56, 68, 69]",1,1,0.8440538002178073,0.35899009997956455,None,None,None,,,,,0,0,0,0,0,39,39,39,250.99945660005324,,,,,,,,,,,,,,,,,,,,,,250.9806790999137,250.98071689996868,250.99779010005295,250.99945660005324,250.99945660005324,250.99945660005324,250.99945660005324,254.01333769992925,254.01333769992925,254.99677269998938,1,1,0.8440538002178073,0.35899009997956455,None,254.99684239993803,254.9968632000964,None,254.99688629992306,254.99690390005708,None,,,,,6,2,0,1,2025-03-10_10h56.51.508,rtmindeye,2024.2.4,59.98256908631936,2025-03-10 10h57.24.880099 -0400,,,,,,,,,
all_stimuli/MST_pairs1/pair_12_16_22.png,40,0,40,40,0,,,,1,0,0,2,1,"[9, 21, 31, 45, 56, 68, 69]",2,1,0.9520042000804096,0.2670619999989867,None,None,None,,,,,0,0,0,0,0,40,40,40,255.01326070004143,,,,,,,,,,,,,,,,,,,,,,254.99705759994686,254.99710129993036,255.0116065000184,255.01326070004143,255.01326070004143,255.01326070004143,255.01326070004143,258.0135149001144,258.0135149001144,258.99693499994464,2,1,0.9520042000804096,0.2670619999989867,None,258.9969973999541,258.99701749999076,None,258.99704080005176,258.9970581000671,None,259.0143418998923,259.0143418998923,,,6,2,0,1,2025-03-10_10h56.51.508,rtmindeye,2024.2.4,59.98256908631936,2025-03-10 10h57.24.880099 -0400,,,,,,,,,
all_stimuli/shared1000_notspecial/notspecial_3951.png,41,0,41,41,0,,,,0,0,0,2,1,"[9, 21, 31, 45, 56, 68, 69]",1,1,0.6819849000312388,0.18396469997242093,None,None,None,,,,,0,0,0,0,0,41,41,41,259.0143418998923,,,,,,,,,,,,,,,,,,,,,,258.99720839993097,258.9972479001153,259.01269820006564,259.0143418998923,259.0143418998923,259.0143418998923,259.0143418998923,262.0133400999475,262.0133400999475,262.9969188000541,1,1,0.6819849000312388,0.18396469997242093,None,262.99698229995556,262.9970025001094,None,262.9970259000547,262.99704289995134,None,263.02264639991336,263.02264639991336,,,6,2,0,1,2025-03-10_10h56.51.508,rtmindeye,2024.2.4,59.98256908631936,2025-03-10 10h57.24.880099 -0400,,,,,,,,,
all_stimuli/MST_pairs1/pair_12_16_78.png,42,0,42,42,0,,,,0,0,0,2,1,"[9, 21, 31, 45, 56, 68, 69]",1,1,1.0596843999810517,0.18817009986378253,None,None,None,,,,,0,0,0,0,0,42,42,42,263.02264639991336,,,,,,,,,,,,,,,,,,,,,,262.9971880998928,262.99723559990525,263.02098569995724,263.02264639991336,263.02264639991336,263.02264639991336,263.02264639991336,266.03003260004334,266.03003260004334,267.0136812001001,1,1,1.0596843999810517,0.18817009986378253,None,267.0137502,267.013772,None,267.01379520003684,267.0138127000537,None,,,,,6,2,0,1,2025-03-10_10h56.51.508,rtmindeye,2024.2.4,59.98256908631936,2025-03-10 10h57.24.880099 -0400,,,,,,,,,
all_stimuli/special515/special_11952.jpg,43,0,43,43,0,,,,0,0,0,2,1,"[9, 21, 31, 45, 56, 68, 69]",1,1,0.9005086999386549,0.17315390007570386,None,None,None,,,,,0,0,0,0,0,43,43,43,267.0318307999987,,,,,,,,,,,,,,,,,,,,,,267.0139627000317,267.01400600001216,267.03003769996576,267.0318307999987,267.0318307999987,267.0318307999987,267.0318307999987,270.04651629994623,270.04651629994623,271.0301004999783,1,1,0.9005086999386549,0.17315390007570386,None,271.0301664,271.0301868999377,None,271.0302093999926,271.03022679989226,None,,,,,6,2,0,1,2025-03-10_10h56.51.508,rtmindeye,2024.2.4,59.98256908631936,2025-03-10 10h57.24.880099 -0400,,,,,,,,,
all_stimuli/MST_pairs1/pair_14_18_22.png,44,0,44,44,0,,,,0,0,0,2,1,"[9, 21, 31, 45, 56, 68, 69]",1,1,0.8353603999130428,0.22994529991410673,None,None,None,,,,,0,0,0,0,0,44,44,44,271.0490025000181,,,,,,,,,,,,,,,,,,,,,,271.03037409996614,271.0304175000638,271.04732919996604,271.0490025000181,271.0490025000181,271.0490025000181,271.0490025000181,274.0632672000211,274.0632672000211,275.04685060004704,1,1,0.8353603999130428,0.22994529991410673,None,275.0469204999972,275.0469420000445,None,275.04696550010704,275.04698350001127,None,,,,,6,2,0,1,2025-03-10_10h56.51.508,rtmindeye,2024.2.4,59.98256908631936,2025-03-10 10h57.24.880099 -0400,,,,,,,,,
blank.jpg,45,1,45,45,0,,,,0,0,0,2,1,"[9, 21, 31, 45, 56, 68, 69]",2,0,0.8512120000086725,0.21220329985953867,None,None,None,,,,,0,0,0,0,0,45,45,45,275.06303750001825,,,,,,,,,,,,,,,,,,,,,,275.04713619989343,275.04717990010977,275.05873210006393,275.06303750001825,275.06303750001825,275.06303750001825,275.06303750001825,278.0634463999886,278.0634463999886,279.04691660008393,2,0,0.8512120000086725,0.21220329985953867,None,279.04698000010103,279.0470013,None,279.0470247999765,279.04704180010594,None,279.0643573999405,279.0643573999405,,,6,2,0,1,2025-03-10_10h56.51.508,rtmindeye,2024.2.4,59.98256908631936,2025-03-10 10h57.24.880099 -0400,,,,,,,,,
all_stimuli/MST_pairs1/pair_16_20_56.png,46,0,46,46,0,,,,0,0,0,2,1,"[9, 21, 31, 45, 56, 68, 69]",1,1,0.9430217000190169,0.21417199983261526,None,None,None,,,,,0,0,0,0,0,46,46,46,279.0643573999405,,,,,,,,,,,,,,,,,,,,,,279.0471989000216,279.0472381999716,279.06261139991693,279.0643573999405,279.0643573999405,279.0643573999405,279.0643573999405,282.06333200004883,282.06333200004883,283.0632263000589,1,1,0.9430217000190169,0.21417199983261526,None,283.0632949999999,283.0633161999285,None,283.0633396001067,283.06335729989223,None,,,,,6,2,0,1,2025-03-10_10h56.51.508,rtmindeye,2024.2.4,59.98256908631936,2025-03-10 10h57.24.880099 -0400,,,,,,,,,
all_stimuli/special515/special_8933.jpg,47,0,47,47,0,,,,0,0,0,2,1,"[9, 21, 31, 45, 56, 68, 69]",1,1,1.0435804000589997,0.19986640010029078,None,None,None,,,,,0,0,0,0,0,47,47,47,283.0929664999712,,,,,,,,,,,,,,,,,,,,,,283.06350630009547,283.0635522999801,283.0910422001034,283.0929664999712,283.0929664999712,283.0929664999712,283.0929664999712,286.0966755999252,286.0966755999252,287.0636080999393,1,1,1.0435804000589997,0.19986640010029078,None,287.0636746000964,287.06369569990784,None,287.0637181000784,287.06373970001005,None,,,,,6,2,0,1,2025-03-10_10h56.51.508,rtmindeye,2024.2.4,59.98256908631936,2025-03-10 10h57.24.880099 -0400,,,,,,,,,
all_stimuli/MST_pairs1/pair_16_20_56.png,48,0,48,48,0,,,,1,0,0,2,1,"[9, 21, 31, 45, 56, 68, 69]",2,1,0.7622534,0.21788280014880002,None,None,None,,,,,0,0,0,0,0,48,48,48,287.0802557999268,,,,,,,,,,,,,,,,,,,,,,287.0638910001144,287.0639347000979,287.07234749989584,287.0802557999268,287.0802557999268,287.0802557999268,287.0802557999268,290.07989479997195,290.07989479997195,291.06345589994453,2,1,0.7622534,0.21788280014880002,None,291.0635183,291.0635383001063,None,291.0635611000471,291.06357849994674,None,291.0812595000025,291.0812595000025,,,6,2,0,1,2025-03-10_10h56.51.508,rtmindeye,2024.2.4,59.98256908631936,2025-03-10 10h57.24.880099 -0400,,,,,,,,,
all_stimuli/special515/special_5034.jpg,49,0,49,49,0,,,,0,0,0,2,1,"[9, 21, 31, 45, 56, 68, 69]",1,1,0.7650730998720974,0.21203040005639195,None,None,None,,,,,0,0,0,0,0,49,49,49,291.0812595000025,,,,,,,,,,,,,,,,,,,,,,291.0637229999993,291.06376120005734,291.0793771999888,291.0812595000025,291.0812595000025,291.0812595000025,291.0812595000025,294.0964838999789,294.0964838999789,295.08006020006724,1,1,0.7650730998720974,0.21203040005639195,None,295.0801293000113,295.0801502999384,None,295.08017319999635,295.0801906,None,,,,,6,2,0,1,2025-03-10_10h56.51.508,rtmindeye,2024.2.4,59.98256908631936,2025-03-10 10h57.24.880099 -0400,,,,,,,,,
all_stimuli/MST_pairs1/pair_16_20_0.png,50,0,50,50,0,,,,0,0,0,2,1,"[9, 21, 31, 45, 56, 68, 69]",2,0,0.6775169000029564,0.23418890009634197,None,None,None,,,,,0,0,0,0,0,50,50,50,295.0978165001143,,,,,,,,,,,,,,,,,,,,,,295.0803402001038,295.0803839999717,295.0960003999062,295.0978165001143,295.0978165001143,295.0978165001143,295.0978165001143,298.1133290999569,298.1133290999569,299.0964550001081,2,0,0.6775169000029564,0.23418890009634197,None,299.09652259992436,299.0965436999686,None,299.0965672999155,299.09658499993384,None,,,,,6,2,0,1,2025-03-10_10h56.51.508,rtmindeye,2024.2.4,59.98256908631936,2025-03-10 10h57.24.880099 -0400,,,,,,,,,
all_stimuli/MST_pairs1/pair_46_w_pool2.jpg,51,0,51,51,0,,,,0,0,0,2,1,"[9, 21, 31, 45, 56, 68, 69]",1,1,0.8085318000521511,0.20089769992046058,None,None,None,,,,,0,0,0,0,0,51,51,51,299.1158356999513,,,,,,,,,,,,,,,,,,,,,,299.0967362,299.09677960001864,299.1141327000223,299.1158356999513,299.1158356999513,299.1158356999513,299.1158356999513,302.13005260005593,302.13005260005593,303.11349379993044,1,1,0.8085318000521511,0.20089769992046058,None,303.11356290010735,303.11358570004813,None,303.11360889999196,303.1136262998916,None,,,,,6,2,0,1,2025-03-10_10h56.51.508,rtmindeye,2024.2.4,59.98256908631936,2025-03-10 10h57.24.880099 -0400,,,,,,,,,
all_stimuli/special515/special_62228.jpg,52,0,52,52,0,,,,0,0,0,2,1,"[9, 21, 31, 45, 56, 68, 69]",1,1,0.9064413998275995,0.20011540013365448,None,None,None,,,,,0,0,0,0,0,52,52,52,303.23495800001547,,,,,,,,,,,,,,,,,,,,,,303.1137755000964,303.1138192000799,303.23149730009027,303.23495800001547,303.23495800001547,303.23495800001547,303.23495800001547,306.2466589999385,306.2466589999385,307.13010119996034,1,1,0.9064413998275995,0.20011540013365448,None,307.13017000001855,307.1301909000613,None,307.1302134001162,307.1302306998987,None,,,,,6,2,0,1,2025-03-10_10h56.51.508,rtmindeye,2024.2.4,59.98256908631936,2025-03-10 10h57.24.880099 -0400,,,,,,,,,
all_stimuli/MST_pairs1/pair_40_w_escalator2.jpg,53,0,53,53,0,,,,0,0,0,2,1,"[9, 21, 31, 45, 56, 68, 69]",1,1,0.9324318000581115,0.16799880005419254,None,None,None,,,,,0,0,0,0,0,53,53,53,307.1478653999511,,,,,,,,,,,,,,,,,,,,,,307.1303971998859,307.13044059998356,307.1462216998916,307.1478653999511,307.1478653999511,307.1478653999511,307.1478653999511,310.1466717000585,310.1466717000585,311.1466145000886,1,1,0.9324318000581115,0.16799880005419254,None,311.1466816999018,311.1467035000678,None,311.14672659989446,311.1467442000285,None,,,,,6,2,0,1,2025-03-10_10h56.51.508,rtmindeye,2024.2.4,59.98256908631936,2025-03-10 10h57.24.880099 -0400,,,,,,,,,
all_stimuli/MST_pairs1/pair_20_nsd_41_2_cocoid_63715.png,54,0,54,54,0,,,,0,0,0,2,1,"[9, 21, 31, 45, 56, 68, 69]",1,1,0.9870879000518471,0.18683170014992356,None,None,None,,,,,0,0,0,0,0,54,54,54,311.1763333999552,,,,,,,,,,,,,,,,,,,,,,311.14690260007046,311.1469455000479,311.17442979989573,311.1763333999552,311.1763333999552,311.1763333999552,311.1763333999552,314.1798207999673,314.1798207999673,315.16329029994085,1,1,0.9870879000518471,0.18683170014992356,None,315.1633593000006,315.1633818000555,None,315.1634049,315.16342199989595,None,,,,,6,2,0,1,2025-03-10_10h56.51.508,rtmindeye,2024.2.4,59.98256908631936,2025-03-10 10h57.24.880099 -0400,,,,,,,,,
all_stimuli/shared1000_notspecial/notspecial_22155.png,55,0,55,55,0,,,,0,0,0,2,1,"[9, 21, 31, 45, 56, 68, 69]",1,1,0.9558818000368774,0.19375830003991723,None,None,None,,,,,0,0,0,0,0,55,55,55,315.1806433000602,,,,,,,,,,,,,,,,,,,,,,315.16357439989224,315.16361790010706,315.17900349991396,315.1806433000602,315.1806433000602,315.1806433000602,315.1806433000602,318.18000479997136,318.18000479997136,319.1634676998947,1,1,0.9558818000368774,0.19375830003991723,None,319.1635302999057,319.16355079994537,None,319.1635745000094,319.1635916000232,None,319.180015,319.180015,,,6,2,0,1,2025-03-10_10h56.51.508,rtmindeye,2024.2.4,59.98256908631936,2025-03-10 10h57.24.880099 -0400,,,,,,,,,
blank.jpg,56,1,56,56,0,,,,0,0,0,2,1,"[9, 21, 31, 45, 56, 68, 69]",2,0,0.8595257000997663,0.2267698000650853,None,None,None,,,,,0,0,0,0,0,56,56,56,319.180015,,,,,,,,,,,,,,,,,,,,,,319.16373839997686,319.16378060006537,319.1714953999035,319.180015,319.180015,319.180015,319.180015,322.17988350009546,322.17988350009546,323.16330839996226,2,0,0.8595257000997663,0.2267698000650853,None,323.16337099997327,323.1633911000099,None,323.1634140999522,323.1634303999599,None,323.1835296000354,323.1835296000354,,,6,2,0,1,2025-03-10_10h56.51.508,rtmindeye,2024.2.4,59.98256908631936,2025-03-10 10h57.24.880099 -0400,,,,,,,,,
all_stimuli/special515/special_11617.jpg,57,0,57,57,0,,,,0,0,0,2,1,"[9, 21, 31, 45, 56, 68, 69]",1,1,0.8569708000868559,0.21303589991293848,None,None,None,,,,,0,0,0,0,0,57,57,57,323.1835296000354,,,,,,,,,,,,,,,,,,,,,,323.1635789000429,323.1636201,323.18163629993796,323.1835296000354,323.1835296000354,323.1835296000354,323.1835296000354,326.1966178000439,326.1966178000439,327.1800049999729,1,1,0.8569708000868559,0.21303589991293848,None,327.1800712000113,327.18009250005707,None,327.1801154,327.1801326998975,None,,,,,6,2,0,1,2025-03-10_10h56.51.508,rtmindeye,2024.2.4,59.98256908631936,2025-03-10 10h57.24.880099 -0400,,,,,,,,,
all_stimuli/MST_pairs1/pair_14_18_22.png,58,0,58,58,0,,,,1,0,0,2,1,"[9, 21, 31, 45, 56, 68, 69]",2,1,0.9859813000075519,0.1922162000555545,None,None,None,,,,,0,0,0,0,0,58,58,58,327.19628569995984,,,,,,,,,,,,,,,,,,,,,,327.18028070009314,327.18032409995794,327.1936170998961,327.19628569995984,327.19628569995984,327.19628569995984,327.19628569995984,330.19645459996536,330.19645459996536,331.1799961999059,2,1,0.9859813000075519,0.1922162000555545,None,331.1800581999123,331.1800778999459,None,331.18010080000386,331.1801177000161,None,331.2045677,331.2045677,,,6,2,0,1,2025-03-10_10h56.51.508,rtmindeye,2024.2.4,59.98256908631936,2025-03-10 10h57.24.880099 -0400,,,,,,,,,
all_stimuli/shared1000_notspecial/notspecial_63081.png,59,0,59,59,0,,,,0,0,0,2,1,"[9, 21, 31, 45, 56, 68, 69]",1,1,0.8617767000105232,0.18293130001984537,None,None,None,,,,,0,0,0,0,0,59,59,59,331.2045677,,,,,,,,,,,,,,,,,,,,,,331.1802634000778,331.1803012,331.20297809992917,331.2045677,331.2045677,331.2045677,331.2045677,334.2130833999254,334.2130833999254,335.19651470007375,1,1,0.8617767000105232,0.18293130001984537,None,335.1965856999159,335.1966075000819,None,335.1966309999116,335.19664820004255,None,,,,,6,2,0,1,2025-03-10_10h56.51.508,rtmindeye,2024.2.4,59.98256908631936,2025-03-10 10h57.24.880099 -0400,,,,,,,,,
all_stimuli/MST_pairs1/pair_42_w_icerink2.jpg,60,0,60,60,0,,,,0,0,0,2,1,"[9, 21, 31, 45, 56, 68, 69]",1,1,1.021776800043881,0.1628674000967294,None,None,None,,,,,0,0,0,0,0,60,60,60,335.2146783999633,,,,,,,,,,,,,,,,,,,,,,335.1968052999582,335.1968499,335.2128236000426,335.2146783999633,335.2146783999633,335.2146783999633,335.2146783999633,338.22982080001384,338.22982080001384,339.2132755999919,1,1,1.021776800043881,0.1628674000967294,None,339.21334429993294,339.2133651000913,None,339.21338879992254,339.2134062999394,None,,,,,6,2,0,1,2025-03-10_10h56.51.508,rtmindeye,2024.2.4,59.98256908631936,2025-03-10 10h57.24.880099 -0400,,,,,,,,,
all_stimuli/MST_pairs1/pair_46_w_pool1.jpg,61,0,61,61,0,,,,0,0,0,2,1,"[9, 21, 31, 45, 56, 68, 69]",2,0,0.8843095,0.20817690016701818,None,None,None,,,,,0,0,0,0,0,61,61,61,339.2319809999317,,,,,,,,,,,,,,,,,,,,,,339.21356959990226,339.2136131001171,339.23032970004715,339.2319809999317,339.2319809999317,339.2319809999317,339.2319809999317,342.2463676999323,342.2463676999323,343.22989970003255,2,0,0.8843095,0.20817690016701818,None,343.2299678,343.22998870001175,None,343.2300116000697,343.2300289,None,,,,,6,2,0,1,2025-03-10_10h56.51.508,rtmindeye,2024.2.4,59.98256908631936,2025-03-10 10h57.24.880099 -0400,,,,,,,,,
all_stimuli/special515/special_40840.jpg,62,0,62,62,0,,,,0,0,0,2,1,"[9, 21, 31, 45, 56, 68, 69]",1,1,0.8090782,0.20068520004861057,None,None,None,,,,,0,0,0,0,0,62,62,62,343.2524351,,,,,,,,,,,,,,,,,,,,,,343.2301853999961,343.23022849997506,343.25063219992444,343.2524351,343.2524351,343.2524351,343.2524351,346.26291400007904,346.26291400007904,347.24668330000713,1,1,0.8090782,0.20068520004861057,None,347.2467523999512,347.2467738999985,None,347.24679760006256,347.2468151000794,None,,,,,6,2,0,1,2025-03-10_10h56.51.508,rtmindeye,2024.2.4,59.98256908631936,2025-03-10 10h57.24.880099 -0400,,,,,,,,,
all_stimuli/special515/special_29837.jpg,63,0,63,63,0,,,,0,0,0,2,1,"[9, 21, 31, 45, 56, 68, 69]",1,1,1.0271423000376672,0.2046952999662608,None,None,None,,,,,0,0,0,0,0,63,63,63,347.2653582999483,,,,,,,,,,,,,,,,,,,,,,347.2469637999311,347.24700709991157,347.2635359999258,347.2653582999483,347.2653582999483,347.2653582999483,347.2653582999483,350.2797652001027,350.2797652001027,351.2633114999626,1,1,1.0271423000376672,0.2046952999662608,None,351.2633764001075,351.2633970999159,None,351.2634197,351.26343709998764,None,,,,,6,2,0,1,2025-03-10_10h56.51.508,rtmindeye,2024.2.4,59.98256908631936,2025-03-10 10h57.24.880099 -0400,,,,,,,,,
all_stimuli/shared1000_notspecial/notspecial_4768.png,64,0,64,64,0,,,,0,0,0,2,1,"[9, 21, 31, 45, 56, 68, 69]",1,1,0.9745681998319924,0.23102300008758903,None,None,None,,,,,0,0,0,0,0,64,64,64,351.2838234999217,,,,,,,,,,,,,,,,,,,,,,351.2635852000676,351.26363190007396,351.2821764999535,351.2838234999217,351.2838234999217,351.2838234999217,351.2838234999217,354.29662699997425,354.29662699997425,355.27988999988884,1,1,0.9745681998319924,0.23102300008758903,None,355.2799593000673,355.2799804999959,None,355.2800036999397,355.28002119995654,None,,,,,6,2,0,1,2025-03-10_10h56.51.508,rtmindeye,2024.2.4,59.98256908631936,2025-03-10 10h57.24.880099 -0400,,,,,,,,,
all_stimuli/MST_pairs1/pair_20_nsd_41_1_cocoid_15472.png,65,0,65,65,0,,,,0,0,0,2,1,"[9, 21, 31, 45, 56, 68, 69]",1,1,1.1791614999528974,0.19713760004378855,None,None,None,,,,,0,0,0,0,0,65,65,65,355.3120941000525,,,,,,,,,,,,,,,,,,,,,,355.2801743999589,355.28021809994243,355.3101985999383,355.3120941000525,355.3120941000525,355.3120941000525,355.3120941000525,358.3132251999341,358.3132251999341,359.2965760999359,1,1,1.1791614999528974,0.19713760004378855,None,359.2966428999789,359.29666400002316,None,359.2966867000796,359.2967036999762,None,,,,,6,2,0,1,2025-03-10_10h56.51.508,rtmindeye,2024.2.4,59.98256908631936,2025-03-10 10h57.24.880099 -0400,,,,,,,,,
all_stimuli/shared1000_notspecial/notspecial_53157.png,66,0,66,66,0,,,,0,0,0,2,1,"[9, 21, 31, 45, 56, 68, 69]",1,1,1.0626630000770092,0.2081286997999996,None,None,None,,,,,0,0,0,0,0,66,66,66,359.3175550000742,,,,,,,,,,,,,,,,,,,,,,359.29685649997555,359.2968999000732,359.3159159999341,359.3175550000742,359.3175550000742,359.3175550000742,359.3175550000742,362.32992899999954,362.32992899999954,363.31318240007386,1,1,1.0626630000770092,0.2081286997999996,None,363.31325139990076,363.31327220005915,None,363.31329540000297,363.3133131999057,None,,,,,6,2,0,1,2025-03-10_10h56.51.508,rtmindeye,2024.2.4,59.98256908631936,2025-03-10 10h57.24.880099 -0400,,,,,,,,,
all_stimuli/special515/special_38641.jpg,67,0,67,67,0,,,,1,0,0,2,1,"[9, 21, 31, 45, 56, 68, 69]",1,0,1.100635000038892,0.2071962000336498,None,None,None,,,,,0,0,0,0,0,67,67,67,363.3295593999792,,,,,,,,,,,,,,,,,,,,,,363.31346289999783,363.31350630009547,363.32777999993414,363.3295593999792,363.3295593999792,363.3295593999792,363.3295593999792,366.3296427000314,366.3296427000314,367.3131448000204,1,0,1.100635000038892,0.2071962000336498,None,367.31320880004205,367.3132293999661,None,367.3132529000286,367.3132698999252,None,367.33010830008425,367.33010830008425,,,6,2,0,1,2025-03-10_10h56.51.508,rtmindeye,2024.2.4,59.98256908631936,2025-03-10 10h57.24.880099 -0400,,,,,,,,,
blank.jpg,68,1,68,68,0,,,,0,0,0,2,1,"[9, 21, 31, 45, 56, 68, 69]",2,0,0.8541573998518288,0.21192390006035566,None,None,None,,,,,0,0,0,0,0,68,68,68,367.33010830008425,,,,,,,,,,,,,,,,,,,,,,367.3134194999002,367.3134576000739,367.3218324999325,367.33010830008425,367.33010830008425,367.33010830008425,367.33010830008425,370.3298339000903,370.3298339000903,371.3127244000789,2,0,0.8541573998518288,0.21192390006035566,None,371.31278829998337,371.3128086999059,None,371.31283130007796,371.31284809997305,None,371.33005729992874,371.33005729992874,,,6,2,0,1,2025-03-10_10h56.51.508,rtmindeye,2024.2.4,59.98256908631936,2025-03-10 10h57.24.880099 -0400,,,,,,,,,
blank.jpg,69,1,69,69,0,,,,0,1,0,2,0,"[9, 21, 31, 45, 56, 68, 69]",2,0,0.9422544999979436,0.20999050000682473,None,1,equal,41.729573300108314,None,32.60064819990657,None,0,0,0,0,0,69,69,69,371.33005729992874,,,,,,,,,,,,,,,,,,,,,,371.3129940999206,371.31303229997866,371.32125780009665,371.33005729992874,371.33005729992874,371.33005729992874,371.33005729992874,374.3294482000638,374.3294482000638,375.31311980006285,2,0,0.9422544999979436,0.20999050000682473,None,375.31980219995603,417.06337129999883,1,417.06342740007676,449.69665800011717,equal,375.32995570008643,375.32995570008643,375.32995570008643,375.32995570008643,6,2,0,1,2025-03-10_10h56.51.508,rtmindeye,2024.2.4,59.98256908631936,2025-03-10 10h57.24.880099 -0400,,,,,,,,,
,,,0,0,0,,,,,,,,,,,,,,,,,,,,,0,0,0,0,,,,,,,,,,,,,,,,,,,,,,,,,,,,,,,,,,,,,,,,,,,,,,,,,,,,6,2,0,1,2025-03-10_10h56.51.508,rtmindeye,2024.2.4,59.98256908631936,2025-03-10 10h57.24.880099 -0400,,,,,,,,,
all_stimuli/special515/special_71450.jpg,0,0,0,0,0,,,,0,0,1,2,1,"[9, 21, 31, 45, 56, 68, 69]",1,1,1.1180354000534862,0.1648746,None,None,None,,,,,1,0,1,0,0,0,0,0,449.8332597,,,,,,,,,,,,,,,,,,,,,,449.8074775999412,449.8075810999144,449.8292048999574,449.8332597,449.8332597,449.8332597,449.8332597,452.8463612999767,452.8463612999767,453.81297069997527,1,1,1.1180354000534862,0.1648746,None,453.81304139993154,453.8130632999819,None,453.8130878,453.81310579995625,None,,,,,6,2,0,1,2025-03-10_10h56.51.508,rtmindeye,2024.2.4,59.98256908631936,2025-03-10 10h57.24.880099 -0400,,,,,,,,,
all_stimuli/special515/special_38246.jpg,1,0,1,1,0,,,,0,0,1,2,1,"[9, 21, 31, 45, 56, 68, 69]",1,1,0.7995932998601347,0.19502090010792017,None,None,None,,,,,1,0,1,0,0,1,1,1,453.82973279990256,,,,,,,,,,,,,,,,,,,,,,453.8132776999846,453.8133215000853,453.82803019997664,453.82973279990256,453.82973279990256,453.82973279990256,453.82973279990256,456.8295813999139,456.8295813999139,457.81316739995964,1,1,0.7995932998601347,0.19502090010792017,None,457.81323669990525,457.81325670005754,None,457.8132796001155,457.8132972000167,None,457.8351076000836,457.8351076000836,,,6,2,0,1,2025-03-10_10h56.51.508,rtmindeye,2024.2.4,59.98256908631936,2025-03-10 10h57.24.880099 -0400,,,,,,,,,
all_stimuli/special515/special_10046.jpg,2,0,2,2,0,,,,0,0,1,2,1,"[9, 21, 31, 45, 56, 68, 69]",1,1,0.8343032000120729,0.15794049995020032,None,None,None,,,,,1,0,1,0,0,2,2,2,457.8351076000836,,,,,,,,,,,,,,,,,,,,,,457.8134431000799,457.8134818999097,457.83324100007303,457.8351076000836,457.8351076000836,457.8351076000836,457.8351076000836,460.84626669995487,460.84626669995487,461.82941980008036,1,1,0.8343032000120729,0.15794049995020032,None,461.82948779989965,461.82950860005803,None,461.82953160000034,461.8295493000187,None,,,,,6,2,0,1,2025-03-10_10h56.51.508,rtmindeye,2024.2.4,59.98256908631936,2025-03-10 10h57.24.880099 -0400,,,,,,,,,
all_stimuli/MST_pairs1/pair_38_w_arch2.jpg,3,0,3,3,0,,,,0,0,1,2,1,"[9, 21, 31, 45, 56, 68, 69]",1,1,0.6971549,0.1840173,None,None,None,,,,,1,0,1,0,0,3,3,3,461.84807420009747,,,,,,,,,,,,,,,,,,,,,,461.8296988001093,461.8297419999726,461.8463721999433,461.84807420009747,461.84807420009747,461.84807420009747,461.84807420009747,464.8629932999611,464.8629932999611,465.8463512000162,1,1,0.6971549,0.1840173,None,465.84642089996487,465.8464420000091,None,465.8464651000686,465.8464830000885,None,,,,,6,2,0,1,2025-03-10_10h56.51.508,rtmindeye,2024.2.4,59.98256908631936,2025-03-10 10h57.24.880099 -0400,,,,,,,,,
all_stimuli/special515/special_30395.jpg,4,0,4,4,0,,,,0,0,1,2,1,"[9, 21, 31, 45, 56, 68, 69]",1,1,0.6473840000107884,0.20804659998975694,None,None,None,,,,,1,0,1,0,0,4,4,4,465.8627810999751,,,,,,,,,,,,,,,,,,,,,,465.84663469996303,465.84667810006067,465.8596340001095,465.8627810999751,465.8627810999751,465.8627810999751,465.8627810999751,468.86301800003275,468.86301800003275,469.8459721999243,1,1,0.6473840000107884,0.20804659998975694,None,469.84618339990266,469.84620409994386,None,469.84622709988616,469.8462447000202,None,469.86264199996367,469.86264199996367,,,6,2,0,1,2025-03-10_10h56.51.508,rtmindeye,2024.2.4,59.98256908631936,2025-03-10 10h57.24.880099 -0400,,,,,,,,,
all_stimuli/special515/special_38494.jpg,5,0,5,5,0,,,,1,0,1,2,1,"[9, 21, 31, 45, 56, 68, 69]",2,1,0.7407720000483096,0.21898939996026456,None,None,None,,,,,1,0,1,0,0,5,5,5,469.86264199996367,,,,,,,,,,,,,,,,,,,,,,469.8463922999799,469.84643159992993,469.85819509997964,469.86264199996367,469.86264199996367,469.86264199996367,469.86264199996367,472.86308920010924,472.86308920010924,473.84642460010946,2,1,0.7407720000483096,0.21898939996026456,None,473.84648850001395,473.84650820004754,None,473.84653170011006,473.8465485998895,None,473.8705639000982,473.8705639000982,,,6,2,0,1,2025-03-10_10h56.51.508,rtmindeye,2024.2.4,59.98256908631936,2025-03-10 10h57.24.880099 -0400,,,,,,,,,
all_stimuli/MST_pairs1/pair_28_nsd_547_1_cocoid_60932.png,6,0,6,6,0,,,,1,0,1,2,1,"[9, 21, 31, 45, 56, 68, 69]",2,1,0.8989051999524236,0.1926678998861462,None,None,None,,,,,1,0,1,0,0,6,6,6,473.8705639000982,,,,,,,,,,,,,,,,,,,,,,473.84669929998927,473.84673739993013,473.86876629991457,473.8705639000982,473.8705639000982,473.8705639000982,473.8705639000982,476.87954650004394,476.87954650004394,477.8629308999516,2,1,0.8989051999524236,0.1926678998861462,None,477.86299959989265,477.86302,None,477.86304259998724,477.8630608,None,,,,,6,2,0,1,2025-03-10_10h56.51.508,rtmindeye,2024.2.4,59.98256908631936,2025-03-10 10h57.24.880099 -0400,,,,,,,,,
all_stimuli/special515/special_61133.jpg,7,0,7,7,0,,,,0,0,1,2,1,"[9, 21, 31, 45, 56, 68, 69]",1,1,0.8936391000170261,0.2120669,None,None,None,,,,,1,0,1,0,0,7,7,7,477.88364779995754,,,,,,,,,,,,,,,,,,,,,,477.8632116999943,477.86325519997627,477.8816812001169,477.88364779995754,477.88364779995754,477.88364779995754,477.88364779995754,480.8960720000323,480.8960720000323,481.87927510007285,1,1,0.8936391000170261,0.2120669,None,481.8793430000078,481.87936399993487,None,481.87938740011305,481.8794045,None,,,,,6,2,0,1,2025-03-10_10h56.51.508,rtmindeye,2024.2.4,59.98256908631936,2025-03-10 10h57.24.880099 -0400,,,,,,,,,
all_stimuli/shared1000_notspecial/notspecial_16635.png,8,0,8,8,0,,,,0,0,1,2,1,"[9, 21, 31, 45, 56, 68, 69]",1,1,0.7859342000447214,0.20397949987091124,None,None,None,,,,,1,0,1,0,0,8,8,8,481.8963591000065,,,,,,,,,,,,,,,,,,,,,,481.87955579999834,481.87959949998185,481.8947664999869,481.8963591000065,481.8963591000065,481.8963591000065,481.8963591000065,484.89598589995876,484.89598589995876,485.8798064000439,1,1,0.7859342000447214,0.20397949987091124,None,485.8798758001067,485.87989749992266,None,485.87992059998214,485.8799378001131,None,,,,,6,2,0,1,2025-03-10_10h56.51.508,rtmindeye,2024.2.4,59.98256908631936,2025-03-10 10h57.24.880099 -0400,,,,,,,,,
blank.jpg,9,1,9,9,0,,,,0,0,1,2,1,"[9, 21, 31, 45, 56, 68, 69]",2,0,0.9149219000246376,0.2292244997806847,None,None,None,,,,,1,0,1,0,0,9,9,9,485.89620690001175,,,,,,,,,,,,,,,,,,,,,,485.8800870999694,485.88013039994985,485.88943139999174,485.89620690001175,485.89620690001175,485.89620690001175,485.89620690001175,488.89636290003546,488.89636290003546,489.8797316,2,0,0.9149219000246376,0.2292244997806847,None,489.8797929000575,489.87981289997697,None,489.87983600003645,489.87985359993763,None,489.90314389998093,489.90314389998093,,,6,2,0,1,2025-03-10_10h56.51.508,rtmindeye,2024.2.4,59.98256908631936,2025-03-10 10h57.24.880099 -0400,,,,,,,,,
all_stimuli/MST_pairs1/pair_18_nsd_6_1_cocoid_13417.png,10,0,10,10,0,,,,0,0,1,2,1,"[9, 21, 31, 45, 56, 68, 69]",1,1,1.0100072000641376,0.1800796000752598,None,None,None,,,,,1,0,1,0,0,10,10,10,489.90314389998093,,,,,,,,,,,,,,,,,,,,,,489.88000539992936,489.8800439001061,489.9011774000246,489.90314389998093,489.90314389998093,489.90314389998093,489.90314389998093,492.9129095999524,492.9129095999524,493.89613909996115,1,1,1.0100072000641376,0.1800796000752598,None,493.89620739989914,493.89622889994644,None,493.89625240000896,493.89627030002885,None,,,,,6,2,0,1,2025-03-10_10h56.51.508,rtmindeye,2024.2.4,59.98256908631936,2025-03-10 10h57.24.880099 -0400,,,,,,,,,
all_stimuli/shared1000_notspecial/notspecial_21703.png,11,0,11,11,0,,,,0,0,1,2,1,"[9, 21, 31, 45, 56, 68, 69]",1,1,0.7457547998055816,0.18672890006564558,None,None,None,,,,,1,0,1,0,0,11,11,11,493.9157471000217,,,,,,,,,,,,,,,,,,,,,,493.8964199000038,493.89646330010146,493.9141541,493.9157471000217,493.9157471000217,493.9157471000217,493.9157471000217,496.9296655000653,496.9296655000653,497.9128668999765,1,1,0.7457547998055816,0.18672890006564558,None,497.91293510003015,497.9129560999572,None,497.91297960001975,497.9129969999194,None,,,,,6,2,0,1,2025-03-10_10h56.51.508,rtmindeye,2024.2.4,59.98256908631936,2025-03-10 10h57.24.880099 -0400,,,,,,,,,
all_stimuli/special515/special_24530.jpg,12,0,12,12,0,,,,0,0,1,2,1,"[9, 21, 31, 45, 56, 68, 69]",1,1,0.8959399999585003,0.1950586000457406,None,None,None,,,,,1,0,1,0,0,12,12,12,497.9323384000454,,,,,,,,,,,,,,,,,,,,,,497.91314650001004,497.9131901001092,497.93039550003596,497.9323384000454,497.9323384000454,497.9323384000454,497.9323384000454,500.94595499988645,500.94595499988645,501.9293919999618,1,1,0.8959399999585003,0.1950586000457406,None,501.9294619,501.9294827999547,None,501.9295067000203,501.92952429992147,None,,,,,6,2,0,1,2025-03-10_10h56.51.508,rtmindeye,2024.2.4,59.98256908631936,2025-03-10 10h57.24.880099 -0400,,,,,,,,,
all_stimuli/shared1000_notspecial/notspecial_6222.png,13,0,13,13,0,,,,0,0,1,2,1,"[9, 21, 31, 45, 56, 68, 69]",1,1,0.8379965000785887,0.22086809994652867,None,None,None,,,,,1,0,1,0,0,13,13,13,501.9474150000606,,,,,,,,,,,,,,,,,,,,,,501.9296788999345,501.9297226,501.9457642000634,501.9474150000606,501.9474150000606,501.9474150000606,501.9474150000606,504.96242580004036,504.96242580004036,505.9461437999271,1,1,0.8379965000785887,0.22086809994652867,None,505.9462141999975,505.9462351000402,None,505.94625860010274,505.9462780000176,None,,,,,6,2,0,1,2025-03-10_10h56.51.508,rtmindeye,2024.2.4,59.98256908631936,2025-03-10 10h57.24.880099 -0400,,,,,,,,,
all_stimuli/MST_pairs1/pair_44_w_log_cabin2.jpg,14,0,14,14,0,,,,0,0,1,2,1,"[9, 21, 31, 45, 56, 68, 69]",1,1,1.2611246998421848,0.18391550006344914,None,None,None,,,,,1,0,1,0,0,14,14,14,505.9643159999978,,,,,,,,,,,,,,,,,,,,,,505.9464342999272,505.94647790002637,505.96266459999606,505.9643159999978,505.9643159999978,505.9643159999978,505.9643159999978,508.97962670004927,508.97962670004927,509.96293190005235,1,1,1.2611246998421848,0.18391550006344914,None,509.9629999001045,509.9630207999144,None,509.9630438000895,509.9630615999922,None,,,,,6,2,0,1,2025-03-10_10h56.51.508,rtmindeye,2024.2.4,59.98256908631936,2025-03-10 10h57.24.880099 -0400,,,,,,,,,
all_stimuli/special515/special_28068.jpg,15,0,15,15,0,,,,0,0,1,2,1,"[9, 21, 31, 45, 56, 68, 69]",1,1,0.7847599999513477,0.19503609999082983,None,None,None,,,,,1,0,1,0,0,15,15,15,509.98246289999224,,,,,,,,,,,,,,,,,,,,,,509.9632202000357,509.96326390001923,509.9806749999989,509.98246289999224,509.98246289999224,509.98246289999224,509.98246289999224,512.9959478,512.9959478,513.9795607998967,1,1,0.7847599999513477,0.19503609999082983,None,513.9796301000752,513.9796509000007,None,513.9796742000617,513.9796913000755,None,,,,,6,2,0,1,2025-03-10_10h56.51.508,rtmindeye,2024.2.4,59.98256908631936,2025-03-10 10h57.24.880099 -0400,,,,,,,,,
all_stimuli/shared1000_notspecial/notspecial_60978.png,16,0,16,16,0,,,,0,0,1,2,1,"[9, 21, 31, 45, 56, 68, 69]",1,1,0.8541184000205249,0.22193840006366372,None,None,None,,,,,1,0,1,0,0,16,16,16,513.9972872000653,,,,,,,,,,,,,,,,,,,,,,513.9798453999683,513.9798884000629,513.9956525999587,513.9972872000653,513.9972872000653,513.9972872000653,513.9972872000653,517.0127276000567,517.0127276000567,517.9961953999009,1,1,0.8541184000205249,0.22193840006366372,None,517.9962651999667,517.9962863998953,None,517.9963124000933,517.9963301001117,None,,,,,6,2,0,1,2025-03-10_10h56.51.508,rtmindeye,2024.2.4,59.98256908631936,2025-03-10 10h57.24.880099 -0400,,,,,,,,,
all_stimuli/MST_pairs1/pair_2_4_22.png,17,0,17,17,0,,,,0,0,1,2,1,"[9, 21, 31, 45, 56, 68, 69]",1,1,1.0552933998405933,0.21401180000975728,None,None,None,,,,,1,0,1,0,0,17,17,17,518.0171556000132,,,,,,,,,,,,,,,,,,,,,,517.9964817999862,517.996526,518.0154874001164,518.0171556000132,518.0171556000132,518.0171556000132,518.0171556000132,521.0295412000269,521.0295412000269,522.0128713001031,1,1,1.0552933998405933,0.21401180000975728,None,522.0129404999316,522.0129615000915,None,522.0129849000368,522.0130028999411,None,,,,,6,2,0,1,2025-03-10_10h56.51.508,rtmindeye,2024.2.4,59.98256908631936,2025-03-10 10h57.24.880099 -0400,,,,,,,,,
all_stimuli/shared1000_notspecial/notspecial_46160.png,18,0,18,18,0,,,,0,0,1,2,1,"[9, 21, 31, 45, 56, 68, 69]",1,1,0.8652836000546813,0.18085729982703924,None,None,None,,,,,1,0,1,0,0,18,18,18,522.0360512000043,,,,,,,,,,,,,,,,,,,,,,522.0131558999419,522.0133454999886,522.0344724999741,522.0360512000043,522.0360512000043,522.0360512000043,522.0360512000043,525.0460640001111,525.0460640001111,526.0294939,1,1,0.8652836000546813,0.18085729982703924,None,526.0295627999585,526.0295834001154,None,526.0296062999405,526.0296235000715,None,,,,,6,2,0,1,2025-03-10_10h56.51.508,rtmindeye,2024.2.4,59.98256908631936,2025-03-10 10h57.24.880099 -0400,,,,,,,,,
all_stimuli/special515/special_64880.jpg,19,0,19,19,0,,,,0,0,1,2,1,"[9, 21, 31, 45, 56, 68, 69]",1,1,0.9372094001155347,0.2029321000445634,None,None,None,,,,,1,0,1,0,0,19,19,19,526.0471769000869,,,,,,,,,,,,,,,,,,,,,,526.0297741,526.0298208000604,526.0453906001057,526.0471769000869,526.0471769000869,526.0471769000869,526.0471769000869,529.0627992,529.0627992,530.0297151000705,1,1,0.9372094001155347,0.2029321000445634,None,530.0297783999704,530.0297979998868,None,530.0298214,530.0298387000803,None,530.0548231001012,530.0548231001012,,,6,2,0,1,2025-03-10_10h56.51.508,rtmindeye,2024.2.4,59.98256908631936,2025-03-10 10h57.24.880099 -0400,,,,,,,,,
all_stimuli/MST_pairs1/pair_36_nsd_949_1_cocoid_43196.png,20,0,20,20,0,,,,0,0,1,2,1,"[9, 21, 31, 45, 56, 68, 69]",1,1,1.133569800062105,0.2097895999904722,None,None,None,,,,,1,0,1,0,0,20,20,20,530.0548231001012,,,,,,,,,,,,,,,,,,,,,,530.0299899999518,530.0300280998927,530.0528690998908,530.0548231001012,530.0548231001012,530.0548231001012,530.0548231001012,533.0628108000383,533.0628108000383,534.0461957000662,1,1,1.133569800062105,0.2097895999904722,None,534.0462658999022,534.0462865000591,None,534.0463095000014,534.0463269,None,,,,,6,2,0,1,2025-03-10_10h56.51.508,rtmindeye,2024.2.4,59.98256908631936,2025-03-10 10h57.24.880099 -0400,,,,,,,,,
blank.jpg,21,1,21,21,0,,,,0,0,1,2,1,"[9, 21, 31, 45, 56, 68, 69]",2,0,0.7456068000756204,0.25682499981485307,None,None,None,,,,,1,0,1,0,0,21,21,21,534.0627546999604,,,,,,,,,,,,,,,,,,,,,,534.0464798000176,534.0465230001137,534.0554508001078,534.0627546999604,534.0627546999604,534.0627546999604,534.0627546999604,537.0627492000349,537.0627492000349,538.0461250001099,2,0,0.7456068000756204,0.25682499981485307,None,538.0461853,538.0462056999095,None,538.0462291000877,538.0462462999858,None,538.0627033000346,538.0627033000346,,,6,2,0,1,2025-03-10_10h56.51.508,rtmindeye,2024.2.4,59.98256908631936,2025-03-10 10h57.24.880099 -0400,,,,,,,,,
all_stimuli/special515/special_30632.jpg,22,0,22,22,0,,,,1,0,1,2,1,"[9, 21, 31, 45, 56, 68, 69]",2,1,1.2467326999176294,0.1968781,None,None,None,,,,,1,0,1,0,0,22,22,22,538.0627033000346,,,,,,,,,,,,,,,,,,,,,,538.0464025998954,538.0464409999549,538.0593095999211,538.0627033000346,538.0627033000346,538.0627033000346,538.0627033000346,541.0627170000225,541.0627170000225,542.0461500000674,2,1,1.2467326999176294,0.1968781,None,542.0462124000769,542.0462319999933,None,542.0462551999371,542.0462720999494,None,542.0693765999749,542.0693765999749,,,6,2,0,1,2025-03-10_10h56.51.508,rtmindeye,2024.2.4,59.98256908631936,2025-03-10 10h57.24.880099 -0400,,,,,,,,,
all_stimuli/MST_pairs1/pair_20_nsd_41_2_cocoid_63715.png,23,0,23,23,0,,,,1,0,1,2,1,"[9, 21, 31, 45, 56, 68, 69]",2,1,0.9448506000917405,0.17909640003927052,None,None,None,,,,,1,0,1,0,0,23,23,23,542.0693765999749,,,,,,,,,,,,,,,,,,,,,,542.0464188000187,542.0464568000752,542.0675864999648,542.0693765999749,542.0693765999749,542.0693765999749,542.0693765999749,545.0795720999595,545.0795720999595,546.0628565,2,1,0.9448506000917405,0.17909640003927052,None,546.0629269999918,546.0629483000375,None,546.0629720001016,546.0629900000058,None,,,,,6,2,0,1,2025-03-10_10h56.51.508,rtmindeye,2024.2.4,59.98256908631936,2025-03-10 10h57.24.880099 -0400,,,,,,,,,
all_stimuli/MST_pairs1/pair_22_nsd_115_2_cocoid_65194.png,24,0,24,24,0,,,,0,0,1,2,1,"[9, 21, 31, 45, 56, 68, 69]",1,1,1.1660589999519289,0.18509920011274517,None,None,None,,,,,1,0,1,0,0,24,24,24,546.0921519999392,,,,,,,,,,,,,,,,,,,,,,546.0631432998925,546.0631866999902,546.0902631999925,546.0921519999392,546.0921519999392,546.0921519999392,546.0921519999392,549.0961436999496,549.0961436999496,550.0795229999349,1,1,1.1660589999519289,0.18509920011274517,None,550.0795934000053,550.0796145000495,None,550.079638,550.0796556000132,None,,,,,6,2,0,1,2025-03-10_10h56.51.508,rtmindeye,2024.2.4,59.98256908631936,2025-03-10 10h57.24.880099 -0400,,,,,,,,,
all_stimuli/shared1000_notspecial/notspecial_26292.png,25,0,25,25,0,,,,0,0,1,2,1,"[9, 21, 31, 45, 56, 68, 69]",1,1,0.8734605,0.19170360011048615,None,None,None,,,,,1,0,1,0,0,25,25,25,550.0969509000424,,,,,,,,,,,,,,,,,,,,,,550.0798110999167,550.0798543000128,550.0953150999267,550.0969509000424,550.0969509000424,550.0969509000424,550.0969509000424,553.1123986,553.1123986,554.0794685999863,1,1,0.8734605,0.19170360011048615,None,554.0795342000201,554.0795543000568,None,554.0795781000052,554.0795952,None,554.0963419000618,554.0963419000618,,,6,2,0,1,2025-03-10_10h56.51.508,rtmindeye,2024.2.4,59.98256908631936,2025-03-10 10h57.24.880099 -0400,,,,,,,,,
all_stimuli/special515/special_6489.jpg,26,0,26,26,0,,,,1,0,1,2,1,"[9, 21, 31, 45, 56, 68, 69]",1,0,1.064871700014919,0.19910430000163615,None,None,None,,,,,1,0,1,0,0,26,26,26,554.0963419000618,,,,,,,,,,,,,,,,,,,,,,554.0797486000229,554.0797874999698,554.0925245000981,554.0963419000618,554.0963419000618,554.0963419000618,554.0963419000618,557.0959975000005,557.0959975000005,558.0793218000326,1,0,1.064871700014919,0.19910430000163615,None,558.0793862999417,558.0794067,None,558.0794299999252,558.0794468999375,None,558.1005486999638,558.1005486999638,,,6,2,0,1,2025-03-10_10h56.51.508,rtmindeye,2024.2.4,59.98256908631936,2025-03-10 10h57.24.880099 -0400,,,,,,,,,
all_stimuli/special515/special_55678.jpg,27,0,27,27,0,,,,0,0,1,2,1,"[9, 21, 31, 45, 56, 68, 69]",1,1,1.018839200027287,0.19578700000420213,None,None,None,,,,,1,0,1,0,0,27,27,27,558.1005486999638,,,,,,,,,,,,,,,,,,,,,,558.0796131000388,558.0796521,558.0986951999366,558.1005486999638,558.1005486999638,558.1005486999638,558.1005486999638,561.1124868,561.1124868,562.0960836999584,1,1,1.018839200027287,0.19578700000420213,None,562.0961529000197,562.0961738000624,None,562.0961969,562.0962139999028,None,,,,,6,2,0,1,2025-03-10_10h56.51.508,rtmindeye,2024.2.4,59.98256908631936,2025-03-10 10h57.24.880099 -0400,,,,,,,,,
all_stimuli/special515/special_40909.jpg,28,0,28,28,0,,,,0,0,1,2,1,"[9, 21, 31, 45, 56, 68, 69]",1,1,1.3137833001092076,0.2089706000406295,None,None,None,,,,,1,0,1,0,0,28,28,28,562.1135724000633,,,,,,,,,,,,,,,,,,,,,,562.0963665000163,562.0964103,562.1118473999668,562.1135724000633,562.1135724000633,562.1135724000633,562.1135724000633,565.1128136001062,565.1128136001062,566.0961347999983,1,1,1.3137833001092076,0.2089706000406295,None,566.0961990000214,566.0962189999409,None,566.096242,566.0962598999031,None,566.1150207999162,566.1150207999162,,,6,2,0,1,2025-03-10_10h56.51.508,rtmindeye,2024.2.4,59.98256908631936,2025-03-10 10h57.24.880099 -0400,,,,,,,,,
all_stimuli/special515/special_70360.jpg,29,0,29,29,0,,,,0,0,1,2,1,"[9, 21, 31, 45, 56, 68, 69]",1,1,1.248058000113815,0.2591177998110652,None,None,None,,,,,1,0,1,0,0,29,29,29,566.1150207999162,,,,,,,,,,,,,,,,,,,,,,566.0964120000135,566.0964494000655,566.1132894000039,566.1150207999162,566.1150207999162,566.1150207999162,566.1150207999162,569.1290674000047,569.1290674000047,570.1127857998945,1,1,1.248058000113815,0.2591177998110652,None,570.1128543999512,570.1128756001126,None,570.1128994999453,570.1129179999698,None,,,,,6,2,0,1,2025-03-10_10h56.51.508,rtmindeye,2024.2.4,59.98256908631936,2025-03-10 10h57.24.880099 -0400,,,,,,,,,
all_stimuli/MST_pairs1/pair_42_w_icerink1.jpg,30,0,30,30,0,,,,0,0,1,2,1,"[9, 21, 31, 45, 56, 68, 69]",2,0,1.1657044999301434,0.2029794999398291,None,None,None,,,,,1,0,1,0,0,30,30,30,570.1304434998892,,,,,,,,,,,,,,,,,,,,,,570.1130731999874,570.1131176000927,570.1287488,570.1304434998892,570.1304434998892,570.1304434998892,570.1304434998892,573.1460611000657,573.1460611000657,574.1292771999724,2,0,1.1657044999301434,0.2029794999398291,None,574.1293452999089,574.1293659999501,None,574.1293895000126,574.1294072,None,,,,,6,2,0,1,2025-03-10_10h56.51.508,rtmindeye,2024.2.4,59.98256908631936,2025-03-10 10h57.24.880099 -0400,,,,,,,,,
blank.jpg,31,1,31,31,0,,,,0,0,1,2,1,"[9, 21, 31, 45, 56, 68, 69]",2,0,0.9352130000479519,0.17611389979720116,None,None,None,,,,,1,0,1,0,0,31,31,31,574.1460176000837,,,,,,,,,,,,,,,,,,,,,,574.1295568,574.1296000999864,574.1375971001107,574.1460176000837,574.1460176000837,574.1460176000837,574.1460176000837,577.1461188,577.1461188,578.1293844999745,2,0,0.9352130000479519,0.17611389979720116,None,578.1294507,578.1294710000511,None,578.1294945001137,578.1295121000148,None,578.1457126000896,578.1457126000896,,,6,2,0,1,2025-03-10_10h56.51.508,rtmindeye,2024.2.4,59.98256908631936,2025-03-10 10h57.24.880099 -0400,,,,,,,,,
all_stimuli/special515/special_30430.jpg,32,0,32,32,0,,,,1,0,1,2,1,"[9, 21, 31, 45, 56, 68, 69]",2,1,1.1786198001354933,0.17477170005440712,None,None,None,,,,,1,0,1,0,0,32,32,32,578.1457126000896,,,,,,,,,,,,,,,,,,,,,,578.1296630001161,578.1297011999413,578.1439471,578.1457126000896,578.1457126000896,578.1457126000896,578.1457126000896,581.1460211,581.1460211,582.1297353000846,2,1,1.1786198001354933,0.17477170005440712,None,582.1297991999891,582.1298189000227,None,582.1298420000821,582.1298589000944,None,582.1501515998971,582.1501515998971,,,6,2,0,1,2025-03-10_10h56.51.508,rtmindeye,2024.2.4,59.98256908631936,2025-03-10 10h57.24.880099 -0400,,,,,,,,,
all_stimuli/shared1000_notspecial/notspecial_43746.png,33,0,33,33,0,,,,0,0,1,2,1,"[9, 21, 31, 45, 56, 68, 69]",1,1,0.9021714997943491,0.1798275001347065,None,None,None,,,,,1,0,1,0,0,33,33,33,582.1501515998971,,,,,,,,,,,,,,,,,,,,,,582.1300114,582.1300496999174,582.1485343999229,582.1501515998971,582.1501515998971,582.1501515998971,582.1501515998971,585.1626734000165,585.1626734000165,586.1460174000822,1,1,0.9021714997943491,0.1798275001347065,None,586.1460883,586.1461094999686,None,586.1461332000326,586.1461503999308,None,,,,,6,2,0,1,2025-03-10_10h56.51.508,rtmindeye,2024.2.4,59.98256908631936,2025-03-10 10h57.24.880099 -0400,,,,,,,,,
all_stimuli/MST_pairs1/pair_34_nsd_875_1_cocoid_67762.png,34,0,34,34,0,,,,0,0,1,2,1,"[9, 21, 31, 45, 56, 68, 69]",1,1,1.141538399970159,0.23012740002013743,None,None,None,,,,,1,0,1,0,0,34,34,34,586.1715295000467,,,,,,,,,,,,,,,,,,,,,,586.1463033999316,586.1463464000262,586.1697690999135,586.1715295000467,586.1715295000467,586.1715295000467,586.1715295000467,589.1792584001087,589.1792584001087,590.1628976000939,1,1,1.141538399970159,0.23012740002013743,None,590.1629683999345,590.1629890999757,None,590.1630120000336,590.1630297,None,,,,,6,2,0,1,2025-03-10_10h56.51.508,rtmindeye,2024.2.4,59.98256908631936,2025-03-10 10h57.24.880099 -0400,,,,,,,,,
all_stimuli/MST_pairs1/pair_12_16_78.png,35,0,35,35,0,,,,1,0,1,2,1,"[9, 21, 31, 45, 56, 68, 69]",2,1,1.1890441998839378,0.19288200000301003,None,None,None,,,,,1,0,1,0,0,35,35,35,590.1802626000717,,,,,,,,,,,,,,,,,,,,,,590.1631837999448,590.1632272999268,590.1786388000473,590.1802626000717,590.1802626000717,590.1802626000717,590.1802626000717,593.1958347000182,593.1958347000182,594.1793455,2,1,1.1890441998839378,0.19288200000301003,None,594.1794149999041,594.1794354000594,None,594.1794583001174,594.1794755000155,None,,,,,6,2,0,1,2025-03-10_10h56.51.508,rtmindeye,2024.2.4,59.98256908631936,2025-03-10 10h57.24.880099 -0400,,,,,,,,,
all_stimuli/special515/special_4249.jpg,36,0,36,36,0,,,,1,0,1,2,1,"[9, 21, 31, 45, 56, 68, 69]",2,1,0.843756,0.19277289998717606,None,None,None,,,,,1,0,1,0,0,36,36,36,594.1956309000961,,,,,,,,,,,,,,,,,,,,,,594.1796275000088,594.1796711,594.1930523999035,594.1956309000961,594.1956309000961,594.1956309000961,594.1956309000961,597.1958564,597.1958564,598.1795759000815,2,1,0.843756,0.19277289998717606,None,598.1796405999921,598.1796605000272,None,598.1796834999695,598.1797007001005,None,598.1956346998923,598.1956346998923,,,6,2,0,1,2025-03-10_10h56.51.508,rtmindeye,2024.2.4,59.98256908631936,2025-03-10 10h57.24.880099 -0400,,,,,,,,,
all_stimuli/MST_pairs1/pair_42_w_icerink2.jpg,37,0,37,37,0,,,,1,0,1,2,1,"[9, 21, 31, 45, 56, 68, 69]",2,1,0.9174254999961704,0.17709499993361533,None,None,None,,,,,1,0,1,0,0,37,37,37,598.1956346998923,,,,,,,,,,,,,,,,,,,,,,598.1798646,598.1799039999023,598.1920278,598.1956346998923,598.1956346998923,598.1956346998923,598.1956346998923,601.1960233999416,601.1960233999416,602.1796428998932,2,1,0.9174254999961704,0.17709499993361533,None,602.1797054999042,602.1797253999393,None,602.1797493000049,602.1797661,None,602.1969290000852,602.1969290000852,,,6,2,0,1,2025-03-10_10h56.51.508,rtmindeye,2024.2.4,59.98256908631936,2025-03-10 10h57.24.880099 -0400,,,,,,,,,
all_stimuli/shared1000_notspecial/notspecial_70038.png,38,0,38,38,0,,,,0,0,1,2,1,"[9, 21, 31, 45, 56, 68, 69]",1,1,0.8151692999526858,0.19116929988376796,None,None,None,,,,,1,0,1,0,0,38,38,38,602.1969290000852,,,,,,,,,,,,,,,,,,,,,,602.1799131999724,602.1799512999132,602.1951506999321,602.1969290000852,602.1969290000852,602.1969290000852,602.1969290000852,605.1957761000376,605.1957761000376,606.1954153999686,1,1,0.8151692999526858,0.19116929988376796,None,606.1954869,606.1955075000878,None,606.1955343999434,606.1955520999618,None,,,,,6,2,0,1,2025-03-10_10h56.51.508,rtmindeye,2024.2.4,59.98256908631936,2025-03-10 10h57.24.880099 -0400,,,,,,,,,
all_stimuli/special515/special_53155.jpg,39,0,39,39,0,,,,0,0,1,2,1,"[9, 21, 31, 45, 56, 68, 69]",1,1,1.1321107000112534,0.1891302999574691,None,None,None,,,,,1,0,1,0,0,39,39,39,606.2140737,,,,,,,,,,,,,,,,,,,,,,606.1957050999627,606.1957485999446,606.2122969001066,606.2140737,606.2140737,606.2140737,606.2140737,609.2291457999963,609.2291457999963,610.1960195999127,1,1,1.1321107000112534,0.1891302999574691,None,610.1960889000911,610.1961095998995,None,610.1961332999635,610.1961503,None,,,,,6,2,0,1,2025-03-10_10h56.51.508,rtmindeye,2024.2.4,59.98256908631936,2025-03-10 10h57.24.880099 -0400,,,,,,,,,
all_stimuli/special515/special_24530.jpg,40,0,40,40,0,,,,1,0,1,2,1,"[9, 21, 31, 45, 56, 68, 69]",2,1,0.8138820000458509,0.21692789997905493,None,None,None,,,,,1,0,1,0,0,40,40,40,610.2123831000645,,,,,,,,,,,,,,,,,,,,,,610.1963053999934,610.1963527000044,610.2086930999067,610.2123831000645,610.2123831000645,610.2123831000645,610.2123831000645,613.2126120000612,613.2126120000612,614.1961038000882,2,1,0.8138820000458509,0.21692789997905493,None,614.1961670001037,614.1961865,None,614.1962095000781,614.1962260000873,None,614.2135840998963,614.2135840998963,,,6,2,0,1,2025-03-10_10h56.51.508,rtmindeye,2024.2.4,59.98256908631936,2025-03-10 10h57.24.880099 -0400,,,,,,,,,
all_stimuli/special515/special_32232.jpg,41,0,41,41,0,,,,0,0,1,2,1,"[9, 21, 31, 45, 56, 68, 69]",1,1,0.9165097998920828,0.1920763999223709,None,None,None,,,,,1,0,1,0,0,41,41,41,614.2135840998963,,,,,,,,,,,,,,,,,,,,,,614.1963728999253,614.1964104000945,614.2117242999375,614.2135840998963,614.2135840998963,614.2135840998963,614.2135840998963,617.2125413999893,617.2125413999893,618.2126374000218,1,1,0.9165097998920828,0.1920763999223709,None,618.2127064999659,618.2127272000071,None,618.2127503999509,618.2127674000803,None,,,,,6,2,0,1,2025-03-10_10h56.51.508,rtmindeye,2024.2.4,59.98256908631936,2025-03-10 10h57.24.880099 -0400,,,,,,,,,
all_stimuli/special515/special_41814.jpg,42,0,42,42,0,,,,0,0,1,2,1,"[9, 21, 31, 45, 56, 68, 69]",1,1,0.8733061000239104,0.1880998001433909,None,None,None,,,,,1,0,1,0,0,42,42,42,618.2297960999422,,,,,,,,,,,,,,,,,,,,,,618.2129236001056,618.2129677999765,618.2280759999994,618.2297960999422,618.2297960999422,618.2297960999422,618.2297960999422,621.2291403999552,621.2291403999552,622.2126821998972,1,1,0.8733061000239104,0.1880998001433909,None,622.212747,622.2127666000742,None,622.2127896000165,622.2128067999147,None,622.2290338999592,622.2290338999592,,,6,2,0,1,2025-03-10_10h56.51.508,rtmindeye,2024.2.4,59.98256908631936,2025-03-10 10h57.24.880099 -0400,,,,,,,,,
all_stimuli/shared1000_notspecial/notspecial_23883.png,43,0,43,43,0,,,,0,0,1,2,1,"[9, 21, 31, 45, 56, 68, 69]",1,1,1.0432525998912752,0.21792550012469292,None,None,None,,,,,1,0,1,0,0,43,43,43,622.2290338999592,,,,,,,,,,,,,,,,,,,,,,622.2129677000921,622.2130064999219,622.2274221000262,622.2290338999592,622.2290338999592,622.2290338999592,622.2290338999592,625.2287914999761,625.2287914999761,626.2125168999191,1,1,1.0432525998912752,0.21792550012469292,None,626.2125818000641,626.2126009999774,None,626.2126237000339,626.2126501998864,None,626.2306270999834,626.2306270999834,,,6,2,0,1,2025-03-10_10h56.51.508,rtmindeye,2024.2.4,59.98256908631936,2025-03-10 10h57.24.880099 -0400,,,,,,,,,
all_stimuli/shared1000_notspecial/notspecial_4436.png,44,0,44,44,0,,,,0,0,1,2,1,"[9, 21, 31, 45, 56, 68, 69]",1,1,1.1895418998319656,0.2330998000688851,None,None,None,,,,,1,0,1,0,0,44,44,44,626.2306270999834,,,,,,,,,,,,,,,,,,,,,,626.2128016001079,626.2128387000412,626.2288399999961,626.2306270999834,626.2306270999834,626.2306270999834,626.2306270999834,629.2459094000515,629.2459094000515,630.2292255999055,1,1,1.1895418998319656,0.2330998000688851,None,630.2292947000824,630.2293153998908,None,630.2293390000705,630.2293563999701,None,,,,,6,2,0,1,2025-03-10_10h56.51.508,rtmindeye,2024.2.4,59.98256908631936,2025-03-10 10h57.24.880099 -0400,,,,,,,,,
blank.jpg,45,1,45,45,0,,,,0,0,1,2,1,"[9, 21, 31, 45, 56, 68, 69]",2,0,0.8775114000309259,0.17469109990634024,None,None,None,,,,,1,0,1,0,0,45,45,45,630.2458548001014,,,,,,,,,,,,,,,,,,,,,,630.2295111999847,630.2295544000808,630.2397879,630.2458548001014,630.2458548001014,630.2458548001014,630.2458548001014,633.2456833,633.2456833,634.2289739,2,0,0.8775114000309259,0.17469109990634024,None,634.2290372999851,634.2290578999091,None,634.2290809000842,634.2290978999808,None,634.2456508,634.2456508,,,6,2,0,1,2025-03-10_10h56.51.508,rtmindeye,2024.2.4,59.98256908631936,2025-03-10 10h57.24.880099 -0400,,,,,,,,,
all_stimuli/special515/special_61133.jpg,46,0,46,46,0,,,,1,0,1,2,1,"[9, 21, 31, 45, 56, 68, 69]",2,1,0.9726879000663757,0.19093400007113814,None,None,None,,,,,1,0,1,0,0,46,46,46,634.2456508,,,,,,,,,,,,,,,,,,,,,,634.2292486000806,634.2292865,634.2420856999233,634.2456508,634.2456508,634.2456508,634.2456508,637.2457046,637.2457046,638.2290735000279,2,1,0.9726879000663757,0.19093400007113814,None,638.2291375999339,638.2291592999827,None,638.2291826999281,638.2291997000575,None,638.2578537999652,638.2578537999652,,,6,2,0,1,2025-03-10_10h56.51.508,rtmindeye,2024.2.4,59.98256908631936,2025-03-10 10h57.24.880099 -0400,,,,,,,,,
all_stimuli/MST_pairs1/pair_24_nsd_158_2_cocoid_3673.png,47,0,47,47,0,,,,0,0,1,2,1,"[9, 21, 31, 45, 56, 68, 69]",2,0,1.4432936001103371,0.2128808000124991,None,None,None,,,,,1,0,1,0,0,47,47,47,638.2578537999652,,,,,,,,,,,,,,,,,,,,,,638.2293493000325,638.2293875999749,638.2558496999554,638.2578537999652,638.2578537999652,638.2578537999652,638.2578537999652,641.2621593000367,641.2621593000367,642.2460288000293,2,0,1.4432936001103371,0.2128808000124991,None,642.246097,642.2461174000055,None,642.2461403999478,642.2461578000803,None,,,,,6,2,0,1,2025-03-10_10h56.51.508,rtmindeye,2024.2.4,59.98256908631936,2025-03-10 10h57.24.880099 -0400,,,,,,,,,
all_stimuli/MST_pairs1/pair_34_nsd_875_2_cocoid_72398.png,48,0,48,48,0,,,,0,0,1,2,1,"[9, 21, 31, 45, 56, 68, 69]",2,0,1.2227256000041962,0.18096110015176237,None,None,None,,,,,1,0,1,0,0,48,48,48,642.2763845000882,,,,,,,,,,,,,,,,,,,,,,642.2463104000781,642.2463535999414,642.2745264000259,642.2763845000882,642.2763845000882,642.2763845000882,642.2763845000882,645.2791939999443,645.2791939999443,646.2625633000862,2,0,1.2227256000041962,0.18096110015176237,None,646.2626334999222,646.2626539000776,None,646.2626775000244,646.2626952999271,None,,,,,6,2,0,1,2025-03-10_10h56.51.508,rtmindeye,2024.2.4,59.98256908631936,2025-03-10 10h57.24.880099 -0400,,,,,,,,,
all_stimuli/shared1000_notspecial/notspecial_51965.png,49,0,49,49,0,,,,0,0,1,2,1,"[9, 21, 31, 45, 56, 68, 69]",1,1,0.8100058001000434,0.17679499997757375,None,None,None,,,,,1,0,1,0,0,49,49,49,646.2803328000009,,,,,,,,,,,,,,,,,,,,,,646.2628508999478,646.2628949,646.2787657999434,646.2803328000009,646.2803328000009,646.2803328000009,646.2803328000009,649.2959507000633,649.2959507000633,650.2789133000188,1,1,0.8100058001000434,0.17679499997757375,None,650.2789867,650.2790077999234,None,650.2790317,650.2790496998932,None,,,,,6,2,0,1,2025-03-10_10h56.51.508,rtmindeye,2024.2.4,59.98256908631936,2025-03-10 10h57.24.880099 -0400,,,,,,,,,
all_stimuli/MST_pairs1/pair_30_nsd_676_1_cocoid_48729.png,50,0,50,50,0,,,,0,0,1,2,1,"[9, 21, 31, 45, 56, 68, 69]",1,1,1.600079600000754,0.21904839994385839,None,None,None,,,,,1,0,1,0,0,50,50,50,650.3089179000817,,,,,,,,,,,,,,,,,,,,,,650.2792092999443,650.2792531,650.3068178999238,650.3089179000817,650.3089179000817,650.3089179000817,650.3089179000817,653.3125120999757,653.3125120999757,654.2958068000153,1,1,1.600079600000754,0.21904839994385839,None,654.2958773,654.2958982000127,None,654.2959227000829,654.2959399,None,,,,,6,2,0,1,2025-03-10_10h56.51.508,rtmindeye,2024.2.4,59.98256908631936,2025-03-10 10h57.24.880099 -0400,,,,,,,,,
all_stimuli/shared1000_notspecial/notspecial_52328.png,51,0,51,51,0,,,,0,0,1,2,1,"[9, 21, 31, 45, 56, 68, 69]",1,1,1.3796423999592662,0.1900665001012385,None,None,None,,,,,1,0,1,0,0,51,51,51,654.3155201999471,,,,,,,,,,,,,,,,,,,,,,654.2960942999925,654.2961376,654.3137507000938,654.3155201999471,654.3155201999471,654.3155201999471,654.3155201999471,657.3290593998972,657.3290593998972,658.3122586000245,1,1,1.3796423999592662,0.1900665001012385,None,658.3123276000842,658.3123484000098,None,658.3123707000632,658.3123882999644,None,,,,,6,2,0,1,2025-03-10_10h56.51.508,rtmindeye,2024.2.4,59.98256908631936,2025-03-10 10h57.24.880099 -0400,,,,,,,,,
all_stimuli/MST_pairs1/pair_4_6_44.png,52,0,52,52,0,,,,0,0,1,2,1,"[9, 21, 31, 45, 56, 68, 69]",1,1,1.237247999990359,0.17890290007926524,None,None,None,,,,,1,0,1,0,0,52,52,52,658.3319476000033,,,,,,,,,,,,,,,,,,,,,,658.3125406999607,658.3125845000613,658.3302740999497,658.3319476000033,658.3319476000033,658.3319476000033,658.3319476000033,661.3456681999378,661.3456681999378,662.3291219999082,1,1,1.237247999990359,0.17890290007926524,None,662.3291921999771,662.3292127999011,None,662.3292358000763,662.3292543999851,None,,,,,6,2,0,1,2025-03-10_10h56.51.508,rtmindeye,2024.2.4,59.98256908631936,2025-03-10 10h57.24.880099 -0400,,,,,,,,,
all_stimuli/MST_pairs1/pair_48_w_runway1.jpg,53,0,53,53,0,,,,0,0,1,2,1,"[9, 21, 31, 45, 56, 68, 69]",1,1,0.8686880001332611,0.18601159984245896,None,None,None,,,,,1,0,1,0,0,53,53,53,662.3454078000505,,,,,,,,,,,,,,,,,,,,,,662.3294098998886,662.3294548,662.3431295000482,662.3454078000505,662.3454078000505,662.3454078000505,662.3454078000505,665.3457543998957,665.3457543998957,666.3288433,1,1,0.8686880001332611,0.18601159984245896,None,666.3289078,666.3289274000563,None,666.3289505001158,666.3289683000185,None,666.3461672000121,666.3461672000121,,,6,2,0,1,2025-03-10_10h56.51.508,rtmindeye,2024.2.4,59.98256908631936,2025-03-10 10h57.24.880099 -0400,,,,,,,,,
all_stimuli/special515/special_40840.jpg,54,0,54,54,0,,,,1,0,1,2,1,"[9, 21, 31, 45, 56, 68, 69]",2,1,1.2129911000374705,0.17185909999534488,None,None,None,,,,,1,0,1,0,0,54,54,54,666.3461672000121,,,,,,,,,,,,,,,,,,,,,,666.3291174,666.3291559,666.3444300999399,666.3461672000121,666.3461672000121,666.3461672000121,666.3461672000121,669.3457186000887,669.3457186000887,670.3290715001058,2,1,1.2129911000374705,0.17185909999534488,None,670.3291348000057,670.3291545000393,None,670.3291776000988,670.3291947999969,None,670.3454801000189,670.3454801000189,,,6,2,0,1,2025-03-10_10h56.51.508,rtmindeye,2024.2.4,59.98256908631936,2025-03-10 10h57.24.880099 -0400,,,,,,,,,
all_stimuli/shared1000_notspecial/notspecial_12487.png,55,0,55,55,0,,,,0,0,1,2,1,"[9, 21, 31, 45, 56, 68, 69]",1,1,0.9566758000291884,0.14999300008639693,None,None,None,,,,,1,0,1,0,0,55,55,55,670.3454801000189,,,,,,,,,,,,,,,,,,,,,,670.3293447999749,670.3293830999173,670.3432813999243,670.3454801000189,670.3454801000189,670.3454801000189,670.3454801000189,673.3457599,673.3457599,674.3288050000556,1,1,0.9566758000291884,0.14999300008639693,None,674.3288696999662,674.3288898998871,None,674.3289129000623,674.3289298000745,None,674.3459866000339,674.3459866000339,,,6,2,0,1,2025-03-10_10h56.51.508,rtmindeye,2024.2.4,59.98256908631936,2025-03-10 10h57.24.880099 -0400,,,,,,,,,
blank.jpg,56,1,56,56,0,,,,0,0,1,2,1,"[9, 21, 31, 45, 56, 68, 69]",2,0,0.8303287,0.20080160000361502,None,None,None,,,,,1,0,1,0,0,56,56,56,674.3459866000339,,,,,,,,,,,,,,,,,,,,,,674.3290828999598,674.3291211999021,674.3374811001122,674.3459866000339,674.3459866000339,674.3459866000339,674.3459866000339,677.3456536999438,677.3456536999438,678.3289683999028,2,0,0.8303287,0.20080160000361502,None,678.3290327000432,678.3290526999626,None,678.3290758999065,678.3290927999187,None,678.3462153999135,678.3462153999135,,,6,2,0,1,2025-03-10_10h56.51.508,rtmindeye,2024.2.4,59.98256908631936,2025-03-10 10h57.24.880099 -0400,,,,,,,,,
all_stimuli/MST_pairs1/pair_16_20_0.png,57,0,57,57,0,,,,1,0,1,2,1,"[9, 21, 31, 45, 56, 68, 69]",2,1,1.0789299001917243,0.16809049993753433,None,None,None,,,,,1,0,1,0,0,57,57,57,678.3462153999135,,,,,,,,,,,,,,,,,,,,,,678.3292461000383,678.3292845999822,678.3445985,678.3462153999135,678.3462153999135,678.3462153999135,678.3462153999135,681.3457027999684,681.3457027999684,682.3289477999788,2,1,1.0789299001917243,0.16809049993753433,None,682.3290139,682.3290341000538,None,682.3290579998866,682.3290750999004,None,682.3464989000931,682.3464989000931,,,6,2,0,1,2025-03-10_10h56.51.508,rtmindeye,2024.2.4,59.98256908631936,2025-03-10 10h57.24.880099 -0400,,,,,,,,,
all_stimuli/shared1000_notspecial/notspecial_12685.png,58,0,58,58,0,,,,0,0,1,2,1,"[9, 21, 31, 45, 56, 68, 69]",1,1,1.0026624000165612,0.18091250001452863,None,None,None,,,,,1,0,1,0,0,58,58,58,682.3464989000931,,,,,,,,,,,,,,,,,,,,,,682.3292268998921,682.3292646999471,682.3448858000338,682.3464989000931,682.3464989000931,682.3464989000931,682.3464989000931,685.3621382000856,685.3621382000856,686.3291094000451,1,1,1.0026624000165612,0.18091250001452863,None,686.3291746999603,686.3291943001095,None,686.3292175999377,686.3292350000702,None,686.3543517999351,686.3543517999351,,,6,2,0,1,2025-03-10_10h56.51.508,rtmindeye,2024.2.4,59.98256908631936,2025-03-10 10h57.24.880099 -0400,,,,,,,,,
all_stimuli/MST_pairs1/pair_36_nsd_949_2_cocoid_60031.png,59,0,59,59,0,,,,0,0,1,2,1,"[9, 21, 31, 45, 56, 68, 69]",1,1,1.1318137000780553,0.23496649996377528,None,None,None,,,,,1,0,1,0,0,59,59,59,686.3543517999351,,,,,,,,,,,,,,,,,,,,,,686.3293844000436,686.3294218000956,686.3525324000511,686.3543517999351,686.3543517999351,686.3543517999351,686.3543517999351,689.3623786999378,689.3623786999378,690.3457563000266,1,1,1.1318137000780553,0.23496649996377528,None,690.3458314999007,690.3458525000606,None,690.3458763998933,690.3458944000304,None,,,,,6,2,0,1,2025-03-10_10h56.51.508,rtmindeye,2024.2.4,59.98256908631936,2025-03-10 10h57.24.880099 -0400,,,,,,,,,
all_stimuli/shared1000_notspecial/notspecial_34068.png,60,0,60,60,0,,,,0,0,1,2,1,"[9, 21, 31, 45, 56, 68, 69]",1,1,1.0431959,0.21212759986519814,None,None,None,,,,,1,0,1,0,0,60,60,60,690.3649552999996,,,,,,,,,,,,,,,,,,,,,,690.3460542999674,690.3460977999493,690.3633369999006,690.3649552999996,690.3649552999996,690.3649552999996,690.3649552999996,693.3788914999459,693.3788914999459,694.3621473999228,1,1,1.0431959,0.21212759986519814,None,694.3622190998867,694.3622401000466,None,694.3622632001061,694.3622804998886,None,,,,,6,2,0,1,2025-03-10_10h56.51.508,rtmindeye,2024.2.4,59.98256908631936,2025-03-10 10h57.24.880099 -0400,,,,,,,,,
all_stimuli/special515/special_11159.jpg,61,0,61,61,0,,,,0,0,1,2,1,"[9, 21, 31, 45, 56, 68, 69]",1,1,1.026695900131017,0.17889889981597662,None,None,None,,,,,1,0,1,0,0,61,61,61,694.3816392999142,,,,,,,,,,,,,,,,,,,,,,694.3624358999077,694.3624791998882,694.3798709,694.3816392999142,694.3816392999142,694.3816392999142,694.3816392999142,697.3958678001072,697.3958678001072,698.37909,1,1,1.026695900131017,0.17889889981597662,None,698.3791604998987,698.3791815000586,None,698.3792065000162,698.3792248999234,None,,,,,6,2,0,1,2025-03-10_10h56.51.508,rtmindeye,2024.2.4,59.98256908631936,2025-03-10 10h57.24.880099 -0400,,,,,,,,,
all_stimuli/MST_pairs1/pair_34_nsd_875_2_cocoid_72398.png,62,0,62,62,0,,,,1,0,1,2,1,"[9, 21, 31, 45, 56, 68, 69]",2,1,0.8505820999853313,0.20789459999650717,None,None,None,,,,,1,0,1,0,0,62,62,62,698.4027438000776,,,,,,,,,,,,,,,,,,,,,,698.3793832999654,698.3794267,698.4009165,698.4027438000776,698.4027438000776,698.4027438000776,698.4027438000776,701.4123919000849,701.4123919000849,702.3956081001088,2,1,0.8505820999853313,0.20789459999650717,None,702.3956774999388,702.3956989001017,None,702.3957227000501,702.3957406,None,,,,,6,2,0,1,2025-03-10_10h56.51.508,rtmindeye,2024.2.4,59.98256908631936,2025-03-10 10h57.24.880099 -0400,,,,,,,,,
all_stimuli/special515/special_67742.jpg,63,0,63,63,0,,,,0,0,1,2,1,"[9, 21, 31, 45, 56, 68, 69]",1,1,0.9307517998386174,0.18303690012544394,None,None,None,,,,,1,0,1,0,0,63,63,63,702.4123859999236,,,,,,,,,,,,,,,,,,,,,,702.3958936000708,702.3959369999357,702.4106093000155,702.4123859999236,702.4123859999236,702.4123859999236,702.4123859999236,705.4121612000745,705.4121612000745,706.3957448,1,1,0.9307517998386174,0.18303690012544394,None,706.3958087000065,706.3958286000416,None,706.3958519999869,706.3958691000007,None,706.4119533998892,706.4119533998892,,,6,2,0,1,2025-03-10_10h56.51.508,rtmindeye,2024.2.4,59.98256908631936,2025-03-10 10h57.24.880099 -0400,,,,,,,,,
all_stimuli/MST_pairs1/pair_48_w_runway2.jpg,64,0,64,64,0,,,,0,0,1,2,1,"[9, 21, 31, 45, 56, 68, 69]",2,0,0.8783292998559773,0.18878039997071028,None,None,None,,,,,1,0,1,0,0,64,64,64,706.4119533998892,,,,,,,,,,,,,,,,,,,,,,706.3960190999787,706.3960609000642,706.4097889999393,706.4119533998892,706.4119533998892,706.4119533998892,706.4119533998892,709.4124598999042,709.4124598999042,710.3959296999965,2,0,0.8783292998559773,0.18878039997071028,None,710.3959935000166,710.3960140000563,None,710.3960372000001,710.3960549000185,None,710.4131373,710.4131373,,,6,2,0,1,2025-03-10_10h56.51.508,rtmindeye,2024.2.4,59.98256908631936,2025-03-10 10h57.24.880099 -0400,,,,,,,,,
all_stimuli/MST_pairs1/pair_40_w_escalator1.jpg,65,0,65,65,0,,,,0,0,1,2,1,"[9, 21, 31, 45, 56, 68, 69]",2,0,1.0891571999527514,0.20089360000565648,None,None,None,,,,,1,0,1,0,0,65,65,65,710.4131373,,,,,,,,,,,,,,,,,,,,,,710.3962842000183,710.3963379000779,710.4115222999826,710.4131373,710.4131373,710.4131373,710.4131373,713.4123458000831,713.4123458000831,714.3956665999722,2,0,1.0891571999527514,0.20089360000565648,None,714.3957301001064,714.3957497000229,None,714.3957730999682,714.3957903000992,None,714.4130088998936,714.4130088998936,,,6,2,0,1,2025-03-10_10h56.51.508,rtmindeye,2024.2.4,59.98256908631936,2025-03-10 10h57.24.880099 -0400,,,,,,,,,
all_stimuli/special515/special_62228.jpg,66,0,66,66,0,,,,1,0,1,2,1,"[9, 21, 31, 45, 56, 68, 69]",1,0,1.1020643000956625,0.23293509986251593,None,None,None,,,,,1,0,1,0,0,66,66,66,714.4130088998936,,,,,,,,,,,,,,,,,,,,,,714.3959395000711,714.3959812000394,714.4112823000178,714.4130088998936,714.4130088998936,714.4130088998936,714.4130088998936,717.4122570999898,717.4122570999898,718.3957114999648,1,0,1.1020643000956625,0.23293509986251593,None,718.3957753,718.3957944998983,None,718.3958181,718.3958348999731,None,718.4220338999294,718.4220338999294,,,6,2,0,1,2025-03-10_10h56.51.508,rtmindeye,2024.2.4,59.98256908631936,2025-03-10 10h57.24.880099 -0400,,,,,,,,,
all_stimuli/MST_pairs1/pair_26_nsd_483_2_cocoid_8054.png,67,0,67,67,0,,,,0,0,1,2,1,"[9, 21, 31, 45, 56, 68, 69]",1,1,0.9280711,0.1988845,None,None,None,,,,,1,0,1,0,0,67,67,67,718.4220338999294,,,,,,,,,,,,,,,,,,,,,,718.3959890000988,718.3960375,718.4201009001117,718.4220338999294,718.4220338999294,718.4220338999294,718.4220338999294,721.4289998000022,721.4289998000022,722.4124392999802,1,1,0.9280711,0.1988845,None,722.4125113000628,722.4125324,None,722.4125560999382,722.4125733999535,None,,,,,6,2,0,1,2025-03-10_10h56.51.508,rtmindeye,2024.2.4,59.98256908631936,2025-03-10 10h57.24.880099 -0400,,,,,,,,,
blank.jpg,68,1,68,68,0,,,,0,0,1,2,1,"[9, 21, 31, 45, 56, 68, 69]",2,0,0.8042246,0.20721299992874265,None,None,None,,,,,1,0,1,0,0,68,68,68,722.4288818999194,,,,,,,,,,,,,,,,,,,,,,722.4127281000838,722.4127713,722.4225041999016,722.4288818999194,722.4288818999194,722.4288818999194,722.4288818999194,725.4290185000282,725.4290185000282,726.4125915,2,0,0.8042246,0.20721299992874265,None,726.4126564,726.4126770999283,None,726.4127011,726.4127182,None,726.4290136001073,726.4290136001073,,,6,2,0,1,2025-03-10_10h56.51.508,rtmindeye,2024.2.4,59.98256908631936,2025-03-10 10h57.24.880099 -0400,,,,,,,,,
blank.jpg,69,1,69,69,0,,,,0,1,1,2,0,"[9, 21, 31, 45, 56, 68, 69]",2,0,0.6601166,0.2000765,None,1,equal,36.20833890000358,None,27.452923099976033,None,1,0,1,0,0,69,69,69,726.4290136001073,,,,,,,,,,,,,,,,,,,,,,726.4128741999157,726.4129127000924,726.4215736999176,726.4290136001073,726.4290136001073,726.4290136001073,726.4290136001073,729.4288631,729.4288631,730.4124406001065,2,0,0.6601166,0.2000765,None,730.4180273,766.6455298000947,1,766.6455858000554,794.1291133,equal,730.4289557000156,730.4289557000156,730.4289557000156,730.4289557000156,6,2,0,1,2025-03-10_10h56.51.508,rtmindeye,2024.2.4,59.98256908631936,2025-03-10 10h57.24.880099 -0400,,,,,,,,,
,,,1,0,1,,,,,,,,,,,,,,,,,,,,,1,0,1,0,,,,,,,,,,,,,,,,,,,,,,,,,,,,,,,,,,,,,,,,,,,,,,,,,,,,6,2,0,1,2025-03-10_10h56.51.508,rtmindeye,2024.2.4,59.98256908631936,2025-03-10 10h57.24.880099 -0400,,,,,,,,,
all_stimuli/shared1000_notspecial/notspecial_19672.png,0,0,0,0,0,,,,0,0,2,2,1,"[9, 21, 31, 45, 56, 68, 69]",1,1,1.1526286001317203,0.17487099999561906,None,None,None,,,,,2,0,2,0,0,0,0,0,794.2066476000473,,,,,,,,,,,,,,,,,,,,,,794.1867666998878,794.1868670000695,794.2026484999806,794.2066476000473,794.2066476000473,794.2066476000473,794.2066476000473,797.2118830999825,797.2118830999825,798.1952341001015,1,1,1.1526286001317203,0.17487099999561906,None,798.1953060999513,798.1953279001173,None,798.1953521000687,798.1953704000916,None,,,,,6,2,0,1,2025-03-10_10h56.51.508,rtmindeye,2024.2.4,59.98256908631936,2025-03-10 10h57.24.880099 -0400,,,,,,,,,
all_stimuli/special515/special_55526.jpg,1,0,1,1,0,,,,0,0,2,2,1,"[9, 21, 31, 45, 56, 68, 69]",2,0,0.9733687001280487,0.2447609999217093,None,None,None,,,,,2,0,2,0,0,1,1,1,798.2118438999169,,,,,,,,,,,,,,,,,,,,,,798.1955258999951,798.1955693999771,798.2094598999247,798.2118438999169,798.2118438999169,798.2118438999169,798.2118438999169,801.2122233000118,801.2122233000118,802.1955562001094,2,0,0.9733687001280487,0.2447609999217093,None,802.1956189998891,802.1956384999212,None,802.1956619999837,802.1956795000006,None,802.2388367999811,802.2388367999811,,,6,2,0,1,2025-03-10_10h56.51.508,rtmindeye,2024.2.4,59.98256908631936,2025-03-10 10h57.24.880099 -0400,,,,,,,,,
all_stimuli/MST_pairs1/pair_22_nsd_115_1_cocoid_8171.png,2,0,2,2,0,,,,0,0,2,2,1,"[9, 21, 31, 45, 56, 68, 69]",2,0,1.1654442001599818,0.20768709992989898,None,None,None,,,,,2,0,2,0,0,2,2,2,802.2388367999811,,,,,,,,,,,,,,,,,,,,,,802.1958262000699,802.1958645998966,802.2370354000013,802.2388367999811,802.2388367999811,802.2388367999811,802.2388367999811,805.2455283999443,805.2455283999443,806.2122388000134,2,0,1.1654442001599818,0.20768709992989898,None,806.2123086999636,806.2123296000063,None,806.2123533000704,806.2123706000857,None,,,,,6,2,0,1,2025-03-10_10h56.51.508,rtmindeye,2024.2.4,59.98256908631936,2025-03-10 10h57.24.880099 -0400,,,,,,,,,
