current_image,trial_index,is_blank_trial,thisN,thisTrialN,thisRepN,press_if_repeat_2.keys,press_if_repeat_2.corr,press_if_repeat_2.rt,press_if_repeat_2.duration,all_keys_pressed_2.keys,all_keys_pressed_2.rt,all_keys_pressed_2.duration,is_repeat,is_new_run,run_num,sess_num,is_not_last_trial,all_blanks_list,press_if_repeat.keys,press_if_repeat.corr,press_if_repeat.rt,press_if_repeat.duration,all_keys_pressed.keys,key_resp_5.keys,key_resp_4.keys,key_resp_5.rt,key_resp_5.duration,key_resp_4.rt,key_resp_4.duration,all_keys_pressed.rt,all_keys_pressed.duration,practice.thisRepN,practice.thisTrialN,practice.thisN,practice.thisIndex,loop_runs.thisRepN,loop_runs.thisTrialN,loop_runs.thisN,loop_runs.thisIndex,loop_all_images.thisRepN,loop_all_images.thisTrialN,loop_all_images.thisN,loop_all_images.thisIndex,thisRow.t,notes,set_up.started,set_up.stopped,practice_continue.started,key_resp_6.started,text_6.started,practice_continue.stopped,key_resp_6.keys,key_resp_6.rt,key_resp_6.duration,practice_trial.started,image_2.started,press_if_repeat_2.started,polygon_3.started,all_keys_pressed_2.started,image_2.stopped,press_if_repeat_2.stopped,practice_trial.stopped,practice.press_if_repeat_2.keys,practice.press_if_repeat_2.corr,practice.press_if_repeat_2.rt,practice.press_if_repeat_2.duration,practice.all_keys_pressed_2.keys,practice.all_keys_pressed_2.rt,practice.all_keys_pressed_2.duration,testing_continue.started,key_resp_7.started,text_7.started,testing_continue.stopped,key_resp_7.keys,key_resp_7.rt,key_resp_7.duration,waiting_fmri.started,key_resp_2.started,text_3.started,waiting_fmri.stopped,key_resp_2.keys,key_resp_2.rt,key_resp_2.duration,set_skips_and_correct_key.started,set_skips_and_correct_key.stopped,trial.started,image.started,press_if_repeat.started,polygon.started,all_keys_pressed.started,image.stopped,press_if_repeat.stopped,trial.stopped,loop_all_images.press_if_repeat.keys,loop_all_images.press_if_repeat.corr,loop_all_images.press_if_repeat.rt,loop_all_images.press_if_repeat.duration,loop_all_images.all_keys_pressed.keys,run_wait2_2.started,run_wait2_2.stopped,loop_all_images.key_resp_5.keys,waiting_fmri_2.started,waiting_fmri_2.stopped,loop_all_images.key_resp_4.keys,polygon.stopped,all_keys_pressed.stopped,key_resp_5.started,text_5.started,loop_all_images.key_resp_5.rt,loop_all_images.key_resp_5.duration,key_resp_4.started,text_4.started,loop_all_images.key_resp_4.rt,loop_all_images.key_resp_4.duration,loop_all_images.all_keys_pressed.rt,loop_all_images.all_keys_pressed.duration,participant,session (1 2 or 3),starting_run,skip_practice,date,expName,psychopyVersion,frameRate,expStart
,,,,,,,,,,,,,,,,,,,,,,,,,,,,,,,,,,,,,,,,,,,,,,0.0017189,0.0017829,,,,,,,,,,,,,,,,,,,,,,,,,,,,,,,,,,,,,,,,,,,,,,,,,,,,,,,,,,,,,,,,,,,,,,5,3,0,0,2025-02-27_13h06.15.843,rtmindeye,2024.2.4,59.940610837156555,2025-02-27 13h20.25.335128 -0500
,,,,,,,,,,,,,,,,,,,,,,,,,,,,,,,,,,,,,,,,,,,,,,,,0.0072139,0.011605200008489192,0.011605200008489192,4.637722300016321,1,4.611739099957049,None,,,,,,,,,,,,,,,,,,,,,,,,,,,,,,,,,,,,,,,,,,,,,,,,,,,,,,,,,,,,,,,5,3,0,0,2025-02-27_13h06.15.843,rtmindeye,2024.2.4,59.940610837156555,2025-02-27 13h20.25.335128 -0500
practice_images/w_kitchen2.jpg,0,0,0,0,0,1,0,1.0716241999762133,0.3607825000071898,None,,,,,,,,,,,,,,,,,,,,,,0,0,0,0,,,,,,,,,4.7167307999916375,,,,,,,,,,,4.712927700020373,4.7167307999916375,4.7167307999916375,4.7167307999916375,4.7167307999916375,7.728625499992631,7.728625499992631,8.644886799971573,1,0,1.0716241999762133,0.3607825000071898,None,,,,,,,,,,,,,,,,,,,,,,,,,,,,,,,,,,,,,,,,,,,,,,,,,,5,3,0,0,2025-02-27_13h06.15.843,rtmindeye,2024.2.4,59.940610837156555,2025-02-27 13h20.25.335128 -0500
practice_images/w_boardwalk2.jpg,1,0,1,1,0,1,0,0.5027489999774843,0.10010749998036772,None,,,,,,,,,,,,,,,,,,,,,,0,1,1,1,,,,,,,,,8.669286899967119,,,,,,,,,,,8.667705400031991,8.669286899967119,8.669286899967119,8.669286899967119,8.669286899967119,11.678614999982528,11.678614999982528,12.645541099947877,1,0,0.5027489999774843,0.10010749998036772,None,,,,,,,,,,,,,,,,,,,,,,,,,,,,,,,,,,,,,,,,,,,,,,,,,,5,3,0,0,2025-02-27_13h06.15.843,rtmindeye,2024.2.4,59.940610837156555,2025-02-27 13h20.25.335128 -0500
practice_images/w_monument2.jpg,2,0,2,2,0,1,0,0.8083185000577942,0.1237894999794662,None,,,,,,,,,,,,,,,,,,,,,,0,2,2,2,,,,,,,,,12.663984599988908,,,,,,,,,,,12.662336600013077,12.663984599988908,12.663984599988908,12.663984599988908,12.663984599988908,15.678568099974655,15.678568099974655,16.645224699983373,1,0,0.8083185000577942,0.1237894999794662,None,,,,,,,,,,,,,,,,,,,,,,,,,,,,,,,,,,,,,,,,,,,,,,,,,,5,3,0,0,2025-02-27_13h06.15.843,rtmindeye,2024.2.4,59.940610837156555,2025-02-27 13h20.25.335128 -0500
practice_images/w_auditorium2.jpg,3,0,3,3,0,1,0,0.8048830000916496,0.14826629997696728,None,,,,,,,,,,,,,,,,,,,,,,0,3,3,3,,,,,,,,,16.674137599999085,,,,,,,,,,,16.672501599998213,16.674137599999085,16.674137599999085,16.674137599999085,16.674137599999085,19.67862519994378,19.67862519994378,20.645454399986193,1,0,0.8048830000916496,0.14826629997696728,None,,,,,,,,,,,,,,,,,,,,,,,,,,,,,,,,,,,,,,,,,,,,,,,,,,5,3,0,0,2025-02-27_13h06.15.843,rtmindeye,2024.2.4,59.940610837156555,2025-02-27 13h20.25.335128 -0500
practice_images/w_kitchen2.jpg,4,0,4,4,0,None,0,,,['2'],[1.1505137999774888],[0.12817649997305125],,,,,,,,,,,,,,,,,,,,0,4,4,4,,,,,,,,,20.661565,,,,,,,,,,,20.65759600000456,20.661565,20.661565,20.661565,20.661565,23.661913299933076,23.661913299933076,24.6454536,None,0,,,['2'],[1.1505137999774888],[0.12817649997305125],,,,,,,,,,,,,,,,,,,,,,,,,,,,,,,,,,,,,,,,,,,,,,,,5,3,0,0,2025-02-27_13h06.15.843,rtmindeye,2024.2.4,59.940610837156555,2025-02-27 13h20.25.335128 -0500
practice_images/w_auditorium1.jpg,5,0,5,5,0,1,0,0.6190849000122398,0.10200100007932633,None,,,,,,,,,,,,,,,,,,,,,,0,5,5,5,,,,,,,,,24.675986399990506,,,,,,,,,,,24.674215300008655,24.675986399990506,24.675986399990506,24.675986399990506,24.675986399990506,27.678599999984726,27.678599999984726,28.645335100009106,1,0,0.6190849000122398,0.10200100007932633,None,,,,,,,,,,,,,,,,,,,,,,,,,,,,,,,,,,,,,,,,,,,,,,,,,,5,3,0,0,2025-02-27_13h06.15.843,rtmindeye,2024.2.4,59.940610837156555,2025-02-27 13h20.25.335128 -0500
practice_images/w_bedroom2.jpg,6,0,6,6,0,2,0,1.1096722000511363,0.1530102000106126,None,,,,,,,,,,,,,,,,,,,,,,0,6,6,6,,,,,,,,,28.66164900001604,,,,,,,,,,,28.659284099936485,28.66164900001604,28.66164900001604,28.66164900001604,28.66164900001604,31.661994899972342,31.661994899972342,32.64548339997418,2,0,1.1096722000511363,0.1530102000106126,None,,,,,,,,,,,,,,,,,,,,,,,,,,,,,,,,,,,,,,,,,,,,,,,,,,5,3,0,0,2025-02-27_13h06.15.843,rtmindeye,2024.2.4,59.940610837156555,2025-02-27 13h20.25.335128 -0500
practice_images/w_kitchen1.jpg,7,0,7,7,0,2,0,0.9019474999513477,0.11905730003491044,None,,,,,,,,,,,,,,,,,,,,,,0,7,7,7,,,,,,,,,32.70909279992338,,,,,,,,,,,32.70542819995899,32.70909279992338,32.70909279992338,32.70909279992338,32.70909279992338,35.71189079992473,35.71189079992473,36.645198,2,0,0.9019474999513477,0.11905730003491044,None,,,,,,,,,,,,,,,,,,,,,,,,,,,,,,,,,,,,,,,,,,,,,,,,,,5,3,0,0,2025-02-27_13h06.15.843,rtmindeye,2024.2.4,59.940610837156555,2025-02-27 13h20.25.335128 -0500
practice_images/w_bedroom1.jpg,8,0,8,8,0,2,0,0.9031505000311881,0.049993099994026124,None,,,,,,,,,,,,,,,,,,,,,,0,8,8,8,,,,,,,,,36.679926999961026,,,,,,,,,,,36.67828460002784,36.679926999961026,36.679926999961026,36.679926999961026,36.679926999961026,39.69516719994135,39.69516719994135,40.64526110002771,2,0,0.9031505000311881,0.049993099994026124,None,,,,,,,,,,,,,,,,,,,,,,,,,,,,,,,,,,,,,,,,,,,,,,,,,,5,3,0,0,2025-02-27_13h06.15.843,rtmindeye,2024.2.4,59.940610837156555,2025-02-27 13h20.25.335128 -0500
practice_images/w_monument2.jpg,9,0,9,9,0,2,0,0.7672115999739617,0.16206070000771433,None,,,,,,,,,,,,,,,,,,,,,,0,9,9,9,,,,,,,,,40.66187389998231,,,,,,,,,,,40.65592339995783,40.66187389998231,40.66187389998231,40.66187389998231,40.66187389998231,43.66182909999043,43.66182909999043,44.64521149999928,2,0,0.7672115999739617,0.16206070000771433,None,,,,,,,,,,,,,,,,,,,,,,,,,,,,,,,,,,,,,,,,,,,,,,,,,,5,3,0,0,2025-02-27_13h06.15.843,rtmindeye,2024.2.4,59.940610837156555,2025-02-27 13h20.25.335128 -0500
,,,,,,,,,,,,,,,,,,,,,,,,,,,,,,,,,,,,,,,,,,,,,,,,,,,,,,,,,,,,,,,,,,,,,,44.65188969997689,44.70735819998663,44.70735819998663,47.478814400034025,1,2.7557586999610066,None,,,,,,,,,,,,,,,,,,,,,,,,,,,,,,,,,,,,,,,,,5,3,0,0,2025-02-27_13h06.15.843,rtmindeye,2024.2.4,59.940610837156555,2025-02-27 13h20.25.335128 -0500
,,,,,,,,,,,,,,,,,,,,,,,,,,,,,,,,,,,,,,,,,,,,,,,,,,,,,,,,,,,,,,,,,,,,,,,,,,,,,47.47885509999469,47.49523430003319,47.49523430003319,174.62859780003782,equal,127.12077040004078,None,,,,,,,,,,,,,,,,,,,,,,,,,,,,,,,,,,5,3,0,0,2025-02-27_13h06.15.843,rtmindeye,2024.2.4,59.940610837156555,2025-02-27 13h20.25.335128 -0500
all_stimuli/unchosen_nsd_1000_images/unchosen_7211_cocoid_59250.png,0,0,0,0,0,,,,,,,,0,0,0,3,1,"[9, 21, 31, 45, 56, 68, 69]",1,1,0.7188964999513701,0.15901870001107454,None,None,None,,,,,,,,,,,0,0,0,0,0,0,0,0,174.71530489996076,,,,,,,,,,,,,,,,,,,,,,,,,,,,,,,,,,,,,,,,174.6589947999455,174.6590965000214,174.7109683000017,174.71530489996076,174.71530489996076,174.71530489996076,174.71530489996076,177.72843289992306,177.72843289992306,178.6615393999964,1,1,0.7188964999513701,0.15901870001107454,None,178.66161009995267,178.66163500002585,None,178.66165829997044,178.66167669999413,None,,,,,,,,,,,,,5,3,0,0,2025-02-27_13h06.15.843,rtmindeye,2024.2.4,59.940610837156555,2025-02-27 13h20.25.335128 -0500
all_stimuli/special515/special_67295.jpg,1,0,1,1,0,,,,,,,,0,0,0,3,1,"[9, 21, 31, 45, 56, 68, 69]",1,1,0.5896017999621108,0.18308959994465113,None,None,None,,,,,,,,,,,0,0,0,0,0,1,1,1,178.70737099996768,,,,,,,,,,,,,,,,,,,,,,,,,,,,,,,,,,,,,,,,178.66183500003535,178.66187820001505,178.7049172000261,178.70737099996768,178.70737099996768,178.70737099996768,178.70737099996768,181.71145509998314,181.71145509998314,182.67813859996386,1,1,0.5896017999621108,0.18308959994465113,None,182.67820670001674,182.67822809994686,None,182.67825110000558,182.67826910002623,None,,,,,,,,,,,,,5,3,0,0,2025-02-27_13h06.15.843,rtmindeye,2024.2.4,59.940610837156555,2025-02-27 13h20.25.335128 -0500
all_stimuli/unchosen_nsd_1000_images/unchosen_5729_cocoid_53029.png,2,0,2,2,0,,,,,,,,0,0,0,3,1,"[9, 21, 31, 45, 56, 68, 69]",1,1,0.6082600000081584,0.16373329993803054,None,None,None,,,,,,,,,,,0,0,0,0,0,2,2,2,182.70890269998927,,,,,,,,,,,,,,,,,,,,,,,,,,,,,,,,,,,,,,,,182.6784266999457,182.6784703999292,182.70728319999762,182.70890269998927,182.70890269998927,182.70890269998927,182.70890269998927,185.71153760002926,185.71153760002926,186.69500860001426,1,1,0.6082600000081584,0.16373329993803054,None,186.69507999997586,186.69510210002773,None,186.69512589997612,186.6951438,None,,,,,,,,,,,,,5,3,0,0,2025-02-27_13h06.15.843,rtmindeye,2024.2.4,59.940610837156555,2025-02-27 13h20.25.335128 -0500
all_stimuli/special515/special_70232.jpg,3,0,3,3,0,,,,,,,,0,0,0,3,1,"[9, 21, 31, 45, 56, 68, 69]",1,1,0.5298327000346035,0.18926790007390082,None,None,None,,,,,,,,,,,0,0,0,0,0,3,3,3,186.7321113999933,,,,,,,,,,,,,,,,,,,,,,,,,,,,,,,,,,,,,,,,186.69530279992614,186.69535059994087,186.72970160003752,186.7321113999933,186.7321113999933,186.7321113999933,186.7321113999933,189.74468440003693,189.74468440003693,190.71130109997466,1,1,0.5298327000346035,0.18926790007390082,None,190.7113723999355,190.71139419998508,None,190.71141809993424,190.71143609995488,None,,,,,,,,,,,,,5,3,0,0,2025-02-27_13h06.15.843,rtmindeye,2024.2.4,59.940610837156555,2025-02-27 13h20.25.335128 -0500
all_stimuli/unchosen_nsd_1000_images/unchosen_7251_cocoid_26645.png,4,0,4,4,0,,,,,,,,0,0,0,3,1,"[9, 21, 31, 45, 56, 68, 69]",1,1,0.6674834999721497,0.1360293000470847,None,None,None,,,,,,,,,,,0,0,0,0,0,4,4,4,190.73763640003745,,,,,,,,,,,,,,,,,,,,,,,,,,,,,,,,,,,,,,,,190.7115993000334,190.71164290001616,190.73601079999935,190.73763640003745,190.73763640003745,190.73763640003745,190.73763640003745,193.7448596,193.7448596,194.72843759995885,1,1,0.6674834999721497,0.1360293000470847,None,194.72850959992502,194.72853119997308,None,194.72855549992528,194.72857299994212,None,,,,,,,,,,,,,5,3,0,0,2025-02-27_13h06.15.843,rtmindeye,2024.2.4,59.940610837156555,2025-02-27 13h20.25.335128 -0500
all_stimuli/special515/special_40721.jpg,5,0,5,5,0,,,,,,,,0,0,0,3,1,"[9, 21, 31, 45, 56, 68, 69]",1,1,0.5976662000175565,0.14313839992973953,None,None,None,,,,,,,,,,,0,0,0,0,0,5,5,5,194.74936419993173,,,,,,,,,,,,,,,,,,,,,,,,,,,,,,,,,,,,,,,,194.7287374000298,194.72878400003538,194.74755730002653,194.74936419993173,194.74936419993173,194.74936419993173,194.74936419993173,197.76157089998014,197.76157089998014,198.7450735999737,1,1,0.5976662000175565,0.14313839992973953,None,198.74514260003343,198.74516369996127,None,198.74518810003065,198.74520539992955,None,,,,,,,,,,,,,5,3,0,0,2025-02-27_13h06.15.843,rtmindeye,2024.2.4,59.940610837156555,2025-02-27 13h20.25.335128 -0500
all_stimuli/unchosen_nsd_1000_images/unchosen_1956_cocoid_70856.png,6,0,6,6,0,,,,,,,,0,0,0,3,1,"[9, 21, 31, 45, 56, 68, 69]",1,1,0.5116940999869257,0.14696060004644096,None,None,None,,,,,,,,,,,0,0,0,0,0,6,6,6,198.80533040000591,,,,,,,,,,,,,,,,,,,,,,,,,,,,,,,,,,,,,,,,198.7453617999563,198.74540559994057,198.8035284000216,198.80533040000591,198.80533040000591,198.80533040000591,198.80533040000591,201.81155660003424,201.81155660003424,202.76153289992362,1,1,0.5116940999869257,0.14696060004644096,None,202.7616012999788,202.7616233000299,None,202.7616468,202.76166419999208,None,,,,,,,,,,,,,5,3,0,0,2025-02-27_13h06.15.843,rtmindeye,2024.2.4,59.940610837156555,2025-02-27 13h20.25.335128 -0500
all_stimuli/unchosen_nsd_1000_images/unchosen_2840_cocoid_40668.png,7,0,7,7,0,,,,,,,,0,0,0,3,1,"[9, 21, 31, 45, 56, 68, 69]",1,1,0.5281181000173092,0.12686489999759942,None,None,None,,,,,,,,,,,0,0,0,0,0,7,7,7,202.8150681,,,,,,,,,,,,,,,,,,,,,,,,,,,,,,,,,,,,,,,,202.76182030001655,202.76186329999473,202.81343410001136,202.8150681,202.8150681,202.8150681,202.8150681,205.82829440000933,205.82829440000933,206.77845199999865,1,1,0.5281181000173092,0.12686489999759942,None,206.77852239995264,206.77854510000907,None,206.7785691,206.77858619997278,None,,,,,,,,,,,,,5,3,0,0,2025-02-27_13h06.15.843,rtmindeye,2024.2.4,59.940610837156555,2025-02-27 13h20.25.335128 -0500
all_stimuli/special515/special_23715.jpg,8,0,8,8,0,,,,,,,,0,0,0,3,1,"[9, 21, 31, 45, 56, 68, 69]",1,1,0.5050723999738693,0.18515230005141348,None,None,None,,,,,,,,,,,0,0,0,0,0,8,8,8,206.80990560003556,,,,,,,,,,,,,,,,,,,,,,,,,,,,,,,,,,,,,,,,206.77875489997678,206.77879899996333,206.80799110000953,206.80990560003556,206.80990560003556,206.80990560003556,206.80990560003556,209.81128729996271,209.81128729996271,210.7949035000056,1,1,0.5050723999738693,0.18515230005141348,None,210.79497249994893,210.79499419999775,None,210.7950172999408,210.79503499995917,None,,,,,,,,,,,,,5,3,0,0,2025-02-27_13h06.15.843,rtmindeye,2024.2.4,59.940610837156555,2025-02-27 13h20.25.335128 -0500
blank.jpg,9,1,9,9,0,,,,,,,,0,0,0,3,1,"[9, 21, 31, 45, 56, 68, 69]",None,0,,,None,None,None,,,,,,,,,,,0,0,0,0,0,9,9,9,210.8263661999954,,,,,,,,,,,,,,,,,,,,,,,,,,,,,,,,,,,,,,,,210.7951906999806,210.7952343999641,210.82457860000432,210.8263661999954,210.8263661999954,210.8263661999954,210.8263661999954,213.82804849999957,213.82804849999957,214.81155390001368,None,0,,,None,214.81162259995472,214.8116454000119,None,214.81166909995954,214.8116870999802,None,,,,,,,,,,,,,5,3,0,0,2025-02-27_13h06.15.843,rtmindeye,2024.2.4,59.940610837156555,2025-02-27 13h20.25.335128 -0500
all_stimuli/unchosen_nsd_1000_images/unchosen_922_cocoid_2488.png,10,0,10,10,0,,,,,,,,0,0,0,3,1,"[9, 21, 31, 45, 56, 68, 69]",1,1,0.6553782999981195,0.15715899993665516,None,None,None,,,,,,,,,,,0,0,0,0,0,10,10,10,214.84261619998142,,,,,,,,,,,,,,,,,,,,,,,,,,,,,,,,,,,,,,,,214.81199560000096,214.81204009999055,214.8409745999379,214.84261619998142,214.84261619998142,214.84261619998142,214.84261619998142,217.8444143999368,217.8444143999368,218.82837450003717,1,1,0.6553782999981195,0.15715899993665516,None,218.8284442999866,218.8284660000354,None,218.82848989998456,218.82850770000368,None,,,,,,,,,,,,,5,3,0,0,2025-02-27_13h06.15.843,rtmindeye,2024.2.4,59.940610837156555,2025-02-27 13h20.25.335128 -0500
all_stimuli/unchosen_nsd_1000_images/unchosen_360_cocoid_33748.png,11,0,11,11,0,,,,,,,,0,0,0,3,1,"[9, 21, 31, 45, 56, 68, 69]",1,1,0.6001152,0.1552887000143528,None,None,None,,,,,,,,,,,0,0,0,0,0,11,11,11,218.8487901999615,,,,,,,,,,,,,,,,,,,,,,,,,,,,,,,,,,,,,,,,218.82866639993154,218.82871020003222,218.8471951999236,218.8487901999615,218.8487901999615,218.8487901999615,218.8487901999615,221.8615078999428,221.8615078999428,222.84488699992653,1,1,0.6001152,0.1552887000143528,None,222.8449571999954,222.84497859992553,None,222.84500229998957,222.8450198000064,None,,,,,,,,,,,,,5,3,0,0,2025-02-27_13h06.15.843,rtmindeye,2024.2.4,59.940610837156555,2025-02-27 13h20.25.335128 -0500
all_stimuli/MST_pairs/pair_14_18_78.png,12,0,12,12,0,,,,,,,,0,0,0,3,1,"[9, 21, 31, 45, 56, 68, 69]",1,1,0.7505361000075936,0.15323980001267046,None,None,None,,,,,,,,,,,0,0,0,0,0,12,12,12,222.89840519998688,,,,,,,,,,,,,,,,,,,,,,,,,,,,,,,,,,,,,,,,222.84518219996244,222.8452259999467,222.89660750003532,222.89840519998688,222.89840519998688,222.89840519998688,222.89840519998688,225.91144149994943,225.91144149994943,226.86147230002098,1,1,0.7505361000075936,0.15323980001267046,None,226.86154299997725,226.86156500002835,None,226.86158979998436,226.8616069999989,None,,,,,,,,,,,,,5,3,0,0,2025-02-27_13h06.15.843,rtmindeye,2024.2.4,59.940610837156555,2025-02-27 13h20.25.335128 -0500
all_stimuli/unchosen_nsd_1000_images/unchosen_7707_cocoid_28432.png,13,0,13,13,0,,,,,,,,0,0,0,3,1,"[9, 21, 31, 45, 56, 68, 69]",1,1,0.7128347000107169,0.12005160003900528,None,None,None,,,,,,,,,,,0,0,0,0,0,13,13,13,226.89906550000887,,,,,,,,,,,,,,,,,,,,,,,,,,,,,,,,,,,,,,,,226.86176859994885,226.86181199993007,226.89728369994555,226.89906550000887,226.89906550000887,226.89906550000887,226.89906550000887,229.91140209999867,229.91140209999867,230.87817319994792,1,1,0.7128347000107169,0.12005160003900528,None,230.87824490002822,230.87826779996976,None,230.8782918000361,230.87830919993576,None,,,,,,,,,,,,,5,3,0,0,2025-02-27_13h06.15.843,rtmindeye,2024.2.4,59.940610837156555,2025-02-27 13h20.25.335128 -0500
all_stimuli/unchosen_nsd_1000_images/unchosen_3335_cocoid_42819.png,14,0,14,14,0,,,,,,,,0,0,0,3,1,"[9, 21, 31, 45, 56, 68, 69]",1,1,0.7368233000161126,0.15596080000977963,None,None,None,,,,,,,,,,,0,0,0,0,0,14,14,14,230.90520399995148,,,,,,,,,,,,,,,,,,,,,,,,,,,,,,,,,,,,,,,,230.87847510003485,230.87851940002292,230.90360099996906,230.90520399995148,230.90520399995148,230.90520399995148,230.90520399995148,233.91123760002665,233.91123760002665,234.89484720001929,1,1,0.7368233000161126,0.15596080000977963,None,234.8949169999687,234.8949382000137,None,234.89496189996134,234.89497919997666,None,,,,,,,,,,,,,5,3,0,0,2025-02-27_13h06.15.843,rtmindeye,2024.2.4,59.940610837156555,2025-02-27 13h20.25.335128 -0500
all_stimuli/unchosen_nsd_1000_images/unchosen_2358_cocoid_39186.png,15,0,15,15,0,,,,,,,,0,0,0,3,1,"[9, 21, 31, 45, 56, 68, 69]",1,1,0.5976906000869349,0.15211829997133464,None,None,None,,,,,,,,,,,0,0,0,0,0,15,15,15,234.94037690002006,,,,,,,,,,,,,,,,,,,,,,,,,,,,,,,,,,,,,,,,234.8951364000095,234.8951798999915,234.93875949992798,234.94037690002006,234.94037690002006,234.94037690002006,234.94037690002006,237.94474309997167,237.94474309997167,238.89525840000715,1,1,0.5976906000869349,0.15211829997133464,None,238.89532879996113,238.8953504000092,None,238.8953743999591,238.89539239997976,None,,,,,,,,,,,,,5,3,0,0,2025-02-27_13h06.15.843,rtmindeye,2024.2.4,59.940610837156555,2025-02-27 13h20.25.335128 -0500
all_stimuli/unchosen_nsd_1000_images/unchosen_2249_cocoid_6116.png,16,0,16,16,0,,,,,,,,0,0,0,3,1,"[9, 21, 31, 45, 56, 68, 69]",1,1,0.4769025999121368,0.2491139000048861,None,None,None,,,,,,,,,,,0,0,0,0,0,16,16,16,238.92405899998266,,,,,,,,,,,,,,,,,,,,,,,,,,,,,,,,,,,,,,,,238.89555959997233,238.89560319995508,238.92251760000363,238.92405899998266,238.92405899998266,238.92405899998266,238.92405899998266,241.9282284999499,241.9282284999499,242.91153619997203,1,1,0.4769025999121368,0.2491139000048861,None,242.91160530003253,242.91162719996646,None,242.91165060002822,242.9116676999256,None,,,,,,,,,,,,,5,3,0,0,2025-02-27_13h06.15.843,rtmindeye,2024.2.4,59.940610837156555,2025-02-27 13h20.25.335128 -0500
all_stimuli/unchosen_nsd_1000_images/unchosen_7892_cocoid_61880.png,17,0,17,17,0,,,,,,,,0,0,0,3,1,"[9, 21, 31, 45, 56, 68, 69]",1,1,0.5496872999938205,0.1508007999509573,None,None,None,,,,,,,,,,,0,0,0,0,0,17,17,17,242.93744559993502,,,,,,,,,,,,,,,,,,,,,,,,,,,,,,,,,,,,,,,,242.9118280999828,242.91187139996327,242.93580849992577,242.93744559993502,242.93744559993502,242.93744559993502,242.93744559993502,245.94471179996617,245.94471179996617,246.92819479992613,1,1,0.5496872999938205,0.1508007999509573,None,246.9282652999973,246.92828689992893,None,246.9283107999945,246.92832880001515,None,,,,,,,,,,,,,5,3,0,0,2025-02-27_13h06.15.843,rtmindeye,2024.2.4,59.940610837156555,2025-02-27 13h20.25.335128 -0500
all_stimuli/unchosen_nsd_1000_images/unchosen_8601_cocoid_64851.png,18,0,18,18,0,,,,,,,,0,0,0,3,1,"[9, 21, 31, 45, 56, 68, 69]",1,1,0.5942335000727326,0.10507089993916452,None,None,None,,,,,,,,,,,0,0,0,0,0,18,18,18,246.98575490002986,,,,,,,,,,,,,,,,,,,,,,,,,,,,,,,,,,,,,,,,246.9284851999255,246.92852860002313,246.98416120000184,246.98575490002986,246.98575490002986,246.98575490002986,246.98575490002986,249.99490759999026,249.99490759999026,250.9446684999857,1,1,0.5942335000727326,0.10507089993916452,None,250.94473929994274,250.9447605999885,None,250.94478399993386,250.94480219995603,None,,,,,,,,,,,,,5,3,0,0,2025-02-27_13h06.15.843,rtmindeye,2024.2.4,59.940610837156555,2025-02-27 13h20.25.335128 -0500
all_stimuli/unchosen_nsd_1000_images/unchosen_6257_cocoid_55334.png,19,0,19,19,0,,,,,,,,0,0,0,3,1,"[9, 21, 31, 45, 56, 68, 69]",1,1,0.7303551000077277,0.16218699992168695,None,None,None,,,,,,,,,,,0,0,0,0,0,19,19,19,251.01662040001247,,,,,,,,,,,,,,,,,,,,,,,,,,,,,,,,,,,,,,,,250.94496540003456,250.94500860001426,251.0133142999839,251.01662040001247,251.01662040001247,251.01662040001247,251.01662040001247,254.0278055999661,254.0278055999661,254.96144809992984,1,1,0.7303551000077277,0.16218699992168695,None,254.96152939996682,254.9615525000263,None,254.96157719998155,254.96159560000524,None,,,,,,,,,,,,,5,3,0,0,2025-02-27_13h06.15.843,rtmindeye,2024.2.4,59.940610837156555,2025-02-27 13h20.25.335128 -0500
all_stimuli/shared1000_notspecial/notspecial_4325.png,20,0,20,20,0,,,,,,,,0,0,0,3,1,"[9, 21, 31, 45, 56, 68, 69]",1,1,0.5184183000819758,0.1678464999422431,None,None,None,,,,,,,,,,,0,0,0,0,0,20,20,20,255.03575609996915,,,,,,,,,,,,,,,,,,,,,,,,,,,,,,,,,,,,,,,,254.9617715999484,254.96183129993733,255.03214180003852,255.03575609996915,255.03575609996915,255.03575609996915,255.03575609996915,258.04434369993396,258.04434369993396,258.9778178000124,1,1,0.5184183000819758,0.1678464999422431,None,258.97788989997935,258.9779118000297,None,258.97793649998493,258.9779544000048,None,,,,,,,,,,,,,5,3,0,0,2025-02-27_13h06.15.843,rtmindeye,2024.2.4,59.940610837156555,2025-02-27 13h20.25.335128 -0500
blank.jpg,21,1,21,21,0,,,,,,,,0,0,0,3,1,"[9, 21, 31, 45, 56, 68, 69]",None,0,,,None,None,None,,,,,,,,,,,0,0,0,0,0,21,21,21,258.9944042999996,,,,,,,,,,,,,,,,,,,,,,,,,,,,,,,,,,,,,,,,258.9781209999928,258.9781663999893,258.9914003999438,258.9944042999996,258.9944042999996,258.9944042999996,258.9944042999996,261.9944942999864,261.9944942999864,262.97789219999686,None,0,,,None,262.97795229998883,262.97797270002775,None,262.97799649997614,262.9780136999907,None,263.0011551999487,263.0011551999487,,,,,,,,,,,5,3,0,0,2025-02-27_13h06.15.843,rtmindeye,2024.2.4,59.940610837156555,2025-02-27 13h20.25.335128 -0500
all_stimuli/unchosen_nsd_1000_images/unchosen_6825_cocoid_57631.png,22,0,22,22,0,,,,,,,,0,0,0,3,1,"[9, 21, 31, 45, 56, 68, 69]",1,1,0.6208960000658408,0.12795899994671345,None,None,None,,,,,,,,,,,0,0,0,0,0,22,22,22,263.0011551999487,,,,,,,,,,,,,,,,,,,,,,,,,,,,,,,,,,,,,,,,262.9781708000228,262.9782086999621,262.99944249994587,263.0011551999487,263.0011551999487,263.0011551999487,263.0011551999487,266.0110294999322,266.0110294999322,266.9944716999307,1,1,0.6208960000658408,0.12795899994671345,None,266.9945442000171,266.9945657,None,266.99458960001357,266.99460700002965,None,,,,,,,,,,,,,5,3,0,0,2025-02-27_13h06.15.843,rtmindeye,2024.2.4,59.940610837156555,2025-02-27 13h20.25.335128 -0500
all_stimuli/unchosen_nsd_1000_images/unchosen_3173_cocoid_42022.png,23,0,23,23,0,,,,,,,,0,0,0,3,1,"[9, 21, 31, 45, 56, 68, 69]",1,1,0.5147069,0.13689460000023246,None,None,None,,,,,,,,,,,0,0,0,0,0,23,23,23,267.02731619996484,,,,,,,,,,,,,,,,,,,,,,,,,,,,,,,,,,,,,,,,266.9949226999888,266.99496759998146,267.0256695999997,267.02731619996484,267.02731619996484,267.02731619996484,267.02731619996484,270.0277312999824,270.0277312999824,271.0110764999408,1,1,0.5147069,0.13689460000023246,None,271.01114860002417,271.0111701999558,None,271.01119440002367,271.0112118999241,None,,,,,,,,,,,,,5,3,0,0,2025-02-27_13h06.15.843,rtmindeye,2024.2.4,59.940610837156555,2025-02-27 13h20.25.335128 -0500
all_stimuli/special515/special_40721.jpg,24,0,24,24,0,,,,,,,,1,0,0,3,1,"[9, 21, 31, 45, 56, 68, 69]",2,1,0.8753595,0.36501820001285523,None,None,None,,,,,,,,,,,0,0,0,0,0,24,24,24,271.02865150000434,,,,,,,,,,,,,,,,,,,,,,,,,,,,,,,,,,,,,,,,271.0113796000369,271.0114268999314,271.02684379997663,271.02865150000434,271.02865150000434,271.02865150000434,271.02865150000434,274.02766190003604,274.02766190003604,275.01118229993153,2,1,0.8753595,0.36501820001285523,None,275.01125079998747,275.01127230003476,None,275.011297,275.0113141000038,None,275.0396086999681,275.0396086999681,,,,,,,,,,,5,3,0,0,2025-02-27_13h06.15.843,rtmindeye,2024.2.4,59.940610837156555,2025-02-27 13h20.25.335128 -0500
all_stimuli/shared1000_notspecial/notspecial_37436.png,25,0,25,25,0,,,,,,,,0,0,0,3,1,"[9, 21, 31, 45, 56, 68, 69]",1,1,0.7003994999686256,0.12918000004719943,None,None,None,,,,,,,,,,,0,0,0,0,0,25,25,25,275.0396086999681,,,,,,,,,,,,,,,,,,,,,,,,,,,,,,,,,,,,,,,,275.0114775999682,275.0115165000316,275.0377224999247,275.0396086999681,275.0396086999681,275.0396086999681,275.0396086999681,278.04426969995257,278.04426969995257,279.02798859996255,1,1,0.7003994999686256,0.12918000004719943,None,279.0280597000383,279.0280815999722,None,279.0281047000317,279.02812239993364,None,,,,,,,,,,,,,5,3,0,0,2025-02-27_13h06.15.843,rtmindeye,2024.2.4,59.940610837156555,2025-02-27 13h20.25.335128 -0500
all_stimuli/shared1000_notspecial/notspecial_70038.png,26,0,26,26,0,,,,,,,,0,0,0,3,1,"[9, 21, 31, 45, 56, 68, 69]",1,1,0.6167888999916613,0.16798060003202409,None,None,None,,,,,,,,,,,0,0,0,0,0,26,26,26,279.05421049997676,,,,,,,,,,,,,,,,,,,,,,,,,,,,,,,,,,,,,,,,279.0282858000137,279.02832990000024,279.0525774,279.05421049997676,279.05421049997676,279.05421049997676,279.05421049997676,282.06143190001603,282.06143190001603,283.04480499995407,1,1,0.6167888999916613,0.16798060003202409,None,283.0448758000275,283.0448975999607,None,283.04492120002396,283.04493899992667,None,,,,,,,,,,,,,5,3,0,0,2025-02-27_13h06.15.843,rtmindeye,2024.2.4,59.940610837156555,2025-02-27 13h20.25.335128 -0500
all_stimuli/shared1000_notspecial/notspecial_64615.png,27,0,27,27,0,,,,,,,,0,0,0,3,1,"[9, 21, 31, 45, 56, 68, 69]",1,1,0.5569617000874132,0.15100319997873157,None,None,None,,,,,,,,,,,0,0,0,0,0,27,27,27,283.0832014000043,,,,,,,,,,,,,,,,,,,,,,,,,,,,,,,,,,,,,,,,283.0451013999991,283.04514529998414,283.0815615999745,283.0832014000043,283.0832014000043,283.0832014000043,283.0832014000043,286.0945106999716,286.0945106999716,287.06136379996315,1,1,0.5569617000874132,0.15100319997873157,None,287.0614362999331,287.0614580999827,None,287.06148279993795,287.06150039995555,None,,,,,,,,,,,,,5,3,0,0,2025-02-27_13h06.15.843,rtmindeye,2024.2.4,59.940610837156555,2025-02-27 13h20.25.335128 -0500
all_stimuli/MST_pairs/pair_46_w_pool2.jpg,28,0,28,28,0,,,,,,,,0,0,0,3,1,"[9, 21, 31, 45, 56, 68, 69]",1,1,0.7071398000698537,0.12204369995743036,None,None,None,,,,,,,,,,,0,0,0,0,0,28,28,28,287.0949049999472,,,,,,,,,,,,,,,,,,,,,,,,,,,,,,,,,,,,,,,,287.06166619993746,287.06171019992325,287.09308879997116,287.0949049999472,287.0949049999472,287.0949049999472,287.0949049999472,290.09481689997483,290.09481689997483,291.0780207000207,1,1,0.7071398000698537,0.12204369995743036,None,291.0780910999747,291.0781131000258,None,291.07813699997496,291.0781544999918,None,,,,,,,,,,,,,5,3,0,0,2025-02-27_13h06.15.843,rtmindeye,2024.2.4,59.940610837156555,2025-02-27 13h20.25.335128 -0500
all_stimuli/MST_pairs/pair_37_w_airplane_interior2.jpg,29,0,29,29,0,,,,,,,,0,0,0,3,1,"[9, 21, 31, 45, 56, 68, 69]",1,1,0.6893319999799132,0.13891129998955876,None,None,None,,,,,,,,,,,0,0,0,0,0,29,29,29,291.10168610000983,,,,,,,,,,,,,,,,,,,,,,,,,,,,,,,,,,,,,,,,291.07831759995315,291.0783647999633,291.09991460002493,291.10168610000983,291.10168610000983,291.10168610000983,291.10168610000983,294.1112783999415,294.1112783999415,295.09439510002267,1,1,0.6893319999799132,0.13891129998955876,None,295.09446389996447,295.0944858000148,None,295.09450949996244,295.09452729998156,None,,,,,,,,,,,,,5,3,0,0,2025-02-27_13h06.15.843,rtmindeye,2024.2.4,59.940610837156555,2025-02-27 13h20.25.335128 -0500
all_stimuli/unchosen_nsd_1000_images/unchosen_6328_cocoid_22875.png,30,0,30,30,0,,,,,,,,0,0,0,3,1,"[9, 21, 31, 45, 56, 68, 69]",1,1,1.0613266999134794,0.16083110007457435,None,None,None,,,,,,,,,,,0,0,0,0,0,30,30,30,295.1437829999486,,,,,,,,,,,,,,,,,,,,,,,,,,,,,,,,,,,,,,,,295.0946885999292,295.0947324000299,295.14198630000465,295.1437829999486,295.1437829999486,295.1437829999486,295.1437829999486,298.1446180000203,298.1446180000203,299.1112207999686,1,1,1.0613266999134794,0.16083110007457435,None,299.1112912999233,299.1113128999714,None,299.1113369000377,299.1113544999389,None,,,,,,,,,,,,,5,3,0,0,2025-02-27_13h06.15.843,rtmindeye,2024.2.4,59.940610837156555,2025-02-27 13h20.25.335128 -0500
blank.jpg,31,1,31,31,0,,,,,,,,0,0,0,3,1,"[9, 21, 31, 45, 56, 68, 69]",None,0,,,None,None,None,,,,,,,,,,,0,0,0,0,0,31,31,31,299.1281190000009,,,,,,,,,,,,,,,,,,,,,,,,,,,,,,,,,,,,,,,,299.11152149992995,299.1115651000291,299.11884190002456,299.1281190000009,299.1281190000009,299.1281190000009,299.1281190000009,302.1280150000239,302.1280150000239,303.1113696999382,None,0,,,None,303.11142790003214,303.11144879995845,None,303.11147320002783,303.11149049992673,None,303.22159560001455,303.22159560001455,,,,,,,,,,,5,3,0,0,2025-02-27_13h06.15.843,rtmindeye,2024.2.4,59.940610837156555,2025-02-27 13h20.25.335128 -0500
all_stimuli/unchosen_nsd_1000_images/unchosen_5263_cocoid_51166.png,32,0,32,32,0,,,,,,,,0,0,0,3,1,"[9, 21, 31, 45, 56, 68, 69]",1,1,0.6253583000507206,0.14993690000846982,None,None,None,,,,,,,,,,,0,0,0,0,0,32,32,32,303.22159560001455,,,,,,,,,,,,,,,,,,,,,,,,,,,,,,,,,,,,,,,,303.1116432999261,303.11168139998335,303.2182231999468,303.22159560001455,303.22159560001455,303.22159560001455,303.22159560001455,306.22802669997327,306.22802669997327,307.1278621000238,1,1,0.6253583000507206,0.14993690000846982,None,307.12793179997243,307.12795350002125,None,307.12797749997117,307.1279954999918,None,,,,,,,,,,,,,5,3,0,0,2025-02-27_13h06.15.843,rtmindeye,2024.2.4,59.940610837156555,2025-02-27 13h20.25.335128 -0500
all_stimuli/special515/special_70232.jpg,33,0,33,33,0,,,,,,,,1,0,0,3,1,"[9, 21, 31, 45, 56, 68, 69]",2,1,0.8883339000167325,0.21704299992416054,None,None,None,,,,,,,,,,,0,0,0,0,0,33,33,33,307.1465632999316,,,,,,,,,,,,,,,,,,,,,,,,,,,,,,,,,,,,,,,,307.12815479992423,307.1281986000249,307.14476269995794,307.1465632999316,307.1465632999316,307.1465632999316,307.1465632999316,310.16095349995885,310.16095349995885,311.1444908999838,2,1,0.8883339000167325,0.21704299992416054,None,311.14456449996214,311.1445866,None,311.1446103999624,311.1446282999823,None,,,,,,,,,,,,,5,3,0,0,2025-02-27_13h06.15.843,rtmindeye,2024.2.4,59.940610837156555,2025-02-27 13h20.25.335128 -0500
all_stimuli/unchosen_nsd_1000_images/unchosen_2349_cocoid_71929.png,34,0,34,34,0,,,,,,,,0,0,0,3,1,"[9, 21, 31, 45, 56, 68, 69]",1,1,0.6082715999800712,0.19011480000335723,None,None,None,,,,,,,,,,,0,0,0,0,0,34,34,34,311.2236104999902,,,,,,,,,,,,,,,,,,,,,,,,,,,,,,,,,,,,,,,,311.1447946,311.14489589992445,311.21988650003914,311.2236104999902,311.2236104999902,311.2236104999902,311.2236104999902,314.2275398999918,314.2275398999918,315.1609667999437,1,1,0.6082715999800712,0.19011480000335723,None,315.16103990003467,315.16106139996555,None,315.16108600003645,315.16110329993535,None,,,,,,,,,,,,,5,3,0,0,2025-02-27_13h06.15.843,rtmindeye,2024.2.4,59.940610837156555,2025-02-27 13h20.25.335128 -0500
all_stimuli/shared1000_notspecial/notspecial_63781.png,35,0,35,35,0,,,,,,,,0,0,0,3,1,"[9, 21, 31, 45, 56, 68, 69]",1,1,0.8068710999796167,0.2510574000189081,None,None,None,,,,,,,,,,,0,0,0,0,0,35,35,35,315.1830388000235,,,,,,,,,,,,,,,,,,,,,,,,,,,,,,,,,,,,,,,,315.1612691000337,315.1613133,315.1812294999836,315.1830388000235,315.1830388000235,315.1830388000235,315.1830388000235,318.19434449996334,318.19434449996334,319.1777759999968,1,1,0.8068710999796167,0.2510574000189081,None,319.1778509999858,319.1778731000377,None,319.17789669998456,319.1779142000014,None,,,,,,,,,,,,,5,3,0,0,2025-02-27_13h06.15.843,rtmindeye,2024.2.4,59.940610837156555,2025-02-27 13h20.25.335128 -0500
all_stimuli/MST_pairs/pair_45_w_pagoda2.jpg,36,0,36,36,0,,,,,,,,0,0,0,3,1,"[9, 21, 31, 45, 56, 68, 69]",1,1,0.7040509999496862,0.15499240008648485,None,None,None,,,,,,,,,,,0,0,0,0,0,36,36,36,319.20994670002256,,,,,,,,,,,,,,,,,,,,,,,,,,,,,,,,,,,,,,,,319.17840620002244,319.1784550999291,319.2081178999506,319.20994670002256,319.20994670002256,319.20994670002256,319.20994670002256,322.2108780000126,322.2108780000126,323.1942074999679,1,1,0.7040509999496862,0.15499240008648485,None,323.1942796999356,323.1943021999905,None,323.1943264999427,323.1943442999618,None,,,,,,,,,,,,,5,3,0,0,2025-02-27_13h06.15.843,rtmindeye,2024.2.4,59.940610837156555,2025-02-27 13h20.25.335128 -0500
all_stimuli/unchosen_nsd_1000_images/unchosen_3589_cocoid_11125.png,37,0,37,37,0,,,,,,,,0,0,0,3,1,"[9, 21, 31, 45, 56, 68, 69]",1,1,0.7214663999620825,0.2859896,None,None,None,,,,,,,,,,,0,0,0,0,0,37,37,37,323.2125055999495,,,,,,,,,,,,,,,,,,,,,,,,,,,,,,,,,,,,,,,,323.1945122999605,323.19455659994856,323.21079579996876,323.2125055999495,323.2125055999495,323.2125055999495,323.2125055999495,326.2275889000157,326.2275889000157,327.2110804999247,1,1,0.7214663999620825,0.2859896,None,327.21115290001035,327.2111751999473,None,327.2111991000129,327.2112167000305,None,,,,,,,,,,,,,5,3,0,0,2025-02-27_13h06.15.843,rtmindeye,2024.2.4,59.940610837156555,2025-02-27 13h20.25.335128 -0500
all_stimuli/MST_pairs/pair_13_17_56.png,38,0,38,38,0,,,,,,,,0,0,0,3,1,"[9, 21, 31, 45, 56, 68, 69]",1,1,0.7819327000761405,0.11105379997752607,None,None,None,,,,,,,,,,,0,0,0,0,0,38,38,38,327.23996669996995,,,,,,,,,,,,,,,,,,,,,,,,,,,,,,,,,,,,,,,,327.21138500003144,327.21142950002104,327.23809899995103,327.23996669996995,327.23996669996995,327.23996669996995,327.23996669996995,330.2441692999564,330.2441692999564,331.22760250000283,1,1,0.7819327000761405,0.11105379997752607,None,331.22768010001164,331.22770309995394,None,331.22772740002256,331.22774549992755,None,,,,,,,,,,,,,5,3,0,0,2025-02-27_13h06.15.843,rtmindeye,2024.2.4,59.940610837156555,2025-02-27 13h20.25.335128 -0500
all_stimuli/special515/special_26990.jpg,39,0,39,39,0,,,,,,,,0,0,0,3,1,"[9, 21, 31, 45, 56, 68, 69]",1,1,0.5598746999166906,0.13406950002536178,None,None,None,,,,,,,,,,,0,0,0,0,0,39,39,39,331.2689623000333,,,,,,,,,,,,,,,,,,,,,,,,,,,,,,,,,,,,,,,,331.227914,331.2279660999775,331.26685949997045,331.2689623000333,331.2689623000333,331.2689623000333,331.2689623000333,334.27765489998274,334.27765489998274,335.2444557999261,1,1,0.5598746999166906,0.13406950002536178,None,335.2445359999547,335.2445587000111,None,335.2445835999679,335.24460229999386,None,,,,,,,,,,,,,5,3,0,0,2025-02-27_13h06.15.843,rtmindeye,2024.2.4,59.940610837156555,2025-02-27 13h20.25.335128 -0500
all_stimuli/special515/special_21108.jpg,40,0,40,40,0,,,,,,,,0,0,0,3,1,"[9, 21, 31, 45, 56, 68, 69]",1,1,0.5916501999599859,0.14296950004063547,None,None,None,,,,,,,,,,,0,0,0,0,0,40,40,40,335.2722503999248,,,,,,,,,,,,,,,,,,,,,,,,,,,,,,,,,,,,,,,,335.2447770999279,335.24483620002866,335.27022029994987,335.2722503999248,335.2722503999248,335.2722503999248,335.2722503999248,338.27747219998855,338.27747219998855,339.26093929994386,1,1,0.5916501999599859,0.14296950004063547,None,339.26101329992525,339.2610353999771,None,339.2610599999316,339.26107749994844,None,,,,,,,,,,,,,5,3,0,0,2025-02-27_13h06.15.843,rtmindeye,2024.2.4,59.940610837156555,2025-02-27 13h20.25.335128 -0500
all_stimuli/unchosen_nsd_1000_images/unchosen_2806_cocoid_7728.png,41,0,41,41,0,,,,,,,,0,0,0,3,1,"[9, 21, 31, 45, 56, 68, 69]",1,1,0.6866987999528646,0.16201620001811534,None,None,None,,,,,,,,,,,0,0,0,0,0,41,41,41,339.2972099999897,,,,,,,,,,,,,,,,,,,,,,,,,,,,,,,,,,,,,,,,339.26124829996843,339.2612953999778,339.2952746000374,339.2972099999897,339.2972099999897,339.2972099999897,339.2972099999897,342.3108784999931,342.3108784999931,343.2776749000186,1,1,0.6866987999528646,0.16201620001811534,None,343.27775110001676,343.2777858999325,None,343.27781090000644,343.2778291000286,None,,,,,,,,,,,,,5,3,0,0,2025-02-27_13h06.15.843,rtmindeye,2024.2.4,59.940610837156555,2025-02-27 13h20.25.335128 -0500
all_stimuli/unchosen_nsd_1000_images/unchosen_6314_cocoid_55592.png,42,0,42,42,0,,,,,,,,0,0,0,3,1,"[9, 21, 31, 45, 56, 68, 69]",1,1,0.6434200999792665,0.1948656999738887,None,None,None,,,,,,,,,,,0,0,0,0,0,42,42,42,343.31455050001387,,,,,,,,,,,,,,,,,,,,,,,,,,,,,,,,,,,,,,,,343.27800029993523,343.27805279998574,343.31262250000145,343.31455050001387,343.31455050001387,343.31455050001387,343.31455050001387,346.32774640002754,346.32774640002754,347.29430029995274,1,1,0.6434200999792665,0.1948656999738887,None,347.2943779999623,347.29440020001493,None,347.2944243999664,347.2944415999809,None,,,,,,,,,,,,,5,3,0,0,2025-02-27_13h06.15.843,rtmindeye,2024.2.4,59.940610837156555,2025-02-27 13h20.25.335128 -0500
all_stimuli/MST_pairs/pair_46_w_pool2.jpg,43,0,43,43,0,,,,,,,,1,0,0,3,1,"[9, 21, 31, 45, 56, 68, 69]",2,1,0.8308258999604732,0.20802380004897714,None,None,None,,,,,,,,,,,0,0,0,0,0,43,43,43,347.3110430999659,,,,,,,,,,,,,,,,,,,,,,,,,,,,,,,,,,,,,,,,347.2946111999918,347.29466200002935,347.3069506000029,347.3110430999659,347.3110430999659,347.3110430999659,347.3110430999659,350.3108474999899,350.3108474999899,351.2943616999546,2,1,0.8308258999604732,0.20802380004897714,None,351.2944287999999,351.29445009992924,None,351.29447389999405,351.2944908000063,None,351.32324629998766,351.32324629998766,,,,,,,,,,,5,3,0,0,2025-02-27_13h06.15.843,rtmindeye,2024.2.4,59.940610837156555,2025-02-27 13h20.25.335128 -0500
all_stimuli/unchosen_nsd_1000_images/unchosen_5643_cocoid_52731.png,44,0,44,44,0,,,,,,,,0,0,0,3,1,"[9, 21, 31, 45, 56, 68, 69]",1,1,0.7215812000213191,0.14113330002874136,None,None,None,,,,,,,,,,,0,0,0,0,0,44,44,44,351.32324629998766,,,,,,,,,,,,,,,,,,,,,,,,,,,,,,,,,,,,,,,,351.2946558999829,351.2946944999276,351.321352,351.32324629998766,351.32324629998766,351.32324629998766,351.32324629998766,354.3275297000073,354.3275297000073,355.3111407000106,1,1,0.7215812000213191,0.14113330002874136,None,355.3112133999821,355.31123500003014,None,355.31125869997777,355.31127659999765,None,,,,,,,,,,,,,5,3,0,0,2025-02-27_13h06.15.843,rtmindeye,2024.2.4,59.940610837156555,2025-02-27 13h20.25.335128 -0500
blank.jpg,45,1,45,45,0,,,,,,,,0,0,0,3,1,"[9, 21, 31, 45, 56, 68, 69]",None,0,,,None,None,None,,,,,,,,,,,0,0,0,0,0,45,45,45,355.32762430002913,,,,,,,,,,,,,,,,,,,,,,,,,,,,,,,,,,,,,,,,355.31144039996434,355.3114860999631,355.3211502999766,355.32762430002913,355.32762430002913,355.32762430002913,355.32762430002913,358.3273923000088,358.3273923000088,359.3109813,None,0,,,None,359.3110404999461,359.3110614999896,None,359.31108619994484,359.3111041999655,None,359.33792700001504,359.33792700001504,,,,,,,,,,,5,3,0,0,2025-02-27_13h06.15.843,rtmindeye,2024.2.4,59.940610837156555,2025-02-27 13h20.25.335128 -0500
all_stimuli/unchosen_nsd_1000_images/unchosen_6921_cocoid_25223.png,46,0,46,46,0,,,,,,,,0,0,0,3,1,"[9, 21, 31, 45, 56, 68, 69]",1,1,0.7279946999624372,0.15799870004411787,None,None,None,,,,,,,,,,,0,0,0,0,0,46,46,46,359.33792700001504,,,,,,,,,,,,,,,,,,,,,,,,,,,,,,,,,,,,,,,,359.3112754999893,359.31132909993175,359.33609520003665,359.33792700001504,359.33792700001504,359.33792700001504,359.33792700001504,362.3443018000107,362.3443018000107,363.32753340003546,1,1,0.7279946999624372,0.15799870004411787,None,363.32760770001914,363.32762989995535,None,363.32765370002016,363.32767110003624,None,,,,,,,,,,,,,5,3,0,0,2025-02-27_13h06.15.843,rtmindeye,2024.2.4,59.940610837156555,2025-02-27 13h20.25.335128 -0500
all_stimuli/shared1000_notspecial/notspecial_16063.png,47,0,47,47,0,,,,,,,,0,0,0,3,1,"[9, 21, 31, 45, 56, 68, 69]",1,1,0.6317930999211967,0.17708580009639263,None,None,None,,,,,,,,,,,0,0,0,0,0,47,47,47,363.36207000003196,,,,,,,,,,,,,,,,,,,,,,,,,,,,,,,,,,,,,,,,363.3278428999474,363.32788759993855,363.36024680000264,363.36207000003196,363.36207000003196,363.36207000003196,363.36207000003196,366.3774807,366.3774807,367.34420419996604,1,1,0.6317930999211967,0.17708580009639263,None,367.34427759994287,367.3442997999955,None,367.34432449995074,367.3443429999752,None,,,,,,,,,,,,,5,3,0,0,2025-02-27_13h06.15.843,rtmindeye,2024.2.4,59.940610837156555,2025-02-27 13h20.25.335128 -0500
all_stimuli/unchosen_nsd_1000_images/unchosen_8265_cocoid_63426.png,48,0,48,48,0,,,,,,,,0,0,0,3,1,"[9, 21, 31, 45, 56, 68, 69]",1,1,0.7364957999670878,0.15699579997453839,None,None,None,,,,,,,,,,,0,0,0,0,0,48,48,48,367.39247159997467,,,,,,,,,,,,,,,,,,,,,,,,,,,,,,,,,,,,,,,,367.3445136999944,367.34455889998935,367.3908856000053,367.39247159997467,367.39247159997467,367.39247159997467,367.39247159997467,370.3940079000313,370.3940079000313,371.3607501999941,1,1,0.7364957999670878,0.15699579997453839,None,371.36082139995415,371.3608451000182,None,371.36086899996735,371.36088629998267,None,,,,,,,,,,,,,5,3,0,0,2025-02-27_13h06.15.843,rtmindeye,2024.2.4,59.940610837156555,2025-02-27 13h20.25.335128 -0500
all_stimuli/unchosen_nsd_1000_images/unchosen_3375_cocoid_10255.png,49,0,49,49,0,,,,,,,,0,0,0,3,1,"[9, 21, 31, 45, 56, 68, 69]",1,1,0.6809111000038683,0.11503660003654659,None,None,None,,,,,,,,,,,0,0,0,0,0,49,49,49,371.39195550000295,,,,,,,,,,,,,,,,,,,,,,,,,,,,,,,,,,,,,,,,371.36104729992803,371.36109130003024,371.39009370002896,371.39195550000295,371.39195550000295,371.39195550000295,371.39195550000295,374.39412589999847,374.39412589999847,375.3774748999858,1,1,0.6809111000038683,0.11503660003654659,None,375.3775476999581,375.37757010001224,None,375.37759379995987,375.3776110999752,None,,,,,,,,,,,,,5,3,0,0,2025-02-27_13h06.15.843,rtmindeye,2024.2.4,59.940610837156555,2025-02-27 13h20.25.335128 -0500
all_stimuli/MST_pairs/pair_4_6_89.png,50,0,50,50,0,,,,,,,,0,0,0,3,1,"[9, 21, 31, 45, 56, 68, 69]",1,1,0.8257996,0.11186999990604818,None,None,None,,,,,,,,,,,0,0,0,0,0,50,50,50,375.7141461999854,,,,,,,,,,,,,,,,,,,,,,,,,,,,,,,,,,,,,,,,375.3777804999845,375.3778242999688,375.70999839995056,375.7141461999854,375.7141461999854,375.7141461999854,375.7141461999854,378.7274662000127,378.7274662000127,379.39418619999196,1,1,0.8257996,0.11186999990604818,None,379.39425939996727,379.39428120001685,None,379.3943043999607,379.3943215999752,None,,,,,,,,,,,,,5,3,0,0,2025-02-27_13h06.15.843,rtmindeye,2024.2.4,59.940610837156555,2025-02-27 13h20.25.335128 -0500
all_stimuli/shared1000_notspecial/notspecial_32643.png,51,0,51,51,0,,,,,,,,0,0,0,3,1,"[9, 21, 31, 45, 56, 68, 69]",1,1,0.6878555,0.15091189998202026,None,None,None,,,,,,,,,,,0,0,0,0,0,51,51,51,379.4431665999582,,,,,,,,,,,,,,,,,,,,,,,,,,,,,,,,,,,,,,,,379.3944856999442,379.39453189994674,379.44125219993293,379.4431665999582,379.4431665999582,379.4431665999582,379.4431665999582,382.44404069997836,382.44404069997836,383.41088470001705,1,1,0.6878555,0.15091189998202026,None,383.41095739998855,383.4109790000366,None,383.41100319998804,383.4110204000026,None,,,,,,,,,,,,,5,3,0,0,2025-02-27_13h06.15.843,rtmindeye,2024.2.4,59.940610837156555,2025-02-27 13h20.25.335128 -0500
all_stimuli/unchosen_nsd_1000_images/unchosen_44_cocoid_32916.png,52,0,52,52,0,,,,,,,,0,0,0,3,1,"[9, 21, 31, 45, 56, 68, 69]",1,1,0.6830655999947339,0.14696169993840158,None,None,None,,,,,,,,,,,0,0,0,0,0,52,52,52,383.44288909994066,,,,,,,,,,,,,,,,,,,,,,,,,,,,,,,,,,,,,,,,383.41118609998375,383.41123139997944,383.4410442999797,383.44288909994066,383.44288909994066,383.44288909994066,383.44288909994066,386.4440908000106,386.4440908000106,387.4272973999614,1,1,0.6830655999947339,0.14696169993840158,None,387.4273697999306,387.42739139997866,None,387.4274150999263,387.42743259994313,None,,,,,,,,,,,,,5,3,0,0,2025-02-27_13h06.15.843,rtmindeye,2024.2.4,59.940610837156555,2025-02-27 13h20.25.335128 -0500
all_stimuli/special515/special_7366.jpg,53,0,53,53,0,,,,,,,,0,0,0,3,1,"[9, 21, 31, 45, 56, 68, 69]",1,1,0.7322992000263184,0.15705859998706728,None,None,None,,,,,,,,,,,0,0,0,0,0,53,53,53,387.4536261999747,,,,,,,,,,,,,,,,,,,,,,,,,,,,,,,,,,,,,,,,387.42759869992733,387.4276412000181,387.45183509995695,387.4536261999747,387.4536261999747,387.4536261999747,387.4536261999747,390.4605237999931,390.4605237999931,391.4441550000338,1,1,0.7322992000263184,0.15705859998706728,None,391.4442276000045,391.44424999994226,None,391.44427390000783,391.4442911000224,None,,,,,,,,,,,,,5,3,0,0,2025-02-27_13h06.15.843,rtmindeye,2024.2.4,59.940610837156555,2025-02-27 13h20.25.335128 -0500
all_stimuli/unchosen_nsd_1000_images/unchosen_7746_cocoid_28582.png,54,0,54,54,0,,,,,,,,0,0,0,3,1,"[9, 21, 31, 45, 56, 68, 69]",1,1,0.8322716999100521,0.11307520000264049,None,None,None,,,,,,,,,,,0,0,0,0,0,54,54,54,391.4755734000355,,,,,,,,,,,,,,,,,,,,,,,,,,,,,,,,,,,,,,,,391.4444569000043,391.44450149999466,391.4737247999292,391.4755734000355,391.4755734000355,391.4755734000355,391.4755734000355,394.4775297000306,394.4775297000306,395.4607490999624,1,1,0.8322716999100521,0.11307520000264049,None,395.46082199993543,395.46084399998654,None,395.46086779993493,395.4608848999487,None,,,,,,,,,,,,,5,3,0,0,2025-02-27_13h06.15.843,rtmindeye,2024.2.4,59.940610837156555,2025-02-27 13h20.25.335128 -0500
all_stimuli/MST_pairs/pair_6_9_56.png,55,0,55,55,0,,,,,,,,0,0,0,3,1,"[9, 21, 31, 45, 56, 68, 69]",2,0,1.2024473999626935,0.2009900000412017,None,None,None,,,,,,,,,,,0,0,0,0,0,55,55,55,395.55247859994415,,,,,,,,,,,,,,,,,,,,,,,,,,,,,,,,,,,,,,,,395.46104940003715,395.46109310002066,395.5490110999672,395.55247859994415,395.55247859994415,395.55247859994415,395.55247859994415,398.5606637999881,398.5606637999881,399.4775210999651,2,0,1.2024473999626935,0.2009900000412017,None,399.47759569995105,399.4776172999991,None,399.4776416999521,399.4776586999651,None,,,,,,,,,,,,,5,3,0,0,2025-02-27_13h06.15.843,rtmindeye,2024.2.4,59.940610837156555,2025-02-27 13h20.25.335128 -0500
blank.jpg,56,1,56,56,0,,,,,,,,0,0,0,3,1,"[9, 21, 31, 45, 56, 68, 69]",None,0,,,None,None,None,,,,,,,,,,,0,0,0,0,0,56,56,56,399.49415579997003,,,,,,,,,,,,,,,,,,,,,,,,,,,,,,,,,,,,,,,,399.47783170000184,399.4778837999329,399.4852292999858,399.49415579997003,399.49415579997003,399.49415579997003,399.49415579997003,402.4939097999595,402.4939097999595,403.4775362999644,None,0,,,None,403.47759729996324,403.4776189000113,None,403.4776416999521,403.4776584999636,None,403.5110098,403.5110098,,,,,,,,,,,5,3,0,0,2025-02-27_13h06.15.843,rtmindeye,2024.2.4,59.940610837156555,2025-02-27 13h20.25.335128 -0500
all_stimuli/unchosen_nsd_1000_images/unchosen_3956_cocoid_12732.png,57,0,57,57,0,,,,,,,,0,0,0,3,1,"[9, 21, 31, 45, 56, 68, 69]",1,1,0.8819200999569148,0.19299450004473329,None,None,None,,,,,,,,,,,0,0,0,0,0,57,57,57,403.5110098,,,,,,,,,,,,,,,,,,,,,,,,,,,,,,,,,,,,,,,,403.4778143999865,403.4778529999312,403.5091060999548,403.5110098,403.5110098,403.5110098,403.5110098,406.51073879993055,406.51073879993055,407.4939907999942,1,1,0.8819200999569148,0.19299450004473329,None,407.4940619999543,407.49408330000006,None,407.4941068999469,407.4941239999607,None,,,,,,,,,,,,,5,3,0,0,2025-02-27_13h06.15.843,rtmindeye,2024.2.4,59.940610837156555,2025-02-27 13h20.25.335128 -0500
all_stimuli/special515/special_71894.jpg,58,0,58,58,0,,,,,,,,0,0,0,3,1,"[9, 21, 31, 45, 56, 68, 69]",1,1,0.7051616999087855,0.10084950004238635,None,None,None,,,,,,,,,,,0,0,0,0,0,58,58,58,407.52977150003426,,,,,,,,,,,,,,,,,,,,,,,,,,,,,,,,,,,,,,,,407.4942898999434,407.4943338999292,407.5278495999519,407.52977150003426,407.52977150003426,407.52977150003426,407.52977150003426,410.5440495000221,410.5440495000221,411.51079189998563,1,1,0.7051616999087855,0.10084950004238635,None,411.51086319994647,411.51088469999377,None,411.51090799993835,411.51092479994986,None,,,,,,,,,,,,,5,3,0,0,2025-02-27_13h06.15.843,rtmindeye,2024.2.4,59.940610837156555,2025-02-27 13h20.25.335128 -0500
all_stimuli/unchosen_nsd_1000_images/unchosen_1394_cocoid_69288.png,59,0,59,59,0,,,,,,,,0,0,0,3,1,"[9, 21, 31, 45, 56, 68, 69]",1,1,0.6638632999965921,0.15107839996926486,None,None,None,,,,,,,,,,,0,0,0,0,0,59,59,59,411.53899459994864,,,,,,,,,,,,,,,,,,,,,,,,,,,,,,,,,,,,,,,,411.5110930999508,411.51113929995336,411.53716409998015,411.53899459994864,411.53899459994864,411.53899459994864,411.53899459994864,414.54404389997944,414.54404389997944,415.5272468000185,1,1,0.6638632999965921,0.15107839996926486,None,415.52732220001053,415.5273443,None,415.52736850001384,415.5273864000337,None,,,,,,,,,,,,,5,3,0,0,2025-02-27_13h06.15.843,rtmindeye,2024.2.4,59.940610837156555,2025-02-27 13h20.25.335128 -0500
all_stimuli/shared1000_notspecial/notspecial_24317.png,60,0,60,60,0,,,,,,,,0,0,0,3,1,"[9, 21, 31, 45, 56, 68, 69]",1,1,0.7704979999689385,0.1408917000517249,None,None,None,,,,,,,,,,,0,0,0,0,0,60,60,60,415.56638049997855,,,,,,,,,,,,,,,,,,,,,,,,,,,,,,,,,,,,,,,,415.527559,415.5276071,415.56454409996513,415.56638049997855,415.56638049997855,415.56638049997855,415.56638049997855,418.5773480000207,418.5773480000207,419.5440495000221,1,1,0.7704979999689385,0.1408917000517249,None,419.5441210999852,419.54414330003783,None,419.54416679998394,419.5441843000008,None,,,,,,,,,,,,,5,3,0,0,2025-02-27_13h06.15.843,rtmindeye,2024.2.4,59.940610837156555,2025-02-27 13h20.25.335128 -0500
all_stimuli/unchosen_nsd_1000_images/unchosen_7714_cocoid_28449.png,61,0,61,61,0,,,,,,,,0,0,0,3,1,"[9, 21, 31, 45, 56, 68, 69]",1,1,0.5823477,0.17415930004790425,None,None,None,,,,,,,,,,,0,0,0,0,0,61,61,61,419.63141829997767,,,,,,,,,,,,,,,,,,,,,,,,,,,,,,,,,,,,,,,,419.5443502999842,419.5443948999746,419.62783599994145,419.63141829997767,419.63141829997767,419.63141829997767,419.63141829997767,422.6441373999696,422.6441373999696,423.56072419998236,1,1,0.5823477,0.17415930004790425,None,423.5607961999485,423.5608177999966,None,423.56084219994955,423.56085949996486,None,,,,,,,,,,,,,5,3,0,0,2025-02-27_13h06.15.843,rtmindeye,2024.2.4,59.940610837156555,2025-02-27 13h20.25.335128 -0500
all_stimuli/shared1000_notspecial/notspecial_57822.png,62,0,62,62,0,,,,,,,,0,0,0,3,1,"[9, 21, 31, 45, 56, 68, 69]",1,1,0.8399966999422759,0.10709910001605749,None,None,None,,,,,,,,,,,0,0,0,0,0,62,62,62,423.6117963999277,,,,,,,,,,,,,,,,,,,,,,,,,,,,,,,,,,,,,,,,423.56103079998866,423.5610743999714,423.6101559,423.6117963999277,423.6117963999277,423.6117963999277,423.6117963999277,426.6273468999425,426.6273468999425,427.5773689999478,1,1,0.8399966999422759,0.10709910001605749,None,427.5774428999284,427.5774644999765,None,427.57748859992716,427.57750569994096,None,,,,,,,,,,,,,5,3,0,0,2025-02-27_13h06.15.843,rtmindeye,2024.2.4,59.940610837156555,2025-02-27 13h20.25.335128 -0500
all_stimuli/unchosen_nsd_1000_images/unchosen_1740_cocoid_37522.png,63,0,63,63,0,,,,,,,,0,0,0,3,1,"[9, 21, 31, 45, 56, 68, 69]",1,1,0.5520117999985814,0.11890890006907284,None,None,None,,,,,,,,,,,0,0,0,0,0,63,63,63,427.6068504,,,,,,,,,,,,,,,,,,,,,,,,,,,,,,,,,,,,,,,,427.57767289993353,427.57771789992694,427.60514080000576,427.6068504,427.6068504,427.6068504,427.6068504,430.6109008999774,430.6109008999774,431.5778299999656,1,1,0.5520117999985814,0.11890890006907284,None,431.57789980003145,431.5779212999623,None,431.5779450000264,431.57796239992604,None,,,,,,,,,,,,,5,3,0,0,2025-02-27_13h06.15.843,rtmindeye,2024.2.4,59.940610837156555,2025-02-27 13h20.25.335128 -0500
all_stimuli/special515/special_28349.jpg,64,0,64,64,0,,,,,,,,0,0,0,3,1,"[9, 21, 31, 45, 56, 68, 69]",1,1,0.6321878000162542,0.12617299996782094,None,None,None,,,,,,,,,,,0,0,0,0,0,64,64,64,431.61259109992534,,,,,,,,,,,,,,,,,,,,,,,,,,,,,,,,,,,,,,,,431.57812800002284,431.57817480002996,431.61079679999966,431.61259109992534,431.61259109992534,431.61259109992534,431.61259109992534,434.6277315999614,434.6277315999614,435.5943424999714,1,1,0.6321878000162542,0.12617299996782094,None,435.5944130999269,435.59443469997495,None,435.59445780003443,435.59447479993105,None,,,,,,,,,,,,,5,3,0,0,2025-02-27_13h06.15.843,rtmindeye,2024.2.4,59.940610837156555,2025-02-27 13h20.25.335128 -0500
all_stimuli/unchosen_nsd_1000_images/unchosen_301_cocoid_33575.png,65,0,65,65,0,,,,,,,,0,0,0,3,1,"[9, 21, 31, 45, 56, 68, 69]",1,1,0.6107481999788433,0.16284310002811253,None,None,None,,,,,,,,,,,0,0,0,0,0,65,65,65,435.6252473000204,,,,,,,,,,,,,,,,,,,,,,,,,,,,,,,,,,,,,,,,435.59463860001415,435.59468209999613,435.6233512000181,435.6252473000204,435.6252473000204,435.6252473000204,435.6252473000204,438.6274951000232,438.6274951000232,439.61101600003894,1,1,0.6107481999788433,0.16284310002811253,None,439.6110872999998,439.61110829992685,None,439.6111480999971,439.6111662000185,None,,,,,,,,,,,,,5,3,0,0,2025-02-27_13h06.15.843,rtmindeye,2024.2.4,59.940610837156555,2025-02-27 13h20.25.335128 -0500
all_stimuli/unchosen_nsd_1000_images/unchosen_1035_cocoid_68306.png,66,0,66,66,0,,,,,,,,0,0,0,3,1,"[9, 21, 31, 45, 56, 68, 69]",1,1,0.6239364999346435,0.17487740004435182,None,None,None,,,,,,,,,,,0,0,0,0,0,66,66,66,439.6469894000329,,,,,,,,,,,,,,,,,,,,,,,,,,,,,,,,,,,,,,,,439.6113323000027,439.6113767999923,439.6453069000272,439.6469894000329,439.6469894000329,439.6469894000329,439.6469894000329,442.6607640000293,442.6607640000293,443.62775089999195,1,1,0.6239364999346435,0.17487740004435182,None,443.62781939993147,443.6278402999742,None,443.62786419992335,443.6278813999379,None,,,,,,,,,,,,,5,3,0,0,2025-02-27_13h06.15.843,rtmindeye,2024.2.4,59.940610837156555,2025-02-27 13h20.25.335128 -0500
all_stimuli/unchosen_nsd_1000_images/unchosen_898_cocoid_67958.png,67,0,67,67,0,,,,,,,,0,0,0,3,1,"[9, 21, 31, 45, 56, 68, 69]",1,1,0.6314533000113443,0.13297509995754808,None,None,None,,,,,,,,,,,0,0,0,0,0,67,67,67,443.6716286999872,,,,,,,,,,,,,,,,,,,,,,,,,,,,,,,,,,,,,,,,443.6280385,443.6280854999786,443.670038,443.6716286999872,443.6716286999872,443.6716286999872,443.6716286999872,446.67775419994723,446.67775419994723,447.64430679997895,1,1,0.6314533000113443,0.13297509995754808,None,447.64437719993293,447.64439839997794,None,447.64442239992786,447.6444395999424,None,,,,,,,,,,,,,5,3,0,0,2025-02-27_13h06.15.843,rtmindeye,2024.2.4,59.940610837156555,2025-02-27 13h20.25.335128 -0500
blank.jpg,68,1,68,68,0,,,,,,,,0,0,0,3,1,"[9, 21, 31, 45, 56, 68, 69]",None,0,,,None,None,None,,,,,,,,,,,0,0,0,0,0,68,68,68,447.6610622999724,,,,,,,,,,,,,,,,,,,,,,,,,,,,,,,,,,,,,,,,447.64462989999447,447.6447210999904,447.6522697,447.6610622999724,447.6610622999724,447.6610622999724,447.6610622999724,450.6609672999475,450.6609672999475,451.6443861000007,None,0,,,None,451.64444369997364,451.64446390001103,None,451.6444867999526,451.64450389996637,None,451.6612327999901,451.6612327999901,,,,,,,,,,,5,3,0,0,2025-02-27_13h06.15.843,rtmindeye,2024.2.4,59.940610837156555,2025-02-27 13h20.25.335128 -0500
blank.jpg,69,1,69,69,0,,,,,,,,0,1,0,3,0,"[9, 21, 31, 45, 56, 68, 69]",None,0,,,None,1,equal,43.39189830003306,None,21.174622599966824,None,,,,,,,0,0,0,0,0,69,69,69,451.6612327999901,,,,,,,,,,,,,,,,,,,,,,,,,,,,,,,,,,,,,,,,451.6446528999368,451.6446900999872,451.6507413999643,451.6612327999901,451.6612327999901,451.6612327999901,451.6612327999901,454.6608606999507,454.6608606999507,455.64435750001576,None,0,,,None,455.6612469999818,499.06092840002384,1,499.06098790001124,520.2608655999647,equal,455.6631045999238,455.6631045999238,455.6631045999238,455.6631045999238,43.39189830003306,None,499.0773399999598,499.0773399999598,21.174622599966824,None,,,5,3,0,0,2025-02-27_13h06.15.843,rtmindeye,2024.2.4,59.940610837156555,2025-02-27 13h20.25.335128 -0500
,,,0,0,0,,,,,,,,,,,,,,,,,,,,,,,,,,,,,,,0,0,0,0,,,,,,,,,,,,,,,,,,,,,,,,,,,,,,,,,,,,,,,,,,,,,,,,,,,,,,,,,,,,,,,,,,,,,,,,,,,,,,5,3,0,0,2025-02-27_13h06.15.843,rtmindeye,2024.2.4,59.940610837156555,2025-02-27 13h20.25.335128 -0500
all_stimuli/shared1000_notspecial/notspecial_56418.png,0,0,0,0,0,,,,,,,,0,0,1,3,1,"[9, 21, 31, 45, 56, 68, 69]",1,1,0.6421204000944272,0.1638065999140963,None,None,None,,,,,,,,,,,1,0,1,0,0,0,0,0,520.3919223,,,,,,,,,,,,,,,,,,,,,,,,,,,,,,,,,,,,,,,,520.2987898000283,520.2988958000205,520.3881952000083,520.3919223,520.3919223,520.3919223,520.3919223,523.3941213999642,523.3941213999642,524.3108292,1,1,0.6421204000944272,0.1638065999140963,None,524.3109014999354,524.3109227999812,None,524.3109467999311,524.3109643,None,,,,,,,,,,,,,5,3,0,0,2025-02-27_13h06.15.843,rtmindeye,2024.2.4,59.940610837156555,2025-02-27 13h20.25.335128 -0500
all_stimuli/shared1000_notspecial/notspecial_65821.png,1,0,1,1,0,,,,,,,,0,0,1,3,1,"[9, 21, 31, 45, 56, 68, 69]",1,1,0.5780921999830753,0.11305970000103116,None,None,None,,,,,,,,,,,1,0,1,0,0,1,1,1,524.3308410999598,,,,,,,,,,,,,,,,,,,,,,,,,,,,,,,,,,,,,,,,524.3111313,524.3111744000344,524.3292132000206,524.3308410999598,524.3308410999598,524.3308410999598,524.3308410999598,527.3441941000056,527.3441941000056,528.3276731999358,1,1,0.5780921999830753,0.11305970000103116,None,528.3277460000245,528.3277665999485,None,528.3277897,528.3278068000218,None,,,,,,,,,,,,,5,3,0,0,2025-02-27_13h06.15.843,rtmindeye,2024.2.4,59.940610837156555,2025-02-27 13h20.25.335128 -0500
all_stimuli/unchosen_nsd_1000_images/unchosen_1314_cocoid_36318.png,2,0,2,2,0,,,,,,,,0,0,1,3,1,"[9, 21, 31, 45, 56, 68, 69]",1,1,0.6474684999557212,0.13880660000722855,None,None,None,,,,,,,,,,,1,0,1,0,0,2,2,2,528.3705592,,,,,,,,,,,,,,,,,,,,,,,,,,,,,,,,,,,,,,,,528.3279687,528.3280217000283,528.3689287,528.3705592,528.3705592,528.3705592,528.3705592,531.3772909999825,531.3772909999825,532.3442515,1,1,0.6474684999557212,0.13880660000722855,None,532.3443225999363,532.3443432999775,None,532.3443663000362,532.3443833999336,None,,,,,,,,,,,,,5,3,0,0,2025-02-27_13h06.15.843,rtmindeye,2024.2.4,59.940610837156555,2025-02-27 13h20.25.335128 -0500
all_stimuli/special515/special_21192.jpg,3,0,3,3,0,,,,,,,,0,0,1,3,1,"[9, 21, 31, 45, 56, 68, 69]",1,1,0.48472089995630085,0.12790640001185238,None,None,None,,,,,,,,,,,1,0,1,0,0,3,3,3,532.4531900000293,,,,,,,,,,,,,,,,,,,,,,,,,,,,,,,,,,,,,,,,532.3445423999801,532.3445855999598,532.4496254000114,532.4531900000293,532.4531900000293,532.4531900000293,532.4531900000293,535.4608371,535.4608371,536.3606971,1,1,0.48472089995630085,0.12790640001185238,None,536.3607693000231,536.3607900999486,None,536.3608145,536.3608316000318,None,,,,,,,,,,,,,5,3,0,0,2025-02-27_13h06.15.843,rtmindeye,2024.2.4,59.940610837156555,2025-02-27 13h20.25.335128 -0500
all_stimuli/unchosen_nsd_1000_images/unchosen_5166_cocoid_50772.png,4,0,4,4,0,,,,,,,,0,0,1,3,1,"[9, 21, 31, 45, 56, 68, 69]",1,1,0.6632044999860227,0.1251941000809893,None,None,None,,,,,,,,,,,1,0,1,0,0,4,4,4,536.4325429999735,,,,,,,,,,,,,,,,,,,,,,,,,,,,,,,,,,,,,,,,536.3609966000076,536.3610405999934,536.4290058999322,536.4325429999735,536.4325429999735,536.4325429999735,536.4325429999735,539.4441555000376,539.4441555000376,540.3773942999542,1,1,0.6632044999860227,0.1251941000809893,None,540.3774663000368,540.3774868999608,None,540.3775103000225,540.3775275000371,None,,,,,,,,,,,,,5,3,0,0,2025-02-27_13h06.15.843,rtmindeye,2024.2.4,59.940610837156555,2025-02-27 13h20.25.335128 -0500
all_stimuli/unchosen_nsd_1000_images/unchosen_2822_cocoid_7813.png,5,0,5,5,0,,,,,,,,0,0,1,3,1,"[9, 21, 31, 45, 56, 68, 69]",1,1,0.5675998000660911,0.13685379992239177,None,None,None,,,,,,,,,,,1,0,1,0,0,5,5,5,540.4154250000138,,,,,,,,,,,,,,,,,,,,,,,,,,,,,,,,,,,,,,,,540.3776932000183,540.3777369000018,540.4137786999345,540.4154250000138,540.4154250000138,540.4154250000138,540.4154250000138,543.4275017000036,543.4275017000036,544.3942277999595,1,1,0.5675998000660911,0.13685379992239177,None,544.3942981000291,544.3943192999577,None,544.3943427000195,544.3943601000356,None,,,,,,,,,,,,,5,3,0,0,2025-02-27_13h06.15.843,rtmindeye,2024.2.4,59.940610837156555,2025-02-27 13h20.25.335128 -0500
all_stimuli/special515/special_67295.jpg,6,0,6,6,0,,,,,,,,1,0,1,3,1,"[9, 21, 31, 45, 56, 68, 69]",1,0,0.6557248000754043,0.1727252999553457,None,None,None,,,,,,,,,,,1,0,1,0,0,6,6,6,544.4152730000205,,,,,,,,,,,,,,,,,,,,,,,,,,,,,,,,,,,,,,,,544.3945252000121,544.3945685999934,544.4133577999892,544.4152730000205,544.4152730000205,544.4152730000205,544.4152730000205,547.4273544999305,547.4273544999305,548.4105373999337,1,0,0.6557248000754043,0.1727252999553457,None,548.4106076000025,548.4106287999311,None,548.4106528999982,548.41067,None,,,,,,,,,,,,,5,3,0,0,2025-02-27_13h06.15.843,rtmindeye,2024.2.4,59.940610837156555,2025-02-27 13h20.25.335128 -0500
all_stimuli/shared1000_notspecial/notspecial_69442.png,7,0,7,7,0,,,,,,,,0,0,1,3,1,"[9, 21, 31, 45, 56, 68, 69]",1,1,0.5484908999642357,0.13386699999682605,None,None,None,,,,,,,,,,,1,0,1,0,0,7,7,7,548.4685018999735,,,,,,,,,,,,,,,,,,,,,,,,,,,,,,,,,,,,,,,,548.4108278999338,548.4108712000307,548.4666926999344,548.4685018999735,548.4685018999735,548.4685018999735,548.4685018999735,551.4772172999801,551.4772172999801,552.4272748000221,1,1,0.5484908999642357,0.13386699999682605,None,552.4273447999731,552.4273654000135,None,552.4273893999634,552.4274066999787,None,,,,,,,,,,,,,5,3,0,0,2025-02-27_13h06.15.843,rtmindeye,2024.2.4,59.940610837156555,2025-02-27 13h20.25.335128 -0500
all_stimuli/special515/special_42166.jpg,8,0,8,8,0,,,,,,,,0,0,1,3,1,"[9, 21, 31, 45, 56, 68, 69]",1,1,0.5835540998959914,0.13506060000509024,None,None,None,,,,,,,,,,,1,0,1,0,0,8,8,8,552.4572635,,,,,,,,,,,,,,,,,,,,,,,,,,,,,,,,,,,,,,,,552.4275672000367,552.4276108000195,552.4553644999396,552.4572635,552.4572635,552.4572635,552.4572635,555.4603115000064,555.4603115000064,556.4440392999677,1,1,0.5835540998959914,0.13506060000509024,None,556.4441125,556.4441334999865,None,556.4441570999334,556.4441742999479,None,,,,,,,,,,,,,5,3,0,0,2025-02-27_13h06.15.843,rtmindeye,2024.2.4,59.940610837156555,2025-02-27 13h20.25.335128 -0500
blank.jpg,9,1,9,9,0,,,,,,,,0,0,1,3,1,"[9, 21, 31, 45, 56, 68, 69]",None,0,,,None,None,None,,,,,,,,,,,1,0,1,0,0,9,9,9,556.4604426999576,,,,,,,,,,,,,,,,,,,,,,,,,,,,,,,,,,,,,,,,556.4443456999725,556.4443904999644,556.4574103000341,556.4604426999576,556.4604426999576,556.4604426999576,556.4604426999576,559.4605915999273,559.4605915999273,560.4442633999279,None,0,,,None,560.4443254999351,560.4443447999656,None,560.4443689000327,560.4443858999293,None,560.5269514999818,560.5269514999818,,,,,,,,,,,5,3,0,0,2025-02-27_13h06.15.843,rtmindeye,2024.2.4,59.940610837156555,2025-02-27 13h20.25.335128 -0500
all_stimuli/unchosen_nsd_1000_images/unchosen_1191_cocoid_3177.png,10,0,10,10,0,,,,,,,,0,0,1,3,1,"[9, 21, 31, 45, 56, 68, 69]",1,1,0.8260658000363037,0.12986550002824515,None,None,None,,,,,,,,,,,1,0,1,0,0,10,10,10,560.5269514999818,,,,,,,,,,,,,,,,,,,,,,,,,,,,,,,,,,,,,,,,560.4445471999934,560.4445851999335,560.5235479000257,560.5269514999818,560.5269514999818,560.5269514999818,560.5269514999818,563.5272941000294,563.5272941000294,564.4607789999573,1,1,0.8260658000363037,0.12986550002824515,None,564.4608492000261,564.4608703999547,None,564.4608942000195,564.4609114000341,None,,,,,,,,,,,,,5,3,0,0,2025-02-27_13h06.15.843,rtmindeye,2024.2.4,59.940610837156555,2025-02-27 13h20.25.335128 -0500
all_stimuli/MST_pairs/pair_5_8_0.png,11,0,11,11,0,,,,,,,,0,0,1,3,1,"[9, 21, 31, 45, 56, 68, 69]",1,1,0.5738604000071064,0.19410249998327345,None,None,None,,,,,,,,,,,1,0,1,0,0,11,11,11,564.4841586999828,,,,,,,,,,,,,,,,,,,,,,,,,,,,,,,,,,,,,,,,564.4610713999718,564.4611182999797,564.4824890999589,564.4841586999828,564.4841586999828,564.4841586999828,564.4841586999828,567.4941166000208,567.4941166000208,568.4772195999976,1,1,0.5738604000071064,0.19410249998327345,None,568.4772899999516,568.4773106,None,568.4773336999351,568.4773506999481,None,,,,,,,,,,,,,5,3,0,0,2025-02-27_13h06.15.843,rtmindeye,2024.2.4,59.940610837156555,2025-02-27 13h20.25.335128 -0500
all_stimuli/unchosen_nsd_1000_images/unchosen_3458_cocoid_10594.png,12,0,12,12,0,,,,,,,,0,0,1,3,1,"[9, 21, 31, 45, 56, 68, 69]",1,1,0.7178951000096276,0.19992089993320405,None,None,None,,,,,,,,,,,1,0,1,0,0,12,12,12,568.5419017999666,,,,,,,,,,,,,,,,,,,,,,,,,,,,,,,,,,,,,,,,568.4775151000358,568.4775583000155,568.5385639999295,568.5419017999666,568.5419017999666,568.5419017999666,568.5419017999666,571.5441227999981,571.5441227999981,572.4942459999584,1,1,0.7178951000096276,0.19992089993320405,None,572.4943169000326,572.4943374999566,None,572.4943618000252,572.4943797999294,None,,,,,,,,,,,,,5,3,0,0,2025-02-27_13h06.15.843,rtmindeye,2024.2.4,59.940610837156555,2025-02-27 13h20.25.335128 -0500
all_stimuli/MST_pairs/pair_3_5_100.png,13,0,13,13,0,,,,,,,,0,0,1,3,1,"[9, 21, 31, 45, 56, 68, 69]",1,1,0.7851656000129879,0.13314429996535182,None,None,None,,,,,,,,,,,1,0,1,0,0,13,13,13,572.5245434999233,,,,,,,,,,,,,,,,,,,,,,,,,,,,,,,,,,,,,,,,572.4945431000087,572.4945861999877,572.5229010999901,572.5245434999233,572.5245434999233,572.5245434999233,572.5245434999233,575.5272331000306,575.5272331000306,576.5107693999307,1,1,0.7851656000129879,0.13314429996535182,None,576.5108405000065,576.5108611999312,None,576.5108842999907,576.5109013000038,None,,,,,,,,,,,,,5,3,0,0,2025-02-27_13h06.15.843,rtmindeye,2024.2.4,59.940610837156555,2025-02-27 13h20.25.335128 -0500
all_stimuli/unchosen_nsd_1000_images/unchosen_4824_cocoid_16567.png,14,0,14,14,0,,,,,,,,0,0,1,3,1,"[9, 21, 31, 45, 56, 68, 69]",1,1,0.6116715999087319,0.1610934000927955,None,None,None,,,,,,,,,,,1,0,1,0,0,14,14,14,576.5302297000308,,,,,,,,,,,,,,,,,,,,,,,,,,,,,,,,,,,,,,,,576.5110693000024,576.5111126999836,576.5285779,576.5302297000308,576.5302297000308,576.5302297000308,576.5302297000308,579.5440807000268,579.5440807000268,580.5273936999729,1,1,0.6116715999087319,0.1610934000927955,None,580.5274664999451,580.5274868999841,None,580.5275102999294,580.5275275,None,,,,,,,,,,,,,5,3,0,0,2025-02-27_13h06.15.843,rtmindeye,2024.2.4,59.940610837156555,2025-02-27 13h20.25.335128 -0500
all_stimuli/MST_pairs/pair_1_3_89.png,15,0,15,15,0,,,,,,,,0,0,1,3,1,"[9, 21, 31, 45, 56, 68, 69]",1,1,0.7491598000051454,0.16305820003617555,None,None,None,,,,,,,,,,,1,0,1,0,0,15,15,15,580.5596634999383,,,,,,,,,,,,,,,,,,,,,,,,,,,,,,,,,,,,,,,,580.5277008999838,580.5277443999657,580.5578986000037,580.5596634999383,580.5596634999383,580.5596634999383,580.5596634999383,583.5605378,583.5605378,584.5440020000096,1,1,0.7491598000051454,0.16305820003617555,None,584.5440724999644,584.5440935000079,None,584.5441168999532,584.544134,None,,,,,,,,,,,,,5,3,0,0,2025-02-27_13h06.15.843,rtmindeye,2024.2.4,59.940610837156555,2025-02-27 13h20.25.335128 -0500
all_stimuli/unchosen_nsd_1000_images/unchosen_8536_cocoid_64603.png,16,0,16,16,0,,,,,,,,0,0,1,3,1,"[9, 21, 31, 45, 56, 68, 69]",1,1,0.9973411000100896,0.15422959998250008,None,None,None,,,,,,,,,,,1,0,1,0,0,16,16,16,584.5813988000154,,,,,,,,,,,,,,,,,,,,,,,,,,,,,,,,,,,,,,,,584.5442943000235,584.5443377000047,584.5797683,584.5813988000154,584.5813988000154,584.5813988000154,584.5813988000154,587.5939716999419,587.5939716999419,588.5605972999474,1,1,0.9973411000100896,0.15422959998250008,None,588.5606675000163,588.5606875999365,None,588.5607117000036,588.5607290000189,None,,,,,,,,,,,,,5,3,0,0,2025-02-27_13h06.15.843,rtmindeye,2024.2.4,59.940610837156555,2025-02-27 13h20.25.335128 -0500
all_stimuli/special515/special_31659.jpg,17,0,17,17,0,,,,,,,,0,0,1,3,1,"[9, 21, 31, 45, 56, 68, 69]",1,1,0.6192482,0.13299820001702756,None,None,None,,,,,,,,,,,1,0,1,0,0,17,17,17,588.5924389000284,,,,,,,,,,,,,,,,,,,,,,,,,,,,,,,,,,,,,,,,588.5608889999567,588.5609324999386,588.5903918,588.5924389000284,588.5924389000284,588.5924389000284,588.5924389000284,591.5938772000372,591.5938772000372,592.5772628999548,1,1,0.6192482,0.13299820001702756,None,592.5773336000275,592.5773540999508,None,592.5773774000118,592.5773946000263,None,,,,,,,,,,,,,5,3,0,0,2025-02-27_13h06.15.843,rtmindeye,2024.2.4,59.940610837156555,2025-02-27 13h20.25.335128 -0500
all_stimuli/MST_pairs/pair_17_21_33.png,18,0,18,18,0,,,,,,,,0,0,1,3,1,"[9, 21, 31, 45, 56, 68, 69]",1,1,0.8007384999655187,0.1610859000356868,None,None,None,,,,,,,,,,,1,0,1,0,0,18,18,18,592.6810863999417,,,,,,,,,,,,,,,,,,,,,,,,,,,,,,,,,,,,,,,,592.5775560999755,592.5775995999575,592.6775945000118,592.6810863999417,592.6810863999417,592.6810863999417,592.6810863999417,595.6939436999382,595.6939436999382,596.5940879000118,1,1,0.8007384999655187,0.1610859000356868,None,596.5941584999673,596.5941795000108,None,596.5942023999523,596.5942193999654,None,,,,,,,,,,,,,5,3,0,0,2025-02-27_13h06.15.843,rtmindeye,2024.2.4,59.940610837156555,2025-02-27 13h20.25.335128 -0500
all_stimuli/unchosen_nsd_1000_images/unchosen_7091_cocoid_25951.png,19,0,19,19,0,,,,,,,,0,0,1,3,1,"[9, 21, 31, 45, 56, 68, 69]",1,1,0.5303111999528483,0.17818130005616695,None,None,None,,,,,,,,,,,1,0,1,0,0,19,19,19,596.6165075999452,,,,,,,,,,,,,,,,,,,,,,,,,,,,,,,,,,,,,,,,596.5943872999633,596.5944305,596.6149414000101,596.6165075999452,596.6165075999452,596.6165075999452,596.6165075999452,599.6269894000143,599.6269894000143,600.6106845999602,1,1,0.5303111999528483,0.17818130005616695,None,600.6107561999233,600.6107774999691,None,600.6108008000301,600.6108181,None,,,,,,,,,,,,,5,3,0,0,2025-02-27_13h06.15.843,rtmindeye,2024.2.4,59.940610837156555,2025-02-27 13h20.25.335128 -0500
all_stimuli/special515/special_30856.jpg,20,0,20,20,0,,,,,,,,0,0,1,3,1,"[9, 21, 31, 45, 56, 68, 69]",1,1,0.5717311999760568,0.12712840002495795,None,None,None,,,,,,,,,,,1,0,1,0,0,20,20,20,600.6411071999464,,,,,,,,,,,,,,,,,,,,,,,,,,,,,,,,,,,,,,,,600.6109830000205,600.6110268000048,600.6393479,600.6411071999464,600.6411071999464,600.6411071999464,600.6411071999464,603.6440835000249,603.6440835000249,604.6270467999857,1,1,0.5717311999760568,0.12712840002495795,None,604.6271172999404,604.6271381999832,None,604.6271615999285,604.6271787999431,None,,,,,,,,,,,,,5,3,0,0,2025-02-27_13h06.15.843,rtmindeye,2024.2.4,59.940610837156555,2025-02-27 13h20.25.335128 -0500
blank.jpg,21,1,21,21,0,,,,,,,,0,0,1,3,1,"[9, 21, 31, 45, 56, 68, 69]",None,0,,,None,None,None,,,,,,,,,,,1,0,1,0,0,21,21,21,604.6438389,,,,,,,,,,,,,,,,,,,,,,,,,,,,,,,,,,,,,,,,604.6273386999965,604.6273822999792,604.6369936999399,604.6438389,604.6438389,604.6438389,604.6438389,607.6440753999632,607.6440753999632,608.6272986,None,0,,,None,608.6273593000369,608.6273798999609,None,608.627404,608.6274205000373,None,608.6586569999345,608.6586569999345,,,,,,,,,,,5,3,0,0,2025-02-27_13h06.15.843,rtmindeye,2024.2.4,59.940610837156555,2025-02-27 13h20.25.335128 -0500
all_stimuli/special515/special_15364.jpg,22,0,22,22,0,,,,,,,,0,0,1,3,1,"[9, 21, 31, 45, 56, 68, 69]",1,1,0.5841457999777049,0.12716809997800738,None,None,None,,,,,,,,,,,1,0,1,0,0,22,22,22,608.6586569999345,,,,,,,,,,,,,,,,,,,,,,,,,,,,,,,,,,,,,,,,608.6275810999796,608.6276195000391,608.6568905999884,608.6586569999345,608.6586569999345,608.6586569999345,608.6586569999345,611.6604552000063,611.6604552000063,612.6441637999378,1,1,0.5841457999777049,0.12716809997800738,None,612.6442350000143,612.6442554999376,None,612.6442788999993,612.6442957000108,None,,,,,,,,,,,,,5,3,0,0,2025-02-27_13h06.15.843,rtmindeye,2024.2.4,59.940610837156555,2025-02-27 13h20.25.335128 -0500
all_stimuli/unchosen_nsd_1000_images/unchosen_4905_cocoid_49654.png,23,0,23,23,0,,,,,,,,0,0,1,3,1,"[9, 21, 31, 45, 56, 68, 69]",1,1,0.6613412000006065,0.1308833999792114,None,None,None,,,,,,,,,,,1,0,1,0,0,23,23,23,612.6864398999605,,,,,,,,,,,,,,,,,,,,,,,,,,,,,,,,,,,,,,,,612.6444566999562,612.6445000999374,612.684771,612.6864398999605,612.6864398999605,612.6864398999605,612.6864398999605,615.6940020000329,615.6940020000329,616.6605709999567,1,1,0.6613412000006065,0.1308833999792114,None,616.6606423000339,616.6606634999625,None,616.6606872000266,616.6607048999285,None,,,,,,,,,,,,,5,3,0,0,2025-02-27_13h06.15.843,rtmindeye,2024.2.4,59.940610837156555,2025-02-27 13h20.25.335128 -0500
all_stimuli/shared1000_notspecial/notspecial_48618.png,24,0,24,24,0,,,,,,,,0,0,1,3,1,"[9, 21, 31, 45, 56, 68, 69]",1,1,0.6689411000115797,0.11802469997201115,None,None,None,,,,,,,,,,,1,0,1,0,0,24,24,24,616.6958845999325,,,,,,,,,,,,,,,,,,,,,,,,,,,,,,,,,,,,,,,,616.6608679000055,616.6609112,616.6942709,616.6958845999325,616.6958845999325,616.6958845999325,616.6958845999325,619.7105715000071,619.7105715000071,620.6775696999393,1,1,0.6689411000115797,0.11802469997201115,None,620.6776416000212,620.6776632999536,None,620.6776873000199,620.6777047,None,,,,,,,,,,,,,5,3,0,0,2025-02-27_13h06.15.843,rtmindeye,2024.2.4,59.940610837156555,2025-02-27 13h20.25.335128 -0500
all_stimuli/unchosen_nsd_1000_images/unchosen_4034_cocoid_45848.png,25,0,25,25,0,,,,,,,,0,0,1,3,1,"[9, 21, 31, 45, 56, 68, 69]",1,1,0.5386402000440285,0.1328679999569431,None,None,None,,,,,,,,,,,1,0,1,0,0,25,25,25,620.7143331000116,,,,,,,,,,,,,,,,,,,,,,,,,,,,,,,,,,,,,,,,620.6778707000194,620.6779169,620.7126997000305,620.7143331000116,620.7143331000116,620.7143331000116,620.7143331000116,623.7272374000167,623.7272374000167,624.6938455000054,1,1,0.5386402000440285,0.1328679999569431,None,624.6939171999693,624.6939385000151,None,624.6939627999673,624.6939799999818,None,,,,,,,,,,,,,5,3,0,0,2025-02-27_13h06.15.843,rtmindeye,2024.2.4,59.940610837156555,2025-02-27 13h20.25.335128 -0500
all_stimuli/special515/special_25746.jpg,26,0,26,26,0,,,,,,,,0,0,1,3,1,"[9, 21, 31, 45, 56, 68, 69]",1,1,0.4780929998960346,0.1416456000879407,None,None,None,,,,,,,,,,,1,0,1,0,0,26,26,26,624.7749308999628,,,,,,,,,,,,,,,,,,,,,,,,,,,,,,,,,,,,,,,,624.6941459999653,624.6941901999526,624.7715020999312,624.7749308999628,624.7749308999628,624.7749308999628,624.7749308999628,627.7771434999304,627.7771434999304,628.7106768,1,1,0.4780929998960346,0.1416456000879407,None,628.7107478999533,628.7107692,None,628.7107936,628.7108107999666,None,,,,,,,,,,,,,5,3,0,0,2025-02-27_13h06.15.843,rtmindeye,2024.2.4,59.940610837156555,2025-02-27 13h20.25.335128 -0500
all_stimuli/special515/special_44705.jpg,27,0,27,27,0,,,,,,,,0,0,1,3,1,"[9, 21, 31, 45, 56, 68, 69]",1,1,0.4748325999826193,0.11986299999989569,None,None,None,,,,,,,,,,,1,0,1,0,0,27,27,27,628.7461498000193,,,,,,,,,,,,,,,,,,,,,,,,,,,,,,,,,,,,,,,,628.7109729000367,628.7110169000225,628.7444722999353,628.7461498000193,628.7461498000193,628.7461498000193,628.7461498000193,631.7604768,631.7604768,632.7272300999612,1,1,0.4748325999826193,0.11986299999989569,None,632.7272995,632.7273201,None,632.7273434,632.7273605000228,None,,,,,,,,,,,,,5,3,0,0,2025-02-27_13h06.15.843,rtmindeye,2024.2.4,59.940610837156555,2025-02-27 13h20.25.335128 -0500
all_stimuli/shared1000_notspecial/notspecial_52302.png,28,0,28,28,0,,,,,,,,0,0,1,3,1,"[9, 21, 31, 45, 56, 68, 69]",1,1,0.6597624999703839,0.10724839998874813,None,None,None,,,,,,,,,,,1,0,1,0,0,28,28,28,632.7678940999322,,,,,,,,,,,,,,,,,,,,,,,,,,,,,,,,,,,,,,,,632.7275199,632.7275629999349,632.7658931,632.7678940999322,632.7678940999322,632.7678940999322,632.7678940999322,635.7771322999615,635.7771322999615,636.7439182000235,1,1,0.6597624999703839,0.10724839998874813,None,636.7439909999957,636.7440119000385,None,636.7440357999876,636.7440530000022,None,,,,,,,,,,,,,5,3,0,0,2025-02-27_13h06.15.843,rtmindeye,2024.2.4,59.940610837156555,2025-02-27 13h20.25.335128 -0500
all_stimuli/unchosen_nsd_1000_images/unchosen_1930_cocoid_38021.png,29,0,29,29,0,,,,,,,,0,0,1,3,1,"[9, 21, 31, 45, 56, 68, 69]",1,1,0.5009749999735504,0.10792960005346686,None,None,None,,,,,,,,,,,1,0,1,0,0,29,29,29,636.7708278000355,,,,,,,,,,,,,,,,,,,,,,,,,,,,,,,,,,,,,,,,636.7442166999681,636.7442629999714,636.7692267999519,636.7708278000355,636.7708278000355,636.7708278000355,636.7708278000355,639.7772670999402,639.7772670999402,640.7605534000322,1,1,0.5009749999735504,0.10792960005346686,None,640.7606289,640.7606504999567,None,640.7606742000207,640.7606912000338,None,,,,,,,,,,,,,5,3,0,0,2025-02-27_13h06.15.843,rtmindeye,2024.2.4,59.940610837156555,2025-02-27 13h20.25.335128 -0500
all_stimuli/unchosen_nsd_1000_images/unchosen_2410_cocoid_72096.png,30,0,30,30,0,,,,,,,,0,0,1,3,1,"[9, 21, 31, 45, 56, 68, 69]",1,1,0.6389955999329686,0.14182020002044737,None,None,None,,,,,,,,,,,1,0,1,0,0,30,30,30,640.8019785999786,,,,,,,,,,,,,,,,,,,,,,,,,,,,,,,,,,,,,,,,640.7608542999951,640.7608980999794,640.8003680999391,640.8019785999786,640.8019785999786,640.8019785999786,640.8019785999786,643.8105100999819,643.8105100999819,644.7768963000271,1,1,0.6389955999329686,0.14182020002044737,None,644.7769669999834,644.7769878000254,None,644.7770119999768,644.7770295999944,None,,,,,,,,,,,,,5,3,0,0,2025-02-27_13h06.15.843,rtmindeye,2024.2.4,59.940610837156555,2025-02-27 13h20.25.335128 -0500
blank.jpg,31,1,31,31,0,,,,,,,,0,0,1,3,1,"[9, 21, 31, 45, 56, 68, 69]",None,0,,,None,None,None,,,,,,,,,,,1,0,1,0,0,31,31,31,644.7938561999472,,,,,,,,,,,,,,,,,,,,,,,,,,,,,,,,,,,,,,,,644.7771893999306,644.7772748999996,644.7852159999311,644.7938561999472,644.7938561999472,644.7938561999472,644.7938561999472,647.7936962000094,647.7936962000094,648.7768730999669,None,0,,,None,648.7769361,648.7769568000222,None,648.7769806999713,648.7769977999851,None,648.8334606,648.8334606,,,,,,,,,,,5,3,0,0,2025-02-27_13h06.15.843,rtmindeye,2024.2.4,59.940610837156555,2025-02-27 13h20.25.335128 -0500
all_stimuli/unchosen_nsd_1000_images/unchosen_4486_cocoid_14986.png,32,0,32,32,0,,,,,,,,0,0,1,3,1,"[9, 21, 31, 45, 56, 68, 69]",1,1,0.5734886999707669,0.12383300007786602,None,None,None,,,,,,,,,,,1,0,1,0,0,32,32,32,648.8334606,,,,,,,,,,,,,,,,,,,,,,,,,,,,,,,,,,,,,,,,648.7771580999251,648.7771962999832,648.8317913999781,648.8334606,648.8334606,648.8334606,648.8334606,651.8437624,651.8437624,652.7939299999271,1,1,0.5734886999707669,0.12383300007786602,None,652.7940009000013,652.7940229999367,None,652.7940484000137,652.7940660000313,None,,,,,,,,,,,,,5,3,0,0,2025-02-27_13h06.15.843,rtmindeye,2024.2.4,59.940610837156555,2025-02-27 13h20.25.335128 -0500
all_stimuli/special515/special_36974.jpg,33,0,33,33,0,,,,,,,,0,0,1,3,1,"[9, 21, 31, 45, 56, 68, 69]",1,1,0.6291576999938115,0.14411780005320907,None,None,None,,,,,,,,,,,1,0,1,0,0,33,33,33,652.8346389000071,,,,,,,,,,,,,,,,,,,,,,,,,,,,,,,,,,,,,,,,652.7942332000239,652.7942769000074,652.8328975000186,652.8346389000071,652.8346389000071,652.8346389000071,652.8346389000071,655.8436284000054,655.8436284000054,656.8103439,1,1,0.6291576999938115,0.14411780005320907,None,656.8104149999563,656.8104355999967,None,656.8104593999451,656.8104762999574,None,,,,,,,,,,,,,5,3,0,0,2025-02-27_13h06.15.843,rtmindeye,2024.2.4,59.940610837156555,2025-02-27 13h20.25.335128 -0500
all_stimuli/MST_pairs/pair_14_18_78.png,34,0,34,34,0,,,,,,,,1,0,1,3,1,"[9, 21, 31, 45, 56, 68, 69]",2,1,0.8355777999386191,0.22707520006224513,None,None,None,,,,,,,,,,,1,0,1,0,0,34,34,34,656.8462701999815,,,,,,,,,,,,,,,,,,,,,,,,,,,,,,,,,,,,,,,,656.8106359000085,656.8106789999874,656.8446258000331,656.8462701999815,656.8462701999815,656.8462701999815,656.8462701999815,659.8603309999453,659.8603309999453,660.8271809000289,2,1,0.8355777999386191,0.22707520006224513,None,660.8272540000034,660.8272748999298,None,660.8272985999938,660.8273152000038,None,,,,,,,,,,,,,5,3,0,0,2025-02-27_13h06.15.843,rtmindeye,2024.2.4,59.940610837156555,2025-02-27 13h20.25.335128 -0500
all_stimuli/shared1000_notspecial/notspecial_59039.png,35,0,35,35,0,,,,,,,,0,0,1,3,1,"[9, 21, 31, 45, 56, 68, 69]",1,1,0.6849070000462234,0.14712650002911687,None,None,None,,,,,,,,,,,1,0,1,0,0,35,35,35,660.8597561999923,,,,,,,,,,,,,,,,,,,,,,,,,,,,,,,,,,,,,,,,660.8274779999629,660.8275214999449,660.8581572999246,660.8597561999923,660.8597561999923,660.8597561999923,660.8597561999923,663.8604321000166,663.8604321000166,664.8438508999534,1,1,0.6849070000462234,0.14712650002911687,None,664.8439221000299,664.8439431,None,664.8439668,664.8439832000295,None,,,,,,,,,,,,,5,3,0,0,2025-02-27_13h06.15.843,rtmindeye,2024.2.4,59.940610837156555,2025-02-27 13h20.25.335128 -0500
all_stimuli/unchosen_nsd_1000_images/unchosen_353_cocoid_33738.png,36,0,36,36,0,,,,,,,,0,0,1,3,1,"[9, 21, 31, 45, 56, 68, 69]",2,0,0.7839599000290036,0.20202490000519902,None,None,None,,,,,,,,,,,1,0,1,0,0,36,36,36,664.8728443,,,,,,,,,,,,,,,,,,,,,,,,,,,,,,,,,,,,,,,,664.8441526000388,664.8441963000223,664.8712708000094,664.8728443,664.8728443,664.8728443,664.8728443,667.8770799000049,667.8770799000049,668.8604897999903,2,0,0.7839599000290036,0.20202490000519902,None,668.8605600999435,668.8605807,None,668.8606042999309,668.8606213999446,None,,,,,,,,,,,,,5,3,0,0,2025-02-27_13h06.15.843,rtmindeye,2024.2.4,59.940610837156555,2025-02-27 13h20.25.335128 -0500
all_stimuli/unchosen_nsd_1000_images/unchosen_7470_cocoid_27514.png,37,0,37,37,0,,,,,,,,0,0,1,3,1,"[9, 21, 31, 45, 56, 68, 69]",1,1,0.6426660000579432,0.14689710002858192,None,None,None,,,,,,,,,,,1,0,1,0,0,37,37,37,668.8881059000269,,,,,,,,,,,,,,,,,,,,,,,,,,,,,,,,,,,,,,,,668.8607813999988,668.8608248,668.8864992000163,668.8881059000269,668.8881059000269,668.8881059000269,668.8881059000269,671.8933332000161,671.8933332000161,672.8772398999427,1,1,0.6426660000579432,0.14689710002858192,None,672.8773105000146,672.8773308999371,None,672.8773551000049,672.8773723000195,None,,,,,,,,,,,,,5,3,0,0,2025-02-27_13h06.15.843,rtmindeye,2024.2.4,59.940610837156555,2025-02-27 13h20.25.335128 -0500
all_stimuli/shared1000_notspecial/notspecial_67252.png,38,0,38,38,0,,,,,,,,0,0,1,3,1,"[9, 21, 31, 45, 56, 68, 69]",1,1,0.651368,0.15093560004606843,None,None,None,,,,,,,,,,,1,0,1,0,0,38,38,38,672.9324940999504,,,,,,,,,,,,,,,,,,,,,,,,,,,,,,,,,,,,,,,,672.8775360999862,672.8775797999697,672.9308777999831,672.9324940999504,672.9324940999504,672.9324940999504,672.9324940999504,675.9434944000095,675.9434944000095,676.8936552000232,1,1,0.651368,0.15093560004606843,None,676.8937259999802,676.8937466000207,None,676.8937717,676.8937883999897,None,,,,,,,,,,,,,5,3,0,0,2025-02-27_13h06.15.843,rtmindeye,2024.2.4,59.940610837156555,2025-02-27 13h20.25.335128 -0500
all_stimuli/MST_pairs/pair_43_w_lighthouse2.jpg,39,0,39,39,0,,,,,,,,0,0,1,3,1,"[9, 21, 31, 45, 56, 68, 69]",1,1,0.7986175999976695,0.13804130000062287,None,None,None,,,,,,,,,,,1,0,1,0,0,39,39,39,676.9460970000364,,,,,,,,,,,,,,,,,,,,,,,,,,,,,,,,,,,,,,,,676.8939616,676.8940055,676.9442895000102,676.9460970000364,676.9460970000364,676.9460970000364,676.9460970000364,679.9602783999871,679.9602783999871,680.9103345000185,1,1,0.7986175999976695,0.13804130000062287,None,680.9104054999771,680.9104263,None,680.9104490999598,680.9104661999736,None,,,,,,,,,,,,,5,3,0,0,2025-02-27_13h06.15.843,rtmindeye,2024.2.4,59.940610837156555,2025-02-27 13h20.25.335128 -0500
all_stimuli/unchosen_nsd_1000_images/unchosen_4668_cocoid_48515.png,40,0,40,40,0,,,,,,,,0,0,1,3,1,"[9, 21, 31, 45, 56, 68, 69]",1,1,0.7029676999663934,0.15911040001083165,None,None,None,,,,,,,,,,,1,0,1,0,0,40,40,40,680.9577254999895,,,,,,,,,,,,,,,,,,,,,,,,,,,,,,,,,,,,,,,,680.9106271000346,680.9106705000158,680.9560875999741,680.9577254999895,680.9577254999895,680.9577254999895,680.9577254999895,683.9603163999273,683.9603163999273,684.9271187999984,1,1,0.7029676999663934,0.15911040001083165,None,684.9271896999562,684.9272106999997,None,684.9272341999458,684.9272518999642,None,,,,,,,,,,,,,5,3,0,0,2025-02-27_13h06.15.843,rtmindeye,2024.2.4,59.940610837156555,2025-02-27 13h20.25.335128 -0500
all_stimuli/unchosen_nsd_1000_images/unchosen_4260_cocoid_14014.png,41,0,41,41,0,,,,,,,,0,0,1,3,1,"[9, 21, 31, 45, 56, 68, 69]",1,1,0.5918817000929266,0.13210419996175915,None,None,None,,,,,,,,,,,1,0,1,0,0,41,41,41,684.9649274999974,,,,,,,,,,,,,,,,,,,,,,,,,,,,,,,,,,,,,,,,684.9274165999377,684.9274603000376,684.9632899999851,684.9649274999974,684.9649274999974,684.9649274999974,684.9649274999974,687.9771110999864,687.9771110999864,688.9436506000347,1,1,0.5918817000929266,0.13210419996175915,None,688.9437215999933,688.9437423000345,None,688.9437663999852,688.9437840000028,None,,,,,,,,,,,,,5,3,0,0,2025-02-27_13h06.15.843,rtmindeye,2024.2.4,59.940610837156555,2025-02-27 13h20.25.335128 -0500
all_stimuli/unchosen_nsd_1000_images/unchosen_622_cocoid_67167.png,42,0,42,42,0,,,,,,,,0,0,1,3,1,"[9, 21, 31, 45, 56, 68, 69]",1,1,0.6236272000242025,0.13490740000270307,None,None,None,,,,,,,,,,,1,0,1,0,0,42,42,42,688.9771945999237,,,,,,,,,,,,,,,,,,,,,,,,,,,,,,,,,,,,,,,,688.9439450999489,688.9439886999317,688.9756116999779,688.9771945999237,688.9771945999237,688.9771945999237,688.9771945999237,691.9768312999513,691.9768312999513,692.9604236999294,1,1,0.6236272000242025,0.13490740000270307,None,692.9604929999914,692.9605135000311,None,692.9605367999757,692.9605541,None,,,,,,,,,,,,,5,3,0,0,2025-02-27_13h06.15.843,rtmindeye,2024.2.4,59.940610837156555,2025-02-27 13h20.25.335128 -0500
all_stimuli/unchosen_nsd_1000_images/unchosen_2230_cocoid_38833.png,43,0,43,43,0,,,,,,,,0,0,1,3,1,"[9, 21, 31, 45, 56, 68, 69]",1,1,0.5378105000127107,0.19419780001044273,None,None,None,,,,,,,,,,,1,0,1,0,0,43,43,43,692.9918886999367,,,,,,,,,,,,,,,,,,,,,,,,,,,,,,,,,,,,,,,,692.9607133000391,692.9607564,692.9902659000363,692.9918886999367,692.9918886999367,692.9918886999367,692.9918886999367,695.9934792999411,695.9934792999411,696.9772422999376,1,1,0.5378105000127107,0.19419780001044273,None,696.9773151000263,696.9773365999572,None,696.9773605000228,696.9773774,None,,,,,,,,,,,,,5,3,0,0,2025-02-27_13h06.15.843,rtmindeye,2024.2.4,59.940610837156555,2025-02-27 13h20.25.335128 -0500
all_stimuli/MST_pairs/pair_39_w_corridor1.jpg,44,0,44,44,0,,,,,,,,0,0,1,3,1,"[9, 21, 31, 45, 56, 68, 69]",1,1,0.5593895999481902,0.1531779000069946,None,None,None,,,,,,,,,,,1,0,1,0,0,44,44,44,697.0063520999392,,,,,,,,,,,,,,,,,,,,,,,,,,,,,,,,,,,,,,,,696.9775451000314,696.9775885000126,697.0046562999487,697.0063520999392,697.0063520999392,697.0063520999392,697.0063520999392,700.0101142999483,700.0101142999483,700.9938806999708,1,1,0.5593895999481902,0.1531779000069946,None,700.9939514,700.9939718999667,None,700.9939963000361,700.9940130999312,None,,,,,,,,,,,,,5,3,0,0,2025-02-27_13h06.15.843,rtmindeye,2024.2.4,59.940610837156555,2025-02-27 13h20.25.335128 -0500
blank.jpg,45,1,45,45,0,,,,,,,,0,0,1,3,1,"[9, 21, 31, 45, 56, 68, 69]",None,0,,,None,None,None,,,,,,,,,,,1,0,1,0,0,45,45,45,701.0328803999582,,,,,,,,,,,,,,,,,,,,,,,,,,,,,,,,,,,,,,,,700.9941775000188,700.9942213000031,701.0312136999564,701.0328803999582,701.0328803999582,701.0328803999582,701.0328803999582,704.0439531999873,704.0439531999873,705.0104237999767,None,0,,,None,705.0104904000182,705.0105113999452,None,705.0105345000047,705.0105517000193,None,,,,,,,,,,,,,5,3,0,0,2025-02-27_13h06.15.843,rtmindeye,2024.2.4,59.940610837156555,2025-02-27 13h20.25.335128 -0500
all_stimuli/unchosen_nsd_1000_images/unchosen_3978_cocoid_45579.png,46,0,46,46,0,,,,,,,,0,0,1,3,1,"[9, 21, 31, 45, 56, 68, 69]",1,1,0.8169041000073776,0.11985699995420873,None,None,None,,,,,,,,,,,1,0,1,0,0,46,46,46,705.0370347999269,,,,,,,,,,,,,,,,,,,,,,,,,,,,,,,,,,,,,,,,705.0107121999608,705.0107552,705.0353899999755,705.0370347999269,705.0370347999269,705.0370347999269,705.0370347999269,708.0434912999626,708.0434912999626,709.0269107000204,1,1,0.8169041000073776,0.11985699995420873,None,709.0269809999736,709.0270007000072,None,709.0270233999472,709.0270402999595,None,,,,,,,,,,,,,5,3,0,0,2025-02-27_13h06.15.843,rtmindeye,2024.2.4,59.940610837156555,2025-02-27 13h20.25.335128 -0500
all_stimuli/unchosen_nsd_1000_images/unchosen_6590_cocoid_23913.png,47,0,47,47,0,,,,,,,,0,0,1,3,1,"[9, 21, 31, 45, 56, 68, 69]",1,1,0.6662691000383347,0.14528719999361783,None,None,None,,,,,,,,,,,1,0,1,0,0,47,47,47,709.0613905999344,,,,,,,,,,,,,,,,,,,,,,,,,,,,,,,,,,,,,,,,709.0271999000106,709.0272426999873,709.0597658000188,709.0613905999344,709.0613905999344,709.0613905999344,709.0613905999344,712.0772241000086,712.0772241000086,713.0436161999824,1,1,0.6662691000383347,0.14528719999361783,None,713.0436865999363,713.0437071999768,None,713.0437305000378,713.0437477999367,None,,,,,,,,,,,,,5,3,0,0,2025-02-27_13h06.15.843,rtmindeye,2024.2.4,59.940610837156555,2025-02-27 13h20.25.335128 -0500
all_stimuli/unchosen_nsd_1000_images/unchosen_1605_cocoid_69908.png,48,0,48,48,0,,,,,,,,0,0,1,3,1,"[9, 21, 31, 45, 56, 68, 69]",1,1,0.6032198999309912,0.2509130999678746,None,None,None,,,,,,,,,,,1,0,1,0,0,48,48,48,713.0676965999883,,,,,,,,,,,,,,,,,,,,,,,,,,,,,,,,,,,,,,,,713.0439145999262,713.0439580000238,713.0660998999374,713.0676965999883,713.0676965999883,713.0676965999883,713.0676965999883,716.0769856999395,716.0769856999395,717.0604913999559,1,1,0.6032198999309912,0.2509130999678746,None,717.0605637999251,717.0605846999679,None,717.0606082000304,717.0606254999293,None,,,,,,,,,,,,,5,3,0,0,2025-02-27_13h06.15.843,rtmindeye,2024.2.4,59.940610837156555,2025-02-27 13h20.25.335128 -0500
all_stimuli/MST_pairs/pair_42_w_icerink2.jpg,49,0,49,49,0,,,,,,,,0,0,1,3,1,"[9, 21, 31, 45, 56, 68, 69]",1,1,0.7321070999605581,0.12689010007306933,None,None,None,,,,,,,,,,,1,0,1,0,0,49,49,49,717.0937893,,,,,,,,,,,,,,,,,,,,,,,,,,,,,,,,,,,,,,,,717.0607964999508,717.0608408999396,717.0919322000118,717.0937893,717.0937893,717.0937893,717.0937893,720.0934940000298,720.0934940000298,721.0770711000077,1,1,0.7321070999605581,0.12689010007306933,None,721.0771426999709,721.0771632000105,None,721.0771875999635,721.0772044999758,None,,,,,,,,,,,,,5,3,0,0,2025-02-27_13h06.15.843,rtmindeye,2024.2.4,59.940610837156555,2025-02-27 13h20.25.335128 -0500
all_stimuli/special515/special_55669.jpg,50,0,50,50,0,,,,,,,,0,0,1,3,1,"[9, 21, 31, 45, 56, 68, 69]",1,1,0.7615484000416473,0.16391529992688447,None,None,None,,,,,,,,,,,1,0,1,0,0,50,50,50,721.1181857000338,,,,,,,,,,,,,,,,,,,,,,,,,,,,,,,,,,,,,,,,721.0773700999562,721.0774133999366,721.1164144,721.1181857000338,721.1181857000338,721.1181857000338,721.1181857000338,724.1266816999996,724.1266816999996,725.0936817999464,1,1,0.7615484000416473,0.16391529992688447,None,725.0937524000183,725.0937727,None,725.0937954999972,725.0938121000072,None,,,,,,,,,,,,,5,3,0,0,2025-02-27_13h06.15.843,rtmindeye,2024.2.4,59.940610837156555,2025-02-27 13h20.25.335128 -0500
all_stimuli/unchosen_nsd_1000_images/unchosen_7246_cocoid_59395.png,51,0,51,51,0,,,,,,,,0,0,1,3,1,"[9, 21, 31, 45, 56, 68, 69]",1,1,0.5802611999679357,0.2888929999899119,None,None,None,,,,,,,,,,,1,0,1,0,0,51,51,51,725.1275324999588,,,,,,,,,,,,,,,,,,,,,,,,,,,,,,,,,,,,,,,,725.0939737999579,725.0940179999452,725.1259286999702,725.1275324999588,725.1275324999588,725.1275324999588,725.1275324999588,728.1269086999819,728.1269086999819,729.1102630000096,1,1,0.5802611999679357,0.2888929999899119,None,729.1103336999658,729.1103537000017,None,729.1103769999463,729.1103941999609,None,,,,,,,,,,,,,5,3,0,0,2025-02-27_13h06.15.843,rtmindeye,2024.2.4,59.940610837156555,2025-02-27 13h20.25.335128 -0500
all_stimuli/shared1000_notspecial/notspecial_69130.png,52,0,52,52,0,,,,,,,,0,0,1,3,1,"[9, 21, 31, 45, 56, 68, 69]",1,1,0.5618086999747902,0.14017260004766285,None,None,None,,,,,,,,,,,1,0,1,0,0,52,52,52,729.1307849999284,,,,,,,,,,,,,,,,,,,,,,,,,,,,,,,,,,,,,,,,729.1105545000173,729.1105977,729.1291719999863,729.1307849999284,729.1307849999284,729.1307849999284,729.1307849999284,732.1435816999292,732.1435816999292,733.1271147,1,1,0.5618086999747902,0.14017260004766285,None,733.1271871000063,733.1272079999326,None,733.1272322000004,733.1272495000158,None,,,,,,,,,,,,,5,3,0,0,2025-02-27_13h06.15.843,rtmindeye,2024.2.4,59.940610837156555,2025-02-27 13h20.25.335128 -0500
all_stimuli/unchosen_nsd_1000_images/unchosen_5042_cocoid_17441.png,53,0,53,53,0,,,,,,,,0,0,1,3,1,"[9, 21, 31, 45, 56, 68, 69]",1,1,0.5385767000261694,0.1360337999649346,None,None,None,,,,,,,,,,,1,0,1,0,0,53,53,53,733.1741596999345,,,,,,,,,,,,,,,,,,,,,,,,,,,,,,,,,,,,,,,,733.1274177000159,733.1274611999979,733.1725110999541,733.1741596999345,733.1741596999345,733.1741596999345,733.1741596999345,736.1770225999644,736.1770225999644,737.1438516000053,1,1,0.5385767000261694,0.1360337999649346,None,737.1439213,737.1439420999959,None,737.1439665999496,737.1439835999627,None,,,,,,,,,,,,,5,3,0,0,2025-02-27_13h06.15.843,rtmindeye,2024.2.4,59.940610837156555,2025-02-27 13h20.25.335128 -0500
all_stimuli/shared1000_notspecial/notspecial_26307.png,54,0,54,54,0,,,,,,,,0,0,1,3,1,"[9, 21, 31, 45, 56, 68, 69]",1,1,0.5388914999784902,0.090751,None,None,None,,,,,,,,,,,1,0,1,0,0,54,54,54,737.1869140999625,,,,,,,,,,,,,,,,,,,,,,,,,,,,,,,,,,,,,,,,737.1441456000321,737.1441894000163,737.1852836000035,737.1869140999625,737.1869140999625,737.1869140999625,737.1869140999625,740.1935163999442,740.1935163999442,741.1603239999386,1,1,0.5388914999784902,0.090751,None,741.1603953000158,741.1604158999398,None,741.1604391000001,741.1604564000154,None,,,,,,,,,,,,,5,3,0,0,2025-02-27_13h06.15.843,rtmindeye,2024.2.4,59.940610837156555,2025-02-27 13h20.25.335128 -0500
all_stimuli/unchosen_nsd_1000_images/unchosen_5273_cocoid_51215.png,55,0,55,55,0,,,,,,,,0,0,1,3,1,"[9, 21, 31, 45, 56, 68, 69]",1,1,0.5999458000296727,0.10297170002013445,None,None,None,,,,,,,,,,,1,0,1,0,0,55,55,55,741.2199954,,,,,,,,,,,,,,,,,,,,,,,,,,,,,,,,,,,,,,,,741.1606194,741.1606630999595,741.2183684000047,741.2199954,741.2199954,741.2199954,741.2199954,744.2271455000155,744.2271455000155,745.1771269999444,1,1,0.5999458000296727,0.10297170002013445,None,745.1771971000126,745.1772178999381,None,745.1772407999961,745.1772580000106,None,,,,,,,,,,,,,5,3,0,0,2025-02-27_13h06.15.843,rtmindeye,2024.2.4,59.940610837156555,2025-02-27 13h20.25.335128 -0500
blank.jpg,56,1,56,56,0,,,,,,,,0,0,1,3,1,"[9, 21, 31, 45, 56, 68, 69]",None,0,,,None,None,None,,,,,,,,,,,1,0,1,0,0,56,56,56,745.1936352000339,,,,,,,,,,,,,,,,,,,,,,,,,,,,,,,,,,,,,,,,745.1774181999499,745.1774613999296,745.1854592999443,745.1936352000339,745.1936352000339,745.1936352000339,745.1936352000339,748.1935221999884,748.1935221999884,749.1770543,None,0,,,None,749.1771138999611,749.1771340999985,None,749.1771573999431,749.1771739999531,None,749.2031415000092,749.2031415000092,,,,,,,,,,,5,3,0,0,2025-02-27_13h06.15.843,rtmindeye,2024.2.4,59.940610837156555,2025-02-27 13h20.25.335128 -0500
all_stimuli/unchosen_nsd_1000_images/unchosen_5739_cocoid_20292.png,57,0,57,57,0,,,,,,,,0,0,1,3,1,"[9, 21, 31, 45, 56, 68, 69]",1,1,0.6957104000030085,0.17507220001425594,None,None,None,,,,,,,,,,,1,0,1,0,0,57,57,57,749.2031415000092,,,,,,,,,,,,,,,,,,,,,,,,,,,,,,,,,,,,,,,,749.1773281999631,749.1773665000219,749.2014916000189,749.2031415000092,749.2031415000092,749.2031415000092,749.2031415000092,752.2100990000181,752.2100990000181,753.1935548000038,1,1,0.6957104000030085,0.17507220001425594,None,753.1936264999676,753.1936471000081,None,753.1936703999527,753.1936874999665,None,,,,,,,,,,,,,5,3,0,0,2025-02-27_13h06.15.843,rtmindeye,2024.2.4,59.940610837156555,2025-02-27 13h20.25.335128 -0500
all_stimuli/shared1000_notspecial/notspecial_26243.png,58,0,58,58,0,,,,,,,,0,0,1,3,1,"[9, 21, 31, 45, 56, 68, 69]",1,1,0.6306414999999106,0.1621899000601843,None,None,None,,,,,,,,,,,1,0,1,0,0,58,58,58,753.3139962999849,,,,,,,,,,,,,,,,,,,,,,,,,,,,,,,,,,,,,,,,753.1938557999674,753.1938991999486,753.3105142000131,753.3139962999849,753.3139962999849,753.3139962999849,753.3139962999849,756.3268310999265,756.3268310999265,757.2101740000071,1,1,0.6306414999999106,0.1621899000601843,None,757.2102466999786,757.2102675000206,None,757.2102910999674,757.2103079999797,None,,,,,,,,,,,,,5,3,0,0,2025-02-27_13h06.15.843,rtmindeye,2024.2.4,59.940610837156555,2025-02-27 13h20.25.335128 -0500
all_stimuli/shared1000_notspecial/notspecial_69831.png,59,0,59,59,0,,,,,,,,0,0,1,3,1,"[9, 21, 31, 45, 56, 68, 69]",1,1,0.6669434999348596,0.13778780004940927,None,None,None,,,,,,,,,,,1,0,1,0,0,59,59,59,757.2589663,,,,,,,,,,,,,,,,,,,,,,,,,,,,,,,,,,,,,,,,757.2104777999921,757.2105209,757.2571639999514,757.2589663,757.2589663,757.2589663,757.2589663,760.2596065999242,760.2596065999242,761.2266637999564,1,1,0.6669434999348596,0.13778780004940927,None,761.2267386999447,761.2267592999851,None,761.2267825,761.2267992999405,None,,,,,,,,,,,,,5,3,0,0,2025-02-27_13h06.15.843,rtmindeye,2024.2.4,59.940610837156555,2025-02-27 13h20.25.335128 -0500
all_stimuli/special515/special_5602.jpg,60,0,60,60,0,,,,,,,,0,0,1,3,1,"[9, 21, 31, 45, 56, 68, 69]",1,1,0.6454488999443129,0.10726250009611249,None,None,None,,,,,,,,,,,1,0,1,0,0,60,60,60,761.2651100000367,,,,,,,,,,,,,,,,,,,,,,,,,,,,,,,,,,,,,,,,761.2269661999308,761.2270099000307,761.2631973000243,761.2651100000367,761.2651100000367,761.2651100000367,761.2651100000367,764.2767222999828,764.2767222999828,765.2435313999886,1,1,0.6454488999443129,0.10726250009611249,None,765.2436038999585,765.2436248000013,None,765.2436489999527,765.2436661999673,None,,,,,,,,,,,,,5,3,0,0,2025-02-27_13h06.15.843,rtmindeye,2024.2.4,59.940610837156555,2025-02-27 13h20.25.335128 -0500
all_stimuli/MST_pairs/pair_48_w_runway2.jpg,61,0,61,61,0,,,,,,,,0,0,1,3,1,"[9, 21, 31, 45, 56, 68, 69]",1,1,0.7136734999949113,0.1561812999425456,None,None,None,,,,,,,,,,,1,0,1,0,0,61,61,61,765.2639811999397,,,,,,,,,,,,,,,,,,,,,,,,,,,,,,,,,,,,,,,,765.2438298999332,765.2438735000324,765.2622815000359,765.2639811999397,765.2639811999397,765.2639811999397,765.2639811999397,768.2769571000244,768.2769571000244,769.260202,1,1,0.7136734999949113,0.1561812999425456,None,769.2602738999994,769.2602942000376,None,769.2603180999868,769.2603358000051,None,,,,,,,,,,,,,5,3,0,0,2025-02-27_13h06.15.843,rtmindeye,2024.2.4,59.940610837156555,2025-02-27 13h20.25.335128 -0500
all_stimuli/special515/special_21108.jpg,62,0,62,62,0,,,,,,,,1,0,1,3,1,"[9, 21, 31, 45, 56, 68, 69]",2,1,0.8008918999694288,0.1911626000655815,None,None,None,,,,,,,,,,,1,0,1,0,0,62,62,62,769.2766975000268,,,,,,,,,,,,,,,,,,,,,,,,,,,,,,,,,,,,,,,,769.2604993999703,769.2605985000264,769.2737518999493,769.2766975000268,769.2766975000268,769.2766975000268,769.2766975000268,772.2769565000199,772.2769565000199,773.2603422999382,2,1,0.8008918999694288,0.1911626000655815,None,773.2604117,773.2604315000353,None,773.2604546999792,773.2604713999899,None,773.3014764999971,773.3014764999971,,,,,,,,,,,5,3,0,0,2025-02-27_13h06.15.843,rtmindeye,2024.2.4,59.940610837156555,2025-02-27 13h20.25.335128 -0500
all_stimuli/unchosen_nsd_1000_images/unchosen_4264_cocoid_14035.png,63,0,63,63,0,,,,,,,,0,0,1,3,1,"[9, 21, 31, 45, 56, 68, 69]",1,1,0.5993361,0.1909862000029534,None,None,None,,,,,,,,,,,1,0,1,0,0,63,63,63,773.3014764999971,,,,,,,,,,,,,,,,,,,,,,,,,,,,,,,,,,,,,,,,773.2606354999589,773.2606741,773.2998864999972,773.3014764999971,773.3014764999971,773.3014764999971,773.3014764999971,776.3102082000114,776.3102082000114,777.2770597999915,1,1,0.5993361,0.1909862000029534,None,777.2771322999615,777.2771535000065,None,777.2771772999549,777.2771947999718,None,,,,,,,,,,,,,5,3,0,0,2025-02-27_13h06.15.843,rtmindeye,2024.2.4,59.940610837156555,2025-02-27 13h20.25.335128 -0500
