current_image,trial_index,is_blank_trial,is_repeat,is_new_run,run_num,sess_num,is_not_last_trial,all_blanks_list,practice.thisRepN,practice.thisTrialN,practice.thisN,practice.thisIndex,loop_runs.thisRepN,loop_runs.thisTrialN,loop_runs.thisN,loop_runs.thisIndex,loop_all_images.thisRepN,loop_all_images.thisTrialN,loop_all_images.thisN,loop_all_images.thisIndex,thisRow.t,notes,set_up.started,set_up.stopped,practice_continue.started,practice_continue.stopped,key_resp_6.keys,practice_trial.started,practice_trial.stopped,press_if_repeat_2.keys,press_if_repeat_2.corr,all_keys_pressed_2.keys,testing_continue.started,testing_continue.stopped,key_resp_7.keys,waiting_fmri.started,key_resp_2.started,text_3.started,waiting_fmri.stopped,key_resp_2.keys,key_resp_2.rt,key_resp_2.duration,set_skips_and_correct_key.started,set_skips_and_correct_key.stopped,trial.started,image.started,press_if_repeat.started,polygon.started,all_keys_pressed.started,image.stopped,press_if_repeat.stopped,trial.stopped,press_if_repeat.keys,press_if_repeat.corr,press_if_repeat.rt,press_if_repeat.duration,all_keys_pressed.keys,run_wait2_2.started,run_wait2_2.stopped,key_resp_5.keys,waiting_fmri_2.started,waiting_fmri_2.stopped,key_resp_4.keys,polygon.stopped,all_keys_pressed.stopped,all_keys_pressed.rt,all_keys_pressed.duration,key_resp_5.started,text_5.started,key_resp_5.rt,key_resp_5.duration,key_resp_4.started,text_4.started,key_resp_4.rt,key_resp_4.duration,participant,session (1 2 or 3),starting_run,skip_practice,date,expName,psychopyVersion,frameRate,expStart,
,,,,,,,,,,,,,,,,,,,,,,,0.0031344170001830207,0.0033157500001834705,,,,,,,,,,,,,,,,,,,,,,,,,,,,,,,,,,,,,,,,,,,,,,,,,,,,1,6,0,1,2025-01-13_11h36.30.746,rtmindeye,2024.1.5,None,2025-01-13 11h36.45.624132 -0500,
,,,,,,,,,,,,,,,,,,,,,,,,,0.003328417000375339,0.010490667000340181,None,,,,,,,,,,,,,,,,,,,,,,,,,,,,,,,,,,,,,,,,,,,,,,,,,1,6,0,1,2025-01-13_11h36.30.746,rtmindeye,2024.1.5,None,2025-01-13 11h36.45.624132 -0500,
practice_images/w_kitchen2.jpg,0,0,,,,,,,0,0,0,0,,,,,,,,,0.0525433749990043,,,,,,,0.01584516699949745,0.020452458998988732,None,0,None,,,,,,,,,,,,,,,,,,,,,,,,,,,,,,,,,,,,,,,,,,,,1,6,0,1,2025-01-13_11h36.30.746,rtmindeye,2024.1.5,None,2025-01-13 11h36.45.624132 -0500,
practice_images/w_boardwalk2.jpg,1,0,,,,,,,0,1,1,1,,,,,,,,,0.0525433749990043,,,,,,,0.020888999999442603,0.0236233750001702,None,0,None,,,,,,,,,,,,,,,,,,,,,,,,,,,,,,,,,,,,,,,,,,,,1,6,0,1,2025-01-13_11h36.30.746,rtmindeye,2024.1.5,None,2025-01-13 11h36.45.624132 -0500,
practice_images/w_monument2.jpg,2,0,,,,,,,0,2,2,2,,,,,,,,,0.0525433749990043,,,,,,,0.02387954199912201,0.02589241699934064,None,0,None,,,,,,,,,,,,,,,,,,,,,,,,,,,,,,,,,,,,,,,,,,,,1,6,0,1,2025-01-13_11h36.30.746,rtmindeye,2024.1.5,None,2025-01-13 11h36.45.624132 -0500,
practice_images/w_auditorium2.jpg,3,0,,,,,,,0,3,3,3,,,,,,,,,0.0525433749990043,,,,,,,0.026180167000347865,0.02812295900002937,None,0,None,,,,,,,,,,,,,,,,,,,,,,,,,,,,,,,,,,,,,,,,,,,,1,6,0,1,2025-01-13_11h36.30.746,rtmindeye,2024.1.5,None,2025-01-13 11h36.45.624132 -0500,
practice_images/w_kitchen2.jpg,4,0,,,,,,,0,4,4,4,,,,,,,,,0.0525433749990043,,,,,,,0.028383541999573936,0.030121292000330868,None,0,None,,,,,,,,,,,,,,,,,,,,,,,,,,,,,,,,,,,,,,,,,,,,1,6,0,1,2025-01-13_11h36.30.746,rtmindeye,2024.1.5,None,2025-01-13 11h36.45.624132 -0500,
practice_images/w_auditorium1.jpg,5,0,,,,,,,0,5,5,5,,,,,,,,,0.0525433749990043,,,,,,,0.03037337500063586,0.03230795899980876,None,0,None,,,,,,,,,,,,,,,,,,,,,,,,,,,,,,,,,,,,,,,,,,,,1,6,0,1,2025-01-13_11h36.30.746,rtmindeye,2024.1.5,None,2025-01-13 11h36.45.624132 -0500,
practice_images/w_bedroom2.jpg,6,0,,,,,,,0,6,6,6,,,,,,,,,0.0525433749990043,,,,,,,0.032555042000240064,0.0344487090005714,None,0,None,,,,,,,,,,,,,,,,,,,,,,,,,,,,,,,,,,,,,,,,,,,,1,6,0,1,2025-01-13_11h36.30.746,rtmindeye,2024.1.5,None,2025-01-13 11h36.45.624132 -0500,
practice_images/w_kitchen1.jpg,7,0,,,,,,,0,7,7,7,,,,,,,,,0.0525433749990043,,,,,,,0.0347020839999459,0.03650287500022387,None,0,None,,,,,,,,,,,,,,,,,,,,,,,,,,,,,,,,,,,,,,,,,,,,1,6,0,1,2025-01-13_11h36.30.746,rtmindeye,2024.1.5,None,2025-01-13 11h36.45.624132 -0500,
practice_images/w_bedroom1.jpg,8,0,,,,,,,0,8,8,8,,,,,,,,,0.0525433749990043,,,,,,,0.03675345900046523,0.038626792000286514,None,0,None,,,,,,,,,,,,,,,,,,,,,,,,,,,,,,,,,,,,,,,,,,,,1,6,0,1,2025-01-13_11h36.30.746,rtmindeye,2024.1.5,None,2025-01-13 11h36.45.624132 -0500,
practice_images/w_monument2.jpg,9,0,,,,,,,0,9,9,9,,,,,,,,,0.0525433749990043,,,,,,,0.03887445899999875,0.040457334000166156,None,0,None,,,,,,,,,,,,,,,,,,,,,,,,,,,,,,,,,,,,,,,,,,,,1,6,0,1,2025-01-13_11h36.30.746,rtmindeye,2024.1.5,None,2025-01-13 11h36.45.624132 -0500,
,,,,,,,,,,,,,,,,,,,,,,,,,,,,,,,,,0.04061362500033283,0.04820320900034858,None,,,,,,,,,,,,,,,,,,,,,,,,,,,,,,,,,,,,,,,,,1,6,0,1,2025-01-13_11h36.30.746,rtmindeye,2024.1.5,None,2025-01-13 11h36.45.624132 -0500,
,,,,,,,,,,,,,,,,,,,,,,,,,,,,,,,,,,,,0.04821720899963111,0.0525433749990043,0.0525433749990043,97.60479312499956,equal,97.39924958300071,None,,,,,,,,,,,,,,,,,,,,,,,,,,,,,,,,,,1,6,0,1,2025-01-13_11h36.30.746,rtmindeye,2024.1.5,None,2025-01-13 11h36.45.624132 -0500,
all_stimuli/special515/special_13613.jpg,0,0,0,0,0,6,1,"[9, 21, 31, 45, 56, 68, 69]",,,,,0,0,0,0,0,0,0,0,97.63163395899937,,,,,,,,,,,,,,,,,,,,,,97.61435887500011,97.61442579200047,97.61443416700058,97.63163395899937,97.63163395899937,97.63163395899937,97.63163395899937,100.62768487500034,100.62768487500034,101.63074274999963,1,1,0.7711332910002966,0.2100115419998474,None,101.63220691700008,101.63242033399911,None,101.63292495899987,101.63302887499958,None,,,,,,,,,,,,,1,6,0,1,2025-01-13_11h36.30.746,rtmindeye,2024.1.5,None,2025-01-13 11h36.45.624132 -0500,
all_stimuli/shared1000_notspecial/notspecial_31049.png,1,0,0,0,0,6,1,"[9, 21, 31, 45, 56, 68, 69]",,,,,0,0,0,0,0,1,1,1,101.65073762499924,,,,,,,,,,,,,,,,,,,,,,101.63387662499917,101.634044041999,101.63406162499996,101.65073762499924,101.65073762499924,101.65073762499924,101.65073762499924,104.66553349999958,104.66553349999958,105.64670791699973,1,1,0.9680720830001519,0.1989372080006433,None,105.64771116699922,105.64782999999989,None,105.64797262499997,105.64803241700065,None,,,,,,,,,,,,,1,6,0,1,2025-01-13_11h36.30.746,rtmindeye,2024.1.5,None,2025-01-13 11h36.45.624132 -0500,
all_stimuli/special515/special_28096.jpg,2,0,0,0,0,6,1,"[9, 21, 31, 45, 56, 68, 69]",,,,,0,0,0,0,0,2,2,2,105.6643744590001,,,,,,,,,,,,,,,,,,,,,,105.64889349999976,105.6490294590003,105.64905158399961,105.6643744590001,105.6643744590001,105.6643744590001,105.6643744590001,108.66163779199996,108.66163779199996,109.6485069169994,1,1,0.7024765829992248,0.2090024999997695,None,109.64918083399971,109.6492608339995,None,109.6493845419991,109.64942487500048,None,109.6670129590002,109.6670129590002,,,,,,,,,,,1,6,0,1,2025-01-13_11h36.30.746,rtmindeye,2024.1.5,None,2025-01-13 11h36.45.624132 -0500,
all_stimuli/shared1000_notspecial/notspecial_68471.png,3,0,0,0,0,6,1,"[9, 21, 31, 45, 56, 68, 69]",,,,,0,0,0,0,0,3,3,3,109.6670129590002,,,,,,,,,,,,,,,,,,,,,,109.64989733400034,109.65001104200019,109.65002704200015,109.6670129590002,109.6670129590002,109.6670129590002,109.6670129590002,112.68000154199945,112.68000154199945,113.66433754199898,1,1,0.724895249999463,0.2189497500003199,None,113.66527916700034,113.66538408399902,None,113.66551699999945,113.66556637500071,None,,,,,,,,,,,,,1,6,0,1,2025-01-13_11h36.30.746,rtmindeye,2024.1.5,None,2025-01-13 11h36.45.624132 -0500,
all_stimuli/special515/special_15506.jpg,4,0,0,0,0,6,1,"[9, 21, 31, 45, 56, 68, 69]",,,,,0,0,0,0,0,4,4,4,113.68284358399978,,,,,,,,,,,,,,,,,,,,,,113.66624016700007,113.6665622090004,113.66657962499994,113.68284358399978,113.68284358399978,113.68284358399978,113.68284358399978,116.67759345900049,116.67759345900049,117.68058766700051,1,1,0.7940164160008862,0.19004524999945716,None,117.68164679199981,117.68177254200054,None,117.68193079199955,117.68199208400074,None,,,,,,,,,,,,,1,6,0,1,2025-01-13_11h36.30.746,rtmindeye,2024.1.5,None,2025-01-13 11h36.45.624132 -0500,
all_stimuli/MST_pairs1/pair_24_nsd_158_1_cocoid_2285.png,5,0,0,0,0,6,1,"[9, 21, 31, 45, 56, 68, 69]",,,,,0,0,0,0,0,5,5,5,117.71377754199966,,,,,,,,,,,,,,,,,,,,,,117.68275804199948,117.68309466699975,117.68311600000015,117.71377754199966,117.71377754199966,117.71377754199966,117.71377754199966,120.7140700839991,120.7140700839991,121.68471599999975,1,1,0.8861214160006057,0.21793945799981884,None,121.6853915419997,121.68548312500025,None,121.6856068750003,121.68564733399944,None,,,,,,,,,,,,,1,6,0,1,2025-01-13_11h36.30.746,rtmindeye,2024.1.5,None,2025-01-13 11h36.45.624132 -0500,
all_stimuli/MST_pairs1/pair_10_14_89.png,6,0,0,0,0,6,1,"[9, 21, 31, 45, 56, 68, 69]",,,,,0,0,0,0,0,6,6,6,121.70351879199916,,,,,,,,,,,,,,,,,,,,,,121.68609358399954,121.68625025000074,121.68626654199943,121.70351879199916,121.70351879199916,121.70351879199916,121.70351879199916,124.7141834590002,124.7141834590002,125.69430825000018,1,1,0.7683925000001182,0.20595995800067612,None,125.69495037500019,125.69501995899918,None,125.69513858400023,125.69517862499924,None,,,,,,,,,,,,,1,6,0,1,2025-01-13_11h36.30.746,rtmindeye,2024.1.5,None,2025-01-13 11h36.45.624132 -0500,
all_stimuli/special515/special_62015.jpg,7,0,0,0,0,6,1,"[9, 21, 31, 45, 56, 68, 69]",,,,,0,0,0,0,0,7,7,7,125.71118849999948,,,,,,,,,,,,,,,,,,,,,,125.6956356669998,125.69575345900012,125.69577245899927,125.71118849999948,125.71118849999948,125.71118849999948,125.71118849999948,128.6978020000006,128.6978020000006,129.69695687499916,1,1,0.8207059989999834,0.194026416998895,None,129.69758612499936,129.69765770899903,None,129.69777649999924,129.69781687499926,None,,,,,,,,,,,,,1,6,0,1,2025-01-13_11h36.30.746,rtmindeye,2024.1.5,None,2025-01-13 11h36.45.624132 -0500,
all_stimuli/special515/special_47687.jpg,8,0,0,0,0,6,1,"[9, 21, 31, 45, 56, 68, 69]",,,,,0,0,0,0,0,8,8,8,129.71492279199992,,,,,,,,,,,,,,,,,,,,,,129.69825479199972,129.69837320899933,129.69838933400024,129.71492279199992,129.71492279199992,129.71492279199992,129.71492279199992,132.72786066700064,132.72786066700064,133.71108616700076,1,1,0.75100587399902,0.2040021249995334,None,133.71164483400025,133.71170254199933,None,133.71180112500042,133.711834583999,None,,,,,,,,,,,,,1,6,0,1,2025-01-13_11h36.30.746,rtmindeye,2024.1.5,None,2025-01-13 11h36.45.624132 -0500,
blank.jpg,9,1,0,0,0,6,1,"[9, 21, 31, 45, 56, 68, 69]",,,,,0,0,0,0,0,9,9,9,133.72323741699984,,,,,,,,,,,,,,,,,,,,,,133.71220141699996,133.71229924999898,133.71231570899909,133.72323741699984,133.72323741699984,133.72323741699984,133.72323741699984,136.7309712089991,136.7309712089991,137.71136762499918,None,0,,,None,137.7118335840005,137.7119077919997,None,137.71205224999903,137.7120914999996,None,137.72707362499932,137.72707362499932,,,,,,,,,,,1,6,0,1,2025-01-13_11h36.30.746,rtmindeye,2024.1.5,None,2025-01-13 11h36.45.624132 -0500,
all_stimuli/special515/special_4249.jpg,10,0,0,0,0,6,1,"[9, 21, 31, 45, 56, 68, 69]",,,,,0,0,0,0,0,10,10,10,137.72707362499932,,,,,,,,,,,,,,,,,,,,,,137.71253637500013,137.71264679200067,137.71266574999936,137.72707362499932,137.72707362499932,137.72707362499932,137.72707362499932,140.71495833399968,140.71495833399968,141.71256270899903,1,1,0.7759119989987084,0.2049981670006673,None,141.71405891699942,141.71418337499927,None,141.71434274999956,141.71438683399901,None,141.72693479199916,141.72693479199916,,,,,,,,,,,1,6,0,1,2025-01-13_11h36.30.746,rtmindeye,2024.1.5,None,2025-01-13 11h36.45.624132 -0500,
all_stimuli/special515/special_54361.jpg,11,0,0,0,0,6,1,"[9, 21, 31, 45, 56, 68, 69]",,,,,0,0,0,0,0,11,11,11,141.72693479199916,,,,,,,,,,,,,,,,,,,,,,141.71490112500032,141.71505783400062,141.715074583999,141.72693479199916,141.72693479199916,141.72693479199916,141.72693479199916,144.73146879200067,144.73146879200067,145.71417045899943,1,1,0.6060293749997072,0.18291008300002431,None,145.7152067499992,145.71533666699906,None,145.71550362500057,145.7155593339994,None,145.7316651250003,145.7316651250003,,,,,,,,,,,1,6,0,1,2025-01-13_11h36.30.746,rtmindeye,2024.1.5,None,2025-01-13 11h36.45.624132 -0500,
all_stimuli/special515/special_6489.jpg,12,0,0,0,0,6,1,"[9, 21, 31, 45, 56, 68, 69]",,,,,0,0,0,0,0,12,12,12,145.7316651250003,,,,,,,,,,,,,,,,,,,,,,145.7162361669998,145.7163602090004,145.7163772090007,145.7316651250003,145.7316651250003,145.7316651250003,145.7316651250003,148.73236704199917,148.73236704199917,149.71453437499986,1,1,1.0232862080010818,0.1989190000003873,None,149.7151649589996,149.7152331670004,None,149.71535195899924,149.7153905840005,None,149.73153854200064,149.73153854200064,,,,,,,,,,,1,6,0,1,2025-01-13_11h36.30.746,rtmindeye,2024.1.5,None,2025-01-13 11h36.45.624132 -0500,
all_stimuli/special515/special_38641.jpg,13,0,0,0,0,6,1,"[9, 21, 31, 45, 56, 68, 69]",,,,,0,0,0,0,0,13,13,13,149.73153854200064,,,,,,,,,,,,,,,,,,,,,,149.71581708399935,149.71592799999962,149.71594454200022,149.73153854200064,149.73153854200064,149.73153854200064,149.73153854200064,152.73049083399928,152.73049083399928,153.71438733399918,1,1,0.9904992909996508,0.21190145899890922,None,153.714926749999,153.71498670899928,None,153.71508595900013,153.71511825000016,None,153.7327517499998,153.7327517499998,,,,,,,,,,,1,6,0,1,2025-01-13_11h36.30.746,rtmindeye,2024.1.5,None,2025-01-13 11h36.45.624132 -0500,
all_stimuli/shared1000_notspecial/notspecial_67168.png,14,0,0,0,0,6,1,"[9, 21, 31, 45, 56, 68, 69]",,,,,0,0,0,0,0,14,14,14,153.7327517499998,,,,,,,,,,,,,,,,,,,,,,153.71547470900077,153.71556770899952,153.71558087499943,153.7327517499998,153.7327517499998,153.7327517499998,153.7327517499998,156.72805049999988,156.72805049999988,157.73124620899944,1,1,0.9851670830012154,0.22316120799951022,None,157.73233329200048,157.73246445900077,None,157.7326344590001,157.73269958399942,None,,,,,,,,,,,,,1,6,0,1,2025-01-13_11h36.30.746,rtmindeye,2024.1.5,None,2025-01-13 11h36.45.624132 -0500,
all_stimuli/shared1000_notspecial/notspecial_59079.png,15,0,0,0,0,6,1,"[9, 21, 31, 45, 56, 68, 69]",,,,,0,0,0,0,0,15,15,15,157.748989624999,,,,,,,,,,,,,,,,,,,,,,157.7335536669998,157.7336889170001,157.733709791999,157.748989624999,157.748989624999,157.748989624999,157.748989624999,160.76363941700038,160.76363941700038,161.74719637499948,1,1,1.2129460409996682,0.21899962499992398,None,161.74857354199958,161.74874029199964,None,161.74888524999915,161.74894108400076,None,,,,,,,,,,,,,1,6,0,1,2025-01-13_11h36.30.746,rtmindeye,2024.1.5,None,2025-01-13 11h36.45.624132 -0500,
all_stimuli/MST_pairs1/pair_2_4_89.png,16,0,0,0,0,6,1,"[9, 21, 31, 45, 56, 68, 69]",,,,,0,0,0,0,0,16,16,16,161.76850291700066,,,,,,,,,,,,,,,,,,,,,,161.74966916700032,161.7500016670001,161.75001924999924,161.76850291700066,161.76850291700066,161.76850291700066,161.76850291700066,164.78188212500027,164.78188212500027,165.76307254200037,1,1,1.1395569569995132,0.19695116699949722,None,165.76373645899912,165.76380733400038,None,165.7639286249996,165.7639681670007,None,,,,,,,,,,,,,1,6,0,1,2025-01-13_11h36.30.746,rtmindeye,2024.1.5,None,2025-01-13 11h36.45.624132 -0500,
all_stimuli/shared1000_notspecial/notspecial_26127.png,17,0,0,0,0,6,1,"[9, 21, 31, 45, 56, 68, 69]",,,,,0,0,0,0,0,17,17,17,165.78162233399962,,,,,,,,,,,,,,,,,,,,,,165.76440716700017,165.76452658400012,165.76454283400017,165.78162233399962,165.78162233399962,165.78162233399962,165.78162233399962,168.77809125000022,168.77809125000022,169.76500820900037,1,1,0.8183867489988188,0.20608416700088128,None,169.76564449999933,169.7657133749999,None,169.76583287500034,169.76587287499933,None,,,,,,,,,,,,,1,6,0,1,2025-01-13_11h36.30.746,rtmindeye,2024.1.5,None,2025-01-13 11h36.45.624132 -0500,
all_stimuli/shared1000_notspecial/notspecial_20223.png,18,0,0,0,0,6,1,"[9, 21, 31, 45, 56, 68, 69]",,,,,0,0,0,0,0,18,18,18,169.7818467090001,,,,,,,,,,,,,,,,,,,,,,169.7663062089996,169.76642600000014,169.76644241699978,169.7818467090001,169.7818467090001,169.7818467090001,169.7818467090001,172.7776968750004,172.7776968750004,173.78080987499925,1,1,1.0281926660009049,0.19697633299983863,None,173.7818673340007,173.78198933400017,None,173.7821213749994,173.78217866699924,None,,,,,,,,,,,,,1,6,0,1,2025-01-13_11h36.30.746,rtmindeye,2024.1.5,None,2025-01-13 11h36.45.624132 -0500,
all_stimuli/special515/special_62015.jpg,19,0,1,0,0,6,1,"[9, 21, 31, 45, 56, 68, 69]",,,,,0,0,0,0,0,19,19,19,173.7983144589998,,,,,,,,,,,,,,,,,,,,,,173.78286325000045,173.78321195900025,173.7832292919993,173.7983144589998,173.7983144589998,173.7983144589998,173.7983144589998,176.81341900000007,176.81341900000007,177.781385667,2,1,0.8326649999999063,0.19307270800163678,None,177.78192587500052,177.78198474999954,None,177.7820826669995,177.78211395899962,None,177.79388516700055,177.79388516700055,,,,,,,,,,,1,6,0,1,2025-01-13_11h36.30.746,rtmindeye,2024.1.5,None,2025-01-13 11h36.45.624132 -0500,
all_stimuli/special515/special_10244.jpg,20,0,0,0,0,6,1,"[9, 21, 31, 45, 56, 68, 69]",,,,,0,0,0,0,0,20,20,20,177.79388516700055,,,,,,,,,,,,,,,,,,,,,,177.7824607090006,177.782554292,177.78256758399948,177.79388516700055,177.79388516700055,177.79388516700055,177.79388516700055,180.79809570900034,180.79809570900034,181.77994204199967,1,1,0.989190290998522,0.18401245800123434,None,181.7806039169991,181.78067529200052,None,181.78079629199965,181.78084837499955,None,181.79295612500027,181.79295612500027,,,,,,,,,,,1,6,0,1,2025-01-13_11h36.30.746,rtmindeye,2024.1.5,None,2025-01-13 11h36.45.624132 -0500,
blank.jpg,21,1,0,0,0,6,1,"[9, 21, 31, 45, 56, 68, 69]",,,,,0,0,0,0,0,21,21,21,181.79295612500027,,,,,,,,,,,,,,,,,,,,,,181.78127529199992,181.7813920839999,181.78140808399985,181.79295612500027,181.79295612500027,181.79295612500027,181.79295612500027,184.79475891699985,184.79475891699985,185.77980758400008,None,0,,,None,185.7807125420004,185.78083629200046,None,185.78097833399988,185.7810207500006,None,185.79722020900044,185.79722020900044,,,,,,,,,,,1,6,0,1,2025-01-13_11h36.30.746,rtmindeye,2024.1.5,None,2025-01-13 11h36.45.624132 -0500,
all_stimuli/special515/special_28524.jpg,22,0,0,0,0,6,1,"[9, 21, 31, 45, 56, 68, 69]",,,,,0,0,0,0,0,22,22,22,185.79722020900044,,,,,,,,,,,,,,,,,,,,,,185.78153962500073,185.78170124999997,185.78171800000018,185.79722020900044,185.79722020900044,185.79722020900044,185.79722020900044,188.7946394999999,188.7946394999999,189.78075904199977,1,1,0.808925998999257,0.26088712499949906,None,189.78140470899962,189.7814739589994,None,189.78159370899994,189.78163291700002,None,189.79818162499942,189.79818162499942,,,,,,,,,,,1,6,0,1,2025-01-13_11h36.30.746,rtmindeye,2024.1.5,None,2025-01-13 11h36.45.624132 -0500,
all_stimuli/special515/special_30430.jpg,23,0,0,0,0,6,1,"[9, 21, 31, 45, 56, 68, 69]",,,,,0,0,0,0,0,23,23,23,189.79818162499942,,,,,,,,,,,,,,,,,,,,,,189.78205949999938,189.78217204199973,189.7821882089993,189.79818162499942,189.79818162499942,189.79818162499942,189.79818162499942,192.81350066699997,192.81350066699997,193.78459370900055,1,1,0.9028954160003195,0.22207833300126367,None,193.78525674999946,193.7853347500004,None,193.7854550840002,193.78549645900057,None,,,,,,,,,,,,,1,6,0,1,2025-01-13_11h36.30.746,rtmindeye,2024.1.5,None,2025-01-13 11h36.45.624132 -0500,
all_stimuli/MST_pairs1/pair_10_14_33.png,24,0,0,0,0,6,1,"[9, 21, 31, 45, 56, 68, 69]",,,,,0,0,0,0,0,24,24,24,193.8028805419999,,,,,,,,,,,,,,,,,,,,,,193.78593204199933,193.7860826670003,193.78609929199956,193.8028805419999,193.8028805419999,193.8028805419999,193.8028805419999,196.81329841700062,196.81329841700062,197.79499525000028,1,1,1.19526037399919,0.20194529200125544,None,197.7961721669999,197.79632987500008,None,197.79647070899955,197.7965239999994,None,,,,,,,,,,,,,1,6,0,1,2025-01-13_11h36.30.746,rtmindeye,2024.1.5,None,2025-01-13 11h36.45.624132 -0500,
all_stimuli/shared1000_notspecial/notspecial_10907.png,25,0,0,0,0,6,1,"[9, 21, 31, 45, 56, 68, 69]",,,,,0,0,0,0,0,25,25,25,197.8142978750002,,,,,,,,,,,,,,,,,,,,,,197.79721487499955,197.79748604199995,197.79750366699955,197.8142978750002,197.8142978750002,197.8142978750002,197.8142978750002,200.8131096670004,200.8131096670004,201.7976207920001,1,1,0.9997954580012447,0.2410642499999085,None,201.7982824589999,201.79835475000073,None,201.79847466699903,201.79851374999998,None,201.81472129199938,201.81472129199938,,,,,,,,,,,1,6,0,1,2025-01-13_11h36.30.746,rtmindeye,2024.1.5,None,2025-01-13 11h36.45.624132 -0500,
all_stimuli/special515/special_22587.jpg,26,0,0,0,0,6,1,"[9, 21, 31, 45, 56, 68, 69]",,,,,0,0,0,0,0,26,26,26,201.81472129199938,,,,,,,,,,,,,,,,,,,,,,201.7989772919991,201.799093833999,201.79910974999984,201.81472129199938,201.81472129199938,201.81472129199938,201.81472129199938,204.8113642089993,204.8113642089993,205.79839245900075,None,0,,,['1'],205.8003968339999,205.80055612499928,None,205.8007012500002,205.80075441699955,None,205.8147402499999,205.8147402499999,[0.9484042910007702],[0.19410954200066044],,,,,,,,,1,6,0,1,2025-01-13_11h36.30.746,rtmindeye,2024.1.5,None,2025-01-13 11h36.45.624132 -0500,
all_stimuli/special515/special_3687.jpg,27,0,0,0,0,6,1,"[9, 21, 31, 45, 56, 68, 69]",,,,,0,0,0,0,0,27,27,27,205.8147402499999,,,,,,,,,,,,,,,,,,,,,,205.80163312500008,205.80180416700023,205.80182920900006,205.8147402499999,205.8147402499999,205.8147402499999,205.8147402499999,208.82973429199956,208.82973429199956,209.7984854589995,1,1,0.8294425410003896,0.18399908399987908,None,209.79944433399942,209.79957104200003,None,209.7997136670001,209.79976250000072,None,209.81694516700009,209.81694516700009,,,,,,,,,,,1,6,0,1,2025-01-13_11h36.30.746,rtmindeye,2024.1.5,None,2025-01-13 11h36.45.624132 -0500,
all_stimuli/shared1000_notspecial/notspecial_58164.png,28,0,0,0,0,6,1,"[9, 21, 31, 45, 56, 68, 69]",,,,,0,0,0,0,0,28,28,28,209.81694516700009,,,,,,,,,,,,,,,,,,,,,,209.80056391700055,209.80071495899938,209.8007377089998,209.81694516700009,209.81694516700009,209.81694516700009,209.81694516700009,212.8319270840002,212.8319270840002,213.8142603340002,1,1,1.0852627499989467,0.23100037500080361,None,213.8153495839997,213.8154969169991,None,213.81566229199962,213.81572695899922,None,,,,,,,,,,,,,1,6,0,1,2025-01-13_11h36.30.746,rtmindeye,2024.1.5,None,2025-01-13 11h36.45.624132 -0500,
all_stimuli/special515/special_38494.jpg,29,0,0,0,0,6,1,"[9, 21, 31, 45, 56, 68, 69]",,,,,0,0,0,0,0,29,29,29,213.8322254169998,,,,,,,,,,,,,,,,,,,,,,213.81648820900045,213.81680854200022,213.81682958400052,213.8322254169998,213.8322254169998,213.8322254169998,213.8322254169998,216.82841100000041,216.82841100000041,217.8312790839991,1,1,0.806052207999528,0.21287445800044225,None,217.8319419590007,217.83201937500053,None,217.83214191700063,217.83218358399972,None,,,,,,,,,,,,,1,6,0,1,2025-01-13_11h36.30.746,rtmindeye,2024.1.5,None,2025-01-13 11h36.45.624132 -0500,
all_stimuli/MST_pairs1/pair_12_16_22.png,30,0,0,0,0,6,1,"[9, 21, 31, 45, 56, 68, 69]",,,,,0,0,0,0,0,30,30,30,217.8508829170005,,,,,,,,,,,,,,,,,,,,,,217.83262400000058,217.8327468339994,217.83276291699985,217.8508829170005,217.8508829170005,217.8508829170005,217.8508829170005,220.84462387500025,220.84462387500025,221.8483333339991,1,1,0.8443328329994984,0.18997124999987136,None,221.84974020899972,221.8499165840003,None,221.8500903339991,221.85015054199903,None,,,,,,,,,,,,,1,6,0,1,2025-01-13_11h36.30.746,rtmindeye,2024.1.5,None,2025-01-13 11h36.45.624132 -0500,
blank.jpg,31,1,0,0,0,6,1,"[9, 21, 31, 45, 56, 68, 69]",,,,,0,0,0,0,0,31,31,31,221.87827787499918,,,,,,,,,,,,,,,,,,,,,,221.85095008399912,221.85133212499932,221.85137145899898,221.87827787499918,221.87827787499918,221.87827787499918,221.87827787499918,224.882342375,224.882342375,225.86362870899939,None,0,,,None,225.86410375000014,225.86417395900025,None,225.86429908399987,225.86433949999991,None,,,,,,,,,,,,,1,6,0,1,2025-01-13_11h36.30.746,rtmindeye,2024.1.5,None,2025-01-13 11h36.45.624132 -0500,
all_stimuli/special515/special_66489.jpg,32,0,0,0,0,6,1,"[9, 21, 31, 45, 56, 68, 69]",,,,,0,0,0,0,0,32,32,32,225.88190070900055,,,,,,,,,,,,,,,,,,,,,,225.86478870899919,225.86490995900022,225.86492670900043,225.88190070900055,225.88190070900055,225.88190070900055,225.88190070900055,228.8980628749996,228.8980628749996,229.86455308400036,1,1,0.7963059989997419,0.19001687499985565,None,229.86518445900037,229.86525274999985,None,229.86537104200033,229.86541029199907,None,229.89230225000028,229.89230225000028,,,,,,,,,,,1,6,0,1,2025-01-13_11h36.30.746,rtmindeye,2024.1.5,None,2025-01-13 11h36.45.624132 -0500,
all_stimuli/MST_pairs1/pair_28_nsd_547_1_cocoid_60932.png,33,0,0,0,0,6,1,"[9, 21, 31, 45, 56, 68, 69]",,,,,0,0,0,0,0,33,33,33,229.89230225000028,,,,,,,,,,,,,,,,,,,,,,229.86583833400073,229.86595695899996,229.8659730420004,229.89230225000028,229.89230225000028,229.89230225000028,229.89230225000028,232.88166699999965,232.88166699999965,233.8805419170003,1,1,0.86994887399851,0.21394887500173354,None,233.88120054200044,233.88128125000003,None,233.88140166700032,233.8814434169999,None,,,,,,,,,,,,,1,6,0,1,2025-01-13_11h36.30.746,rtmindeye,2024.1.5,None,2025-01-13 11h36.45.624132 -0500,
all_stimuli/shared1000_notspecial/notspecial_46002.png,34,0,0,0,0,6,1,"[9, 21, 31, 45, 56, 68, 69]",,,,,0,0,0,0,0,34,34,34,233.89831533399956,,,,,,,,,,,,,,,,,,,,,,233.88189429200065,233.88204045900056,233.88205762500002,233.89831533399956,233.89831533399956,233.89831533399956,233.89831533399956,236.89657566700043,236.89657566700043,237.89807404199928,1,1,0.8669689580001432,0.22302004199991643,None,237.89847266700053,237.89853308400052,None,237.8986028750005,237.89862895899932,None,,,,,,,,,,,,,1,6,0,1,2025-01-13_11h36.30.746,rtmindeye,2024.1.5,None,2025-01-13 11h36.45.624132 -0500,
all_stimuli/special515/special_30632.jpg,35,0,0,0,0,6,1,"[9, 21, 31, 45, 56, 68, 69]",,,,,0,0,0,0,0,35,35,35,237.91542245900018,,,,,,,,,,,,,,,,,,,,,,237.89888087500003,237.89894687500055,237.89895554199938,237.91542245900018,237.91542245900018,237.91542245900018,237.91542245900018,240.91144854199956,240.91144854199956,241.91917837499932,1,1,0.8528181239998958,0.22800100000131351,None,241.9195442500004,241.9195812500002,None,241.91963466699963,241.91965270900073,None,,,,,,,,,,,,,1,6,0,1,2025-01-13_11h36.30.746,rtmindeye,2024.1.5,None,2025-01-13 11h36.45.624132 -0500,
all_stimuli/special515/special_31936.jpg,36,0,0,0,0,6,1,"[9, 21, 31, 45, 56, 68, 69]",,,,,0,0,0,0,0,36,36,36,241.92956712500018,,,,,,,,,,,,,,,,,,,,,,241.9198588750005,241.91994087499916,241.9199481249998,241.92956712500018,241.92956712500018,241.92956712500018,241.92956712500018,244.93018387499978,244.93018387499978,245.91571275000024,1,1,0.9986589990003267,0.1860155840004154,None,245.9169405419998,245.91706700000032,None,245.91721266700006,245.91726974999983,None,245.93667104199994,245.93667104199994,,,,,,,,,,,1,6,0,1,2025-01-13_11h36.30.746,rtmindeye,2024.1.5,None,2025-01-13 11h36.45.624132 -0500,
all_stimuli/MST_pairs1/pair_8_12_56.png,37,0,0,0,0,6,1,"[9, 21, 31, 45, 56, 68, 69]",,,,,0,0,0,0,0,37,37,37,245.93667104199994,,,,,,,,,,,,,,,,,,,,,,245.91806191700016,245.91823291699984,245.91825604199948,245.93667104199994,245.93667104199994,245.93667104199994,245.93667104199994,248.93495037499997,248.93495037499997,249.9317121669992,1,1,0.914583333000337,0.20600633299909532,None,249.93271187500068,249.93288158399992,None,249.93303474999993,249.93308816699937,None,,,,,,,,,,,,,1,6,0,1,2025-01-13_11h36.30.746,rtmindeye,2024.1.5,None,2025-01-13 11h36.45.624132 -0500,
all_stimuli/special515/special_19074.jpg,38,0,0,0,0,6,1,"[9, 21, 31, 45, 56, 68, 69]",,,,,0,0,0,0,0,38,38,38,249.9496085840001,,,,,,,,,,,,,,,,,,,,,,249.9338354169995,249.93401245899986,249.93403462499919,249.9496085840001,249.9496085840001,249.9496085840001,249.9496085840001,252.94813033399987,252.94813033399987,253.9657860419993,1,1,0.9451240409998718,0.20354779100125597,None,253.96617800000058,253.96621737500027,None,253.9662720840006,253.96629308400043,None,,,,,,,,,,,,,1,6,0,1,2025-01-13_11h36.30.746,rtmindeye,2024.1.5,None,2025-01-13 11h36.45.624132 -0500,
all_stimuli/shared1000_notspecial/notspecial_42648.png,39,0,0,0,0,6,1,"[9, 21, 31, 45, 56, 68, 69]",,,,,0,0,0,0,0,39,39,39,253.97721670899955,,,,,,,,,,,,,,,,,,,,,,253.96651012499933,253.96659700000055,253.96660424999936,253.97721670899955,253.97721670899955,253.97721670899955,253.97721670899955,256.9814449589994,256.9814449589994,257.96530120900024,1,1,0.7621528330000729,0.1702692079998087,None,257.9664858340002,257.96662070899947,None,257.9667294589999,257.9667647089991,None,257.99066262499946,257.99066262499946,,,,,,,,,,,1,6,0,1,2025-01-13_11h36.30.746,rtmindeye,2024.1.5,None,2025-01-13 11h36.45.624132 -0500,
all_stimuli/MST_pairs1/pair_12_16_22.png,40,0,1,0,0,6,1,"[9, 21, 31, 45, 56, 68, 69]",,,,,0,0,0,0,0,40,40,40,257.99066262499946,,,,,,,,,,,,,,,,,,,,,,257.96721283400075,257.96736420900015,257.96737787500024,257.99066262499946,257.99066262499946,257.99066262499946,257.99066262499946,260.98381095900004,260.98381095900004,261.9781935840001,2,1,1.1196512910009915,0.18302358399887453,None,261.9785810840003,261.97862816700035,None,261.9786938750003,261.97871633400064,None,,,,,,,,,,,,,1,6,0,1,2025-01-13_11h36.30.746,rtmindeye,2024.1.5,None,2025-01-13 11h36.45.624132 -0500,
all_stimuli/shared1000_notspecial/notspecial_3951.png,41,0,0,0,0,6,1,"[9, 21, 31, 45, 56, 68, 69]",,,,,0,0,0,0,0,41,41,41,261.99132108400045,,,,,,,,,,,,,,,,,,,,,,261.97897891699904,261.9790560000001,261.9790648340004,261.99132108400045,261.99132108400045,261.99132108400045,261.99132108400045,264.9814911249996,264.9814911249996,265.98231987500003,1,1,1.025973415999033,0.19408149999981106,None,265.9829534170003,265.9830254589997,None,265.98314770899924,265.98318833399935,None,,,,,,,,,,,,,1,6,0,1,2025-01-13_11h36.30.746,rtmindeye,2024.1.5,None,2025-01-13 11h36.45.624132 -0500,
all_stimuli/MST_pairs1/pair_12_16_78.png,42,0,0,0,0,6,1,"[9, 21, 31, 45, 56, 68, 69]",,,,,0,0,0,0,0,42,42,42,266.0017024589997,,,,,,,,,,,,,,,,,,,,,,265.9836137500006,265.98375308399955,265.9837696249997,266.0017024589997,266.0017024589997,266.0017024589997,266.0017024589997,269.01372220899975,269.01372220899975,269.9948412499998,1,1,1.0056510829999752,0.20395579199976055,None,269.99538129199937,269.9954375840007,None,269.99553491699953,269.9955674169996,None,,,,,,,,,,,,,1,6,0,1,2025-01-13_11h36.30.746,rtmindeye,2024.1.5,None,2025-01-13 11h36.45.624132 -0500,
all_stimuli/special515/special_11952.jpg,43,0,0,0,0,6,1,"[9, 21, 31, 45, 56, 68, 69]",,,,,0,0,0,0,0,43,43,43,270.0093883339996,,,,,,,,,,,,,,,,,,,,,,269.99592216699966,269.9960197500004,269.9960329589994,270.0093883339996,270.0093883339996,270.0093883339996,270.0093883339996,272.9980989169999,272.9980989169999,273.99721854199925,1,1,0.7640152500007389,0.21293287499975122,None,273.9978741249997,273.99794437499986,None,273.99806495899975,273.9981051670002,None,,,,,,,,,,,,,1,6,0,1,2025-01-13_11h36.30.746,rtmindeye,2024.1.5,None,2025-01-13 11h36.45.624132 -0500,
all_stimuli/MST_pairs1/pair_14_18_22.png,44,0,0,0,0,6,1,"[9, 21, 31, 45, 56, 68, 69]",,,,,0,0,0,0,0,44,44,44,274.01706958400064,,,,,,,,,,,,,,,,,,,,,,273.99855424999987,273.99869595900054,273.9987122500006,274.01706958400064,274.01706958400064,274.01706958400064,274.01706958400064,277.01542766700004,277.01542766700004,278.011543958999,1,1,1.0172701240007882,0.2100929169992014,None,278.01223745899915,278.01231000000007,None,278.01243295899985,278.01247320900075,None,,,,,,,,,,,,,1,6,0,1,2025-01-13_11h36.30.746,rtmindeye,2024.1.5,None,2025-01-13 11h36.45.624132 -0500,
blank.jpg,45,1,0,0,0,6,1,"[9, 21, 31, 45, 56, 68, 69]",,,,,0,0,0,0,0,45,45,45,278.02238358400064,,,,,,,,,,,,,,,,,,,,,,278.0129092919997,278.0130359169998,278.01305208399936,278.02238358400064,278.02238358400064,278.02238358400064,278.02238358400064,281.03080924999995,281.03080924999995,282.0118210420005,None,0,,,None,282.0121915,282.01224937500047,None,282.0123496670003,282.0123832499994,None,282.0272828750003,282.0272828750003,,,,,,,,,,,1,6,0,1,2025-01-13_11h36.30.746,rtmindeye,2024.1.5,None,2025-01-13 11h36.45.624132 -0500,
all_stimuli/MST_pairs1/pair_16_20_56.png,46,0,0,0,0,6,1,"[9, 21, 31, 45, 56, 68, 69]",,,,,0,0,0,0,0,46,46,46,282.0272828750003,,,,,,,,,,,,,,,,,,,,,,282.0127497499998,282.01284162499906,282.0128548339999,282.0272828750003,282.0272828750003,282.0272828750003,282.0272828750003,285.01482379200024,285.01482379200024,286.011726834,1,1,0.8821927910012164,0.20888762499998847,None,286.0123309169994,286.01239299999907,None,286.01249595899935,286.01252804199976,None,286.02867654200054,286.02867654200054,,,,,,,,,,,1,6,0,1,2025-01-13_11h36.30.746,rtmindeye,2024.1.5,None,2025-01-13 11h36.45.624132 -0500,
all_stimuli/special515/special_8933.jpg,47,0,0,0,0,6,1,"[9, 21, 31, 45, 56, 68, 69]",,,,,0,0,0,0,0,47,47,47,286.02867654200054,,,,,,,,,,,,,,,,,,,,,,286.01292395900055,286.0130189169995,286.01303208399986,286.02867654200054,286.02867654200054,286.02867654200054,286.02867654200054,289.0311402499992,289.0311402499992,290.01474012499966,1,1,0.9377059580001514,0.18903670799954853,None,290.01540187499995,290.0154730840004,None,290.015598209,290.01564008400055,None,,,,,,,,,,,,,1,6,0,1,2025-01-13_11h36.30.746,rtmindeye,2024.1.5,None,2025-01-13 11h36.45.624132 -0500,
all_stimuli/MST_pairs1/pair_16_20_56.png,48,0,1,0,0,6,1,"[9, 21, 31, 45, 56, 68, 69]",,,,,0,0,0,0,0,48,48,48,290.0336351669994,,,,,,,,,,,,,,,,,,,,,,290.0160952499991,290.01622079200024,290.01623708400075,290.0336351669994,290.0336351669994,290.0336351669994,290.0336351669994,293.0468338749997,293.0468338749997,294.0282174999993,2,1,0.6877954989995487,0.24400954200064007,None,294.0287575420007,294.0288155420003,None,294.0289127920005,294.02894570900025,None,,,,,,,,,,,,,1,6,0,1,2025-01-13_11h36.30.746,rtmindeye,2024.1.5,None,2025-01-13 11h36.45.624132 -0500,
all_stimuli/special515/special_5034.jpg,49,0,0,0,0,6,1,"[9, 21, 31, 45, 56, 68, 69]",,,,,0,0,0,0,0,49,49,49,294.04036666699903,,,,,,,,,,,,,,,,,,,,,,294.0293110420007,294.029408041999,294.02942124999936,294.04036666699903,294.04036666699903,294.04036666699903,294.04036666699903,297.0318091249992,297.0318091249992,298.0376589589996,1,1,0.7950625409994245,0.1980479160010873,None,298.03805916700003,298.03810412500025,None,298.0381612500005,298.0381802920001,None,,,,,,,,,,,,,1,6,0,1,2025-01-13_11h36.30.746,rtmindeye,2024.1.5,None,2025-01-13 11h36.45.624132 -0500,
all_stimuli/MST_pairs1/pair_16_20_0.png,50,0,0,0,0,6,1,"[9, 21, 31, 45, 56, 68, 69]",,,,,0,0,0,0,0,50,50,50,298.0478277919992,,,,,,,,,,,,,,,,,,,,,,298.0384101670006,298.0384914589995,298.0384987090001,298.0478277919992,298.0478277919992,298.0478277919992,298.0478277919992,301.04709133399956,301.04709133399956,302.0310621669996,1,1,1.05370691600001,0.1919428750006773,None,302.0319628340003,302.03206537500046,None,302.0322197919995,302.0322741250002,None,302.04892179200033,302.04892179200033,,,,,,,,,,,1,6,0,1,2025-01-13_11h36.30.746,rtmindeye,2024.1.5,None,2025-01-13 11h36.45.624132 -0500,
all_stimuli/MST_pairs1/pair_46_w_pool2.jpg,51,0,0,0,0,6,1,"[9, 21, 31, 45, 56, 68, 69]",,,,,0,0,0,0,0,51,51,51,302.04892179200033,,,,,,,,,,,,,,,,,,,,,,302.0329995840002,302.0331873340001,302.03321408400006,302.04892179200033,302.04892179200033,302.04892179200033,302.04892179200033,305.04737062499953,305.04737062499953,306.0317022920008,1,1,0.9525181660010276,0.19502233299863292,None,306.0322320840005,306.0322911250005,None,306.03238895899995,306.03242158399917,None,306.0481901250005,306.0481901250005,,,,,,,,,,,1,6,0,1,2025-01-13_11h36.30.746,rtmindeye,2024.1.5,None,2025-01-13 11h36.45.624132 -0500,
all_stimuli/special515/special_62228.jpg,52,0,0,0,0,6,1,"[9, 21, 31, 45, 56, 68, 69]",,,,,0,0,0,0,0,52,52,52,306.0481901250005,,,,,,,,,,,,,,,,,,,,,,306.0327799589995,306.0328721250007,306.0328849590005,306.0481901250005,306.0481901250005,306.0481901250005,306.0481901250005,309.04475495899896,309.04475495899896,310.035212625,1,1,1.034359624998615,0.203016416000537,None,310.03573929199956,310.03579874999923,None,310.0358954170006,310.03592887500054,None,,,,,,,,,,,,,1,6,0,1,2025-01-13_11h36.30.746,rtmindeye,2024.1.5,None,2025-01-13 11h36.45.624132 -0500,
all_stimuli/MST_pairs1/pair_40_w_escalator2.jpg,53,0,0,0,0,6,1,"[9, 21, 31, 45, 56, 68, 69]",,,,,0,0,0,0,0,53,53,53,310.04920604200015,,,,,,,,,,,,,,,,,,,,,,310.0362850420006,310.0363951250001,310.0364085420006,310.04920604200015,310.04920604200015,310.04920604200015,310.04920604200015,313.0478479169997,313.0478479169997,314.0449559589997,1,1,0.8813210829994205,0.19599262500014447,None,314.0454988750007,314.04555591700046,None,314.04564554199897,314.0456746250002,None,,,,,,,,,,,,,1,6,0,1,2025-01-13_11h36.30.746,rtmindeye,2024.1.5,None,2025-01-13 11h36.45.624132 -0500,
all_stimuli/MST_pairs1/pair_20_nsd_41_2_cocoid_63715.png,54,0,0,0,0,6,1,"[9, 21, 31, 45, 56, 68, 69]",,,,,0,0,0,0,0,54,54,54,314.07008020899957,,,,,,,,,,,,,,,,,,,,,,314.0460325839995,314.046135999999,314.04615037499934,314.07008020899957,314.07008020899957,314.07008020899957,314.07008020899957,317.0808936249996,317.0808936249996,318.0476073339996,1,1,0.8914354569988063,0.18397270900095464,None,318.04812583400053,318.0481857089999,None,318.04828174999966,318.0483142089997,None,,,,,,,,,,,,,1,6,0,1,2025-01-13_11h36.30.746,rtmindeye,2024.1.5,None,2025-01-13 11h36.45.624132 -0500,
all_stimuli/shared1000_notspecial/notspecial_22155.png,55,0,0,0,0,6,1,"[9, 21, 31, 45, 56, 68, 69]",,,,,0,0,0,0,0,55,55,55,318.06503766700007,,,,,,,,,,,,,,,,,,,,,,318.0486627499995,318.0487592499994,318.04877266699987,318.06503766700007,318.06503766700007,318.06503766700007,318.06503766700007,321.0617649169999,321.0617649169999,322.06448724999973,1,1,1.0874800410001626,0.17309387499881268,None,322.065489958999,322.06561429199974,None,322.06583816700004,322.06588654199913,None,,,,,,,,,,,,,1,6,0,1,2025-01-13_11h36.30.746,rtmindeye,2024.1.5,None,2025-01-13 11h36.45.624132 -0500,
blank.jpg,56,1,0,0,0,6,1,"[9, 21, 31, 45, 56, 68, 69]",,,,,0,0,0,0,0,56,56,56,322.0778243749992,,,,,,,,,,,,,,,,,,,,,,322.06641300000047,322.06656779200057,322.0665838749992,322.0778243749992,322.0778243749992,322.0778243749992,322.0778243749992,325.06583616699936,325.06583616699936,326.06442970900025,None,0,,,None,326.0648805000001,326.0649522500007,None,326.06507579199933,326.0651169590001,None,326.0818286670001,326.0818286670001,,,,,,,,,,,1,6,0,1,2025-01-13_11h36.30.746,rtmindeye,2024.1.5,None,2025-01-13 11h36.45.624132 -0500,
all_stimuli/special515/special_11617.jpg,57,0,0,0,0,6,1,"[9, 21, 31, 45, 56, 68, 69]",,,,,0,0,0,0,0,57,57,57,326.0818286670001,,,,,,,,,,,,,,,,,,,,,,326.06555404199935,326.0656677089992,326.06568374999915,326.0818286670001,326.0818286670001,326.0818286670001,326.0818286670001,329.08066212499944,329.08066212499944,330.06543233400043,1,1,0.7047022499991726,0.19001199999911478,None,330.06588741700034,330.0659356670003,None,330.0660178340004,330.0660451250005,None,330.0824047089991,330.0824047089991,,,,,,,,,,,1,6,0,1,2025-01-13_11h36.30.746,rtmindeye,2024.1.5,None,2025-01-13 11h36.45.624132 -0500,
all_stimuli/MST_pairs1/pair_14_18_22.png,58,0,1,0,0,6,1,"[9, 21, 31, 45, 56, 68, 69]",,,,,0,0,0,0,0,58,58,58,330.0824047089991,,,,,,,,,,,,,,,,,,,,,,330.0663421249992,330.06642091699905,330.06643191699914,330.0824047089991,330.0824047089991,330.0824047089991,330.0824047089991,333.0784572499997,333.0784572499997,334.0650098339993,2,1,1.1821684580008878,0.23099962499873072,None,334.06563316699976,334.065701042,None,334.0658177919995,334.0658565419999,None,334.0817552089993,334.0817552089993,,,,,,,,,,,1,6,0,1,2025-01-13_11h36.30.746,rtmindeye,2024.1.5,None,2025-01-13 11h36.45.624132 -0500,
all_stimuli/shared1000_notspecial/notspecial_63081.png,59,0,0,0,0,6,1,"[9, 21, 31, 45, 56, 68, 69]",,,,,0,0,0,0,0,59,59,59,334.0817552089993,,,,,,,,,,,,,,,,,,,,,,334.0662835000003,334.066395459,334.0664115420004,334.0817552089993,334.0817552089993,334.0817552089993,334.0817552089993,337.07879179200063,337.07879179200063,338.0656917920005,1,1,1.289864623999165,0.1939963330005412,None,338.0664902919998,338.0665864170005,None,338.06673950000004,338.06679270899986,None,338.0816002089996,338.0816002089996,,,,,,,,,,,1,6,0,1,2025-01-13_11h36.30.746,rtmindeye,2024.1.5,None,2025-01-13 11h36.45.624132 -0500,
all_stimuli/MST_pairs1/pair_42_w_icerink2.jpg,60,0,0,0,0,6,1,"[9, 21, 31, 45, 56, 68, 69]",,,,,0,0,0,0,0,60,60,60,338.0816002089996,,,,,,,,,,,,,,,,,,,,,,338.0673728340007,338.0675415839996,338.06756304199916,338.0816002089996,338.0816002089996,338.0816002089996,338.0816002089996,341.07860724999955,341.07860724999955,342.06555350000053,1,1,0.9460042489990883,0.20397062499978347,None,342.0666082919997,342.06673124999907,None,342.0668755000006,342.06692645899966,None,342.0815094169993,342.0815094169993,,,,,,,,,,,1,6,0,1,2025-01-13_11h36.30.746,rtmindeye,2024.1.5,None,2025-01-13 11h36.45.624132 -0500,
all_stimuli/MST_pairs1/pair_46_w_pool1.jpg,61,0,0,0,0,6,1,"[9, 21, 31, 45, 56, 68, 69]",,,,,0,0,0,0,0,61,61,61,342.0815094169993,,,,,,,,,,,,,,,,,,,,,,342.0677046670007,342.0678524590003,342.0678743339995,342.0815094169993,342.0815094169993,342.0815094169993,342.0815094169993,345.09716420900077,345.09716420900077,346.0667996249995,1,1,1.7241810410014295,0.1979243329988094,None,346.06809729199995,346.068215416999,None,346.06836037500034,346.0684164590002,None,346.0860408749995,346.0860408749995,,,,,,,,,,,1,6,0,1,2025-01-13_11h36.30.746,rtmindeye,2024.1.5,None,2025-01-13 11h36.45.624132 -0500,
all_stimuli/special515/special_40840.jpg,62,0,0,0,0,6,1,"[9, 21, 31, 45, 56, 68, 69]",,,,,0,0,0,0,0,62,62,62,346.0860408749995,,,,,,,,,,,,,,,,,,,,,,346.0690638750002,346.06918266699904,346.0691997089998,346.0860408749995,346.0860408749995,346.0860408749995,346.0860408749995,349.09980033399916,349.09980033399916,350.0789235840002,1,1,1.2916168329993525,0.18401066700062074,None,350.0794839169994,350.0795453749997,None,350.0796488750002,350.0796815419999,None,,,,,,,,,,,,,1,6,0,1,2025-01-13_11h36.30.746,rtmindeye,2024.1.5,None,2025-01-13 11h36.45.624132 -0500,
all_stimuli/special515/special_29837.jpg,63,0,0,0,0,6,1,"[9, 21, 31, 45, 56, 68, 69]",,,,,0,0,0,0,0,63,63,63,350.091908041999,,,,,,,,,,,,,,,,,,,,,,350.080048333999,350.0801731249994,350.08018704200003,350.091908041999,350.091908041999,350.091908041999,350.091908041999,353.0968625000005,353.0968625000005,354.0814957090006,1,1,1.285769165999227,0.1919275000000198,None,354.08217795900055,354.0822581249995,None,354.08237974999975,354.0824196249996,None,,,,,,,,,,,,,1,6,0,1,2025-01-13_11h36.30.746,rtmindeye,2024.1.5,None,2025-01-13 11h36.45.624132 -0500,
all_stimuli/shared1000_notspecial/notspecial_4768.png,64,0,0,0,0,6,1,"[9, 21, 31, 45, 56, 68, 69]",,,,,0,0,0,0,0,64,64,64,354.10119937499985,,,,,,,,,,,,,,,,,,,,,,354.0828859590001,354.08303770900056,354.0830569589998,354.10119937499985,354.10119937499985,354.10119937499985,354.10119937499985,357.0980323749991,357.0980323749991,358.0979058339999,None,0,,,['1'],358.0986027500003,358.09868016700057,None,358.0988051669992,358.0988482089997,None,,,[0.8805006239999784],[0.20993904199895042],,,,,,,,,1,6,0,1,2025-01-13_11h36.30.746,rtmindeye,2024.1.5,None,2025-01-13 11h36.45.624132 -0500,
all_stimuli/MST_pairs1/pair_20_nsd_41_1_cocoid_15472.png,65,0,0,0,0,6,1,"[9, 21, 31, 45, 56, 68, 69]",,,,,0,0,0,0,0,65,65,65,358.12873916699937,,,,,,,,,,,,,,,,,,,,,,358.09932208399914,358.0994749170004,358.09949108399996,358.12873916699937,358.12873916699937,358.12873916699937,358.12873916699937,361.13034670900015,361.13034670900015,362.1145787919995,1,1,1.0859179579983902,0.19605895800123108,None,362.1159105000006,362.1160991249999,None,362.11624433399993,362.1162949169993,None,,,,,,,,,,,,,1,6,0,1,2025-01-13_11h36.30.746,rtmindeye,2024.1.5,None,2025-01-13 11h36.45.624132 -0500,
all_stimuli/shared1000_notspecial/notspecial_53157.png,66,0,0,0,0,6,1,"[9, 21, 31, 45, 56, 68, 69]",,,,,0,0,0,0,0,66,66,66,362.135125458999,,,,,,,,,,,,,,,,,,,,,,362.1170097920003,362.117342042,362.11735879200023,362.135125458999,362.135125458999,362.135125458999,362.135125458999,365.14973737500077,365.14973737500077,366.1307441249992,1,1,0.8866239159997349,0.19389425000008487,None,366.13174937499934,366.1318645419997,None,366.13199887500014,366.13205279199974,None,,,,,,,,,,,,,1,6,0,1,2025-01-13_11h36.30.746,rtmindeye,2024.1.5,None,2025-01-13 11h36.45.624132 -0500,
all_stimuli/special515/special_38641.jpg,67,0,1,0,0,6,1,"[9, 21, 31, 45, 56, 68, 69]",,,,,0,0,0,0,0,67,67,67,366.1493360000004,,,,,,,,,,,,,,,,,,,,,,366.1327199999996,366.133109417,366.1331530839998,366.1493360000004,366.1493360000004,366.1493360000004,366.1493360000004,369.1641160420004,369.1641160420004,370.14822529199955,2,1,0.9944092909991014,0.19500958400021773,None,370.1488615420003,370.148939834,None,370.14906008400067,370.14910087499993,None,,,,,,,,,,,,,1,6,0,1,2025-01-13_11h36.30.746,rtmindeye,2024.1.5,None,2025-01-13 11h36.45.624132 -0500,
blank.jpg,68,1,0,0,0,6,1,"[9, 21, 31, 45, 56, 68, 69]",,,,,0,0,0,0,0,68,68,68,370.1616007920002,,,,,,,,,,,,,,,,,,,,,,370.1495746670007,370.1497269169995,370.1497434590001,370.1616007920002,370.1616007920002,370.1616007920002,370.1616007920002,373.16418770900054,373.16418770900054,374.14712054200027,None,0,,,None,374.1478698339997,374.1479730840001,None,374.14820704200065,374.14826745900064,None,374.1620315420005,374.1620315420005,,,,,,,,,,,1,6,0,1,2025-01-13_11h36.30.746,rtmindeye,2024.1.5,None,2025-01-13 11h36.45.624132 -0500,
blank.jpg,69,1,0,1,0,6,0,"[9, 21, 31, 45, 56, 68, 69]",,,,,0,0,0,0,0,69,69,69,374.1620315420005,,,,,,,,,,,,,,,,,,,,,,374.14901779200045,374.1491578339992,374.1491781250006,374.1620315420005,374.1620315420005,374.1620315420005,374.1620315420005,377.1485112499995,377.1485112499995,378.14559058399936,None,0,,,None,378.1460613340005,392.26698487499925,1,392.26822608399925,481.5968619590003,equal,378.16804966699965,378.16804966699965,,,378.16804966699965,378.16804966699965,14.085879083000691,None,392.2783498339995,392.2783498339995,89.30878429100085,None,1,6,0,1,2025-01-13_11h36.30.746,rtmindeye,2024.1.5,None,2025-01-13 11h36.45.624132 -0500,
,,,,,,,,,,,,,0,0,0,0,,,,,,,,,,,,,,,,,,,,,,,,,,,,,,,,,,,,,,,,,,,,,,,,,,,,,,,,,,,,1,6,0,1,2025-01-13_11h36.30.746,rtmindeye,2024.1.5,None,2025-01-13 11h36.45.624132 -0500,
all_stimuli/special515/special_71450.jpg,0,0,0,0,1,6,1,"[9, 21, 31, 45, 56, 68, 69]",,,,,1,0,1,0,0,0,0,0,481.6317438339993,,,,,,,,,,,,,,,,,,,,,,481.61534691700035,481.61570224999923,481.6157153749991,481.6317438339993,481.6317438339993,481.6317438339993,481.6317438339993,484.62908883399905,484.62908883399905,485.6149585000003,1,1,1.5064128329995583,0.2199966249991121,None,485.6160684589995,485.6161517500004,None,485.6164153339996,485.61646883399953,None,485.63211087499985,485.63211087499985,,,,,,,,,,,1,6,0,1,2025-01-13_11h36.30.746,rtmindeye,2024.1.5,None,2025-01-13 11h36.45.624132 -0500,
all_stimuli/special515/special_38246.jpg,1,0,0,0,1,6,1,"[9, 21, 31, 45, 56, 68, 69]",,,,,1,0,1,0,0,1,1,1,485.63211087499985,,,,,,,,,,,,,,,,,,,,,,485.61711062500035,485.6172296250006,485.61724604200026,485.63211087499985,485.63211087499985,485.63211087499985,485.63211087499985,488.63064258399936,488.63064258399936,489.6149659999992,1,1,0.9230105409988028,0.18495633300153713,None,489.6155861669995,489.61565583399897,None,489.615771458999,489.61581033400034,None,489.63308708399927,489.63308708399927,,,,,,,,,,,1,6,0,1,2025-01-13_11h36.30.746,rtmindeye,2024.1.5,None,2025-01-13 11h36.45.624132 -0500,
all_stimuli/special515/special_10046.jpg,2,0,0,0,1,6,1,"[9, 21, 31, 45, 56, 68, 69]",,,,,1,0,1,0,0,2,2,2,489.63308708399927,,,,,,,,,,,,,,,,,,,,,,489.6162369169997,489.6163507500005,489.6163667919991,489.63308708399927,489.63308708399927,489.63308708399927,489.63308708399927,492.63111687499986,492.63111687499986,493.6178427089999,1,1,0.8780784160007897,0.20791320900025312,None,493.61829254199984,493.61834383399946,None,493.61842558399985,493.61845379199985,None,,,,,,,,,,,,,1,6,0,1,2025-01-13_11h36.30.746,rtmindeye,2024.1.5,None,2025-01-13 11h36.45.624132 -0500,
all_stimuli/MST_pairs1/pair_38_w_arch2.jpg,3,0,0,0,1,6,1,"[9, 21, 31, 45, 56, 68, 69]",,,,,1,0,1,0,0,3,3,3,493.63230787499924,,,,,,,,,,,,,,,,,,,,,,493.6187560840008,493.6188422920004,493.6188531249991,493.63230787499924,493.63230787499924,493.63230787499924,493.63230787499924,496.62898441700054,496.62898441700054,497.63200220900035,1,1,0.9778702909989079,0.18694137500096986,None,497.6329613750004,497.6330739999994,None,497.6332187499993,497.6332697500002,None,,,,,,,,,,,,,1,6,0,1,2025-01-13_11h36.30.746,rtmindeye,2024.1.5,None,2025-01-13 11h36.45.624132 -0500,
all_stimuli/special515/special_30395.jpg,4,0,0,0,1,6,1,"[9, 21, 31, 45, 56, 68, 69]",,,,,1,0,1,0,0,4,4,4,497.64962862500033,,,,,,,,,,,,,,,,,,,,,,497.63395191699965,497.6342511669991,497.63426866699956,497.64962862500033,497.64962862500033,497.64962862500033,497.64962862500033,500.66687308399923,500.66687308399923,501.63603687499926,1,1,0.9815312909995555,0.20303316699937568,None,501.6363930839998,501.63643137500003,None,501.63648520899915,501.63650354200036,None,,,,,,,,,,,,,1,6,0,1,2025-01-13_11h36.30.746,rtmindeye,2024.1.5,None,2025-01-13 11h36.45.624132 -0500,
all_stimuli/special515/special_38494.jpg,5,0,1,0,1,6,1,"[9, 21, 31, 45, 56, 68, 69]",,,,,1,0,1,0,0,5,5,5,501.661923833999,,,,,,,,,,,,,,,,,,,,,,501.6367155000007,501.63678849999997,501.63679562499965,501.661923833999,501.661923833999,501.661923833999,501.661923833999,504.64933937500064,504.64933937500064,505.6458071249999,2,1,0.824212041001374,0.19107070799873327,None,505.6464728339997,505.64654554200024,None,505.64667558399924,505.6467168340005,None,,,,,,,,,,,,,1,6,0,1,2025-01-13_11h36.30.746,rtmindeye,2024.1.5,None,2025-01-13 11h36.45.624132 -0500,
all_stimuli/MST_pairs1/pair_28_nsd_547_1_cocoid_60932.png,6,0,1,0,1,6,1,"[9, 21, 31, 45, 56, 68, 69]",,,,,1,0,1,0,0,6,6,6,505.6718638750008,,,,,,,,,,,,,,,,,,,,,,505.64714316699974,505.64727795900035,505.6472945839996,505.6718638750008,505.6718638750008,505.6718638750008,505.6718638750008,508.66545204199974,508.66545204199974,509.6507628340005,2,1,0.8052908330009814,0.16611579200070992,None,509.6513905419997,509.6514637500004,None,509.65158033400076,509.65162095899905,None,,,,,,,,,,,,,1,6,0,1,2025-01-13_11h36.30.746,rtmindeye,2024.1.5,None,2025-01-13 11h36.45.624132 -0500,
all_stimuli/special515/special_61133.jpg,7,0,0,0,1,6,1,"[9, 21, 31, 45, 56, 68, 69]",,,,,1,0,1,0,0,7,7,7,509.66697345899956,,,,,,,,,,,,,,,,,,,,,,509.6520463750003,509.65217400000074,509.6521901670003,509.66697345899956,509.66697345899956,509.66697345899956,509.66697345899956,512.6820433339999,512.6820433339999,513.6651565419997,1,1,0.884261498998967,0.1689532500004134,None,513.6666148749991,513.6667792499993,None,513.6669238750001,513.6669727919998,None,,,,,,,,,,,,,1,6,0,1,2025-01-13_11h36.30.746,rtmindeye,2024.1.5,None,2025-01-13 11h36.45.624132 -0500,
all_stimuli/shared1000_notspecial/notspecial_16635.png,8,0,0,0,1,6,1,"[9, 21, 31, 45, 56, 68, 69]",,,,,1,0,1,0,0,8,8,8,513.686954499999,,,,,,,,,,,,,,,,,,,,,,513.6676781250007,513.6680702920003,513.6680932090003,513.686954499999,513.686954499999,513.686954499999,513.686954499999,516.6985927089991,516.6985927089991,517.6793050420001,None,0,,,None,517.6798344590006,517.6799140420007,None,517.680038167,517.6800786669992,None,,,,,,,,,,,,,1,6,0,1,2025-01-13_11h36.30.746,rtmindeye,2024.1.5,None,2025-01-13 11h36.45.624132 -0500,
blank.jpg,9,1,0,0,1,6,1,"[9, 21, 31, 45, 56, 68, 69]",,,,,1,0,1,0,0,9,9,9,517.6913469169995,,,,,,,,,,,,,,,,,,,,,,517.6805409589997,517.6806615419991,517.6806806250006,517.6913469169995,517.6913469169995,517.6913469169995,517.6913469169995,520.682521708999,520.682521708999,521.6824956670007,None,0,,,None,521.683239,521.683351833999,None,521.683482417,521.6835299590002,None,,,,,,,,,,,,,1,6,0,1,2025-01-13_11h36.30.746,rtmindeye,2024.1.5,None,2025-01-13 11h36.45.624132 -0500,
all_stimuli/MST_pairs1/pair_18_nsd_6_1_cocoid_13417.png,10,0,0,0,1,6,1,"[9, 21, 31, 45, 56, 68, 69]",,,,,1,0,1,0,0,10,10,10,521.7131856670003,,,,,,,,,,,,,,,,,,,,,,521.6841567499996,521.6844617499992,521.6844791669992,521.7131856670003,521.7131856670003,521.7131856670003,521.7131856670003,524.7149707499993,524.7149707499993,525.6992600419999,1,1,0.7271213329986495,0.1949857500003418,None,525.7003455840004,525.700482667,None,525.7006530420003,525.7007195419992,None,,,,,,,,,,,,,1,6,0,1,2025-01-13_11h36.30.746,rtmindeye,2024.1.5,None,2025-01-13 11h36.45.624132 -0500,
all_stimuli/shared1000_notspecial/notspecial_21703.png,11,0,0,0,1,6,1,"[9, 21, 31, 45, 56, 68, 69]",,,,,1,0,1,0,0,11,11,11,525.7199745420003,,,,,,,,,,,,,,,,,,,,,,525.7015009589995,525.7018602919998,525.701880999999,525.7199745420003,525.7199745420003,525.7199745420003,525.7199745420003,528.7125125839993,528.7125125839993,529.7124474169996,1,1,0.8082388750008249,0.16109487499852548,None,529.7130650420004,529.7131359169998,None,529.7132517919999,529.7132919590003,None,,,,,,,,,,,,,1,6,0,1,2025-01-13_11h36.30.746,rtmindeye,2024.1.5,None,2025-01-13 11h36.45.624132 -0500,
all_stimuli/special515/special_24530.jpg,12,0,0,0,1,6,1,"[9, 21, 31, 45, 56, 68, 69]",,,,,1,0,1,0,0,12,12,12,529.7279487920005,,,,,,,,,,,,,,,,,,,,,,529.7137165000004,529.7138344169998,529.7138516249997,529.7279487920005,529.7279487920005,529.7279487920005,529.7279487920005,532.7157652089991,532.7157652089991,533.714940459,1,1,0.9953791660009301,0.18993254099950718,None,533.7158966669995,533.7160094169994,None,533.7161508339996,533.716207042,None,,,,,,,,,,,,,1,6,0,1,2025-01-13_11h36.30.746,rtmindeye,2024.1.5,None,2025-01-13 11h36.45.624132 -0500,
all_stimuli/shared1000_notspecial/notspecial_6222.png,13,0,0,0,1,6,1,"[9, 21, 31, 45, 56, 68, 69]",,,,,1,0,1,0,0,13,13,13,533.734048291999,,,,,,,,,,,,,,,,,,,,,,533.7170760839999,533.7172571669998,533.7172843749995,533.734048291999,533.734048291999,533.734048291999,533.734048291999,536.7485373340005,536.7485373340005,537.7312595000003,1,1,0.9642490829992312,0.19401108300007763,None,537.7324839169996,537.7326106250002,None,537.7327657089991,537.7328127090004,None,,,,,,,,,,,,,1,6,0,1,2025-01-13_11h36.30.746,rtmindeye,2024.1.5,None,2025-01-13 11h36.45.624132 -0500,
all_stimuli/MST_pairs1/pair_44_w_log_cabin2.jpg,14,0,0,0,1,6,1,"[9, 21, 31, 45, 56, 68, 69]",,,,,1,0,1,0,0,14,14,14,537.7472562919993,,,,,,,,,,,,,,,,,,,,,,537.7333492500002,537.7335199169993,537.7335360840007,537.7472562919993,537.7472562919993,537.7472562919993,537.7472562919993,540.7481400420002,540.7481400420002,541.732620625,1,1,0.9640529999996943,0.1749624579988449,None,541.7338157499998,541.7339515000003,None,541.7340968749995,541.7341535420001,None,541.7513155840006,541.7513155840006,,,,,,,,,,,1,6,0,1,2025-01-13_11h36.30.746,rtmindeye,2024.1.5,None,2025-01-13 11h36.45.624132 -0500,
all_stimuli/special515/special_28068.jpg,15,0,0,0,1,6,1,"[9, 21, 31, 45, 56, 68, 69]",,,,,1,0,1,0,0,15,15,15,541.7513155840006,,,,,,,,,,,,,,,,,,,,,,541.7348404589993,541.7349608339991,541.7349780839995,541.7513155840006,541.7513155840006,541.7513155840006,541.7513155840006,544.7491385840003,544.7491385840003,545.7482824170002,1,1,1.1540226659999462,0.17000529100005224,None,545.7494992920001,545.7496551250006,None,545.7498003750006,545.7498529170007,None,,,,,,,,,,,,,1,6,0,1,2025-01-13_11h36.30.746,rtmindeye,2024.1.5,None,2025-01-13 11h36.45.624132 -0500,
all_stimuli/shared1000_notspecial/notspecial_60978.png,16,0,0,0,1,6,1,"[9, 21, 31, 45, 56, 68, 69]",,,,,1,0,1,0,0,16,16,16,545.7676244169998,,,,,,,,,,,,,,,,,,,,,,545.750446,545.7505597090003,545.7505690840007,545.7676244169998,545.7676244169998,545.7676244169998,545.7676244169998,548.7812348339994,548.7812348339994,549.7662899999996,1,1,0.8616513739998481,0.1870161669994559,None,549.7678722500004,549.7680484169996,None,549.7681993749993,549.768253917,None,,,,,,,,,,,,,1,6,0,1,2025-01-13_11h36.30.746,rtmindeye,2024.1.5,None,2025-01-13 11h36.45.624132 -0500,
all_stimuli/MST_pairs1/pair_2_4_22.png,17,0,0,0,1,6,1,"[9, 21, 31, 45, 56, 68, 69]",,,,,1,0,1,0,0,17,17,17,549.7876378340006,,,,,,,,,,,,,,,,,,,,,,549.7689327089993,549.7692779169993,549.7692999999999,549.7876378340006,549.7876378340006,549.7876378340006,549.7876378340006,552.7978952920002,552.7978952920002,553.7814012090003,1,1,1.0127333319996978,0.190030834000936,None,553.7820536670006,553.7821301669992,None,553.7822532499995,553.782295084,None,,,,,,,,,,,,,1,6,0,1,2025-01-13_11h36.30.746,rtmindeye,2024.1.5,None,2025-01-13 11h36.45.624132 -0500,
all_stimuli/shared1000_notspecial/notspecial_46160.png,18,0,0,0,1,6,1,"[9, 21, 31, 45, 56, 68, 69]",,,,,1,0,1,0,0,18,18,18,553.7993507499996,,,,,,,,,,,,,,,,,,,,,,553.782729999999,553.7828522500004,553.7828684169999,553.7993507499996,553.7993507499996,553.7993507499996,553.7993507499996,556.7977813750003,556.7977813750003,557.7832115839992,1,1,0.9660194989992306,0.1940445420004835,None,557.783844042,557.7839207500001,None,557.7840422919999,557.7840816249991,None,,,,,,,,,,,,,1,6,0,1,2025-01-13_11h36.30.746,rtmindeye,2024.1.5,None,2025-01-13 11h36.45.624132 -0500,
all_stimuli/special515/special_64880.jpg,19,0,0,0,1,6,1,"[9, 21, 31, 45, 56, 68, 69]",,,,,1,0,1,0,0,19,19,19,557.7990146249995,,,,,,,,,,,,,,,,,,,,,,557.7845147919998,557.7846325840001,557.784648625,557.7990146249995,557.7990146249995,557.7990146249995,557.7990146249995,560.8003992920003,560.8003992920003,561.7824134999992,1,1,0.982405373999427,0.1960519590011245,None,561.7835456249995,561.7836655419997,None,561.783802209,561.7839327919992,None,561.8119073750004,561.8119073750004,,,,,,,,,,,1,6,0,1,2025-01-13_11h36.30.746,rtmindeye,2024.1.5,None,2025-01-13 11h36.45.624132 -0500,
all_stimuli/MST_pairs1/pair_36_nsd_949_1_cocoid_43196.png,20,0,0,0,1,6,1,"[9, 21, 31, 45, 56, 68, 69]",,,,,1,0,1,0,0,20,20,20,561.8119073750004,,,,,,,,,,,,,,,,,,,,,,561.7846497499995,561.7848181669997,561.7848351249995,561.8119073750004,561.8119073750004,561.8119073750004,561.8119073750004,564.8000914589993,564.8000914589993,565.7996174590007,1,1,0.9724792080014595,0.19305749999875843,None,565.8007872090002,565.8009427090001,None,565.8011064999992,565.8012308750003,None,,,,,,,,,,,,,1,6,0,1,2025-01-13_11h36.30.746,rtmindeye,2024.1.5,None,2025-01-13 11h36.45.624132 -0500,
blank.jpg,21,1,0,0,1,6,1,"[9, 21, 31, 45, 56, 68, 69]",,,,,1,0,1,0,0,21,21,21,565.8295639169992,,,,,,,,,,,,,,,,,,,,,,565.8019645000004,565.8022852499998,565.8023027090003,565.8295639169992,565.8295639169992,565.8295639169992,565.8295639169992,568.832175042,568.832175042,569.813272292,None,0,,,None,569.8143485,569.8145402089995,None,569.8147775840007,569.8148365420002,None,,,,,,,,,,,,,1,6,0,1,2025-01-13_11h36.30.746,rtmindeye,2024.1.5,None,2025-01-13 11h36.45.624132 -0500,
all_stimuli/special515/special_30632.jpg,22,0,1,0,1,6,1,"[9, 21, 31, 45, 56, 68, 69]",,,,,1,0,1,0,0,22,22,22,569.8308766249993,,,,,,,,,,,,,,,,,,,,,,569.8155673750007,569.8157147500006,569.8157367090007,569.8308766249993,569.8308766249993,569.8308766249993,569.8308766249993,572.8320439590007,572.8320439590007,573.8164151670007,2,1,0.9355397079998511,0.18999608300146065,None,573.8174849169991,573.8176405419999,None,573.8178042090003,573.8178649999991,None,,,,,,,,,,,,,1,6,0,1,2025-01-13_11h36.30.746,rtmindeye,2024.1.5,None,2025-01-13 11h36.45.624132 -0500,
all_stimuli/MST_pairs1/pair_20_nsd_41_2_cocoid_63715.png,23,0,1,0,1,6,1,"[9, 21, 31, 45, 56, 68, 69]",,,,,1,0,1,0,0,23,23,23,573.8470538340007,,,,,,,,,,,,,,,,,,,,,,573.8186759170003,573.8190309170004,573.8191270419993,573.8470538340007,573.8470538340007,573.8470538340007,573.8470538340007,576.8503638750008,576.8503638750008,577.820031792,2,1,0.829392748999453,0.19195837500046764,None,577.8206953339995,577.8207745420004,None,577.8209054590006,577.8209472090002,None,,,,,,,,,,,,,1,6,0,1,2025-01-13_11h36.30.746,rtmindeye,2024.1.5,None,2025-01-13 11h36.45.624132 -0500,
all_stimuli/MST_pairs1/pair_22_nsd_115_2_cocoid_65194.png,24,0,0,0,1,6,1,"[9, 21, 31, 45, 56, 68, 69]",,,,,1,0,1,0,0,24,24,24,577.8487626250007,,,,,,,,,,,,,,,,,,,,,,577.821400625,577.8215609170002,577.8215770839997,577.8487626250007,577.8487626250007,577.8487626250007,577.8487626250007,580.8510038339991,580.8510038339991,581.8313761669997,1,1,1.0686857500004407,0.18894104099854303,None,581.8320766670004,581.8321508749996,None,581.8322698339998,581.832312167,None,,,,,,,,,,,,,1,6,0,1,2025-01-13_11h36.30.746,rtmindeye,2024.1.5,None,2025-01-13 11h36.45.624132 -0500,
all_stimuli/shared1000_notspecial/notspecial_26292.png,25,0,0,0,1,6,1,"[9, 21, 31, 45, 56, 68, 69]",,,,,1,0,1,0,0,25,25,25,581.8503798750007,,,,,,,,,,,,,,,,,,,,,,581.832780875,581.8329053750003,581.8329211670007,581.8503798750007,581.8503798750007,581.8503798750007,581.8503798750007,584.8499435419999,584.8499435419999,585.8461680839991,1,1,0.8391352070011635,0.16902295900035824,None,585.8468292920006,585.8469073340002,None,585.8470385839992,585.8470780419993,None,,,,,,,,,,,,,1,6,0,1,2025-01-13_11h36.30.746,rtmindeye,2024.1.5,None,2025-01-13 11h36.45.624132 -0500,
all_stimuli/special515/special_6489.jpg,26,0,1,0,1,6,1,"[9, 21, 31, 45, 56, 68, 69]",,,,,1,0,1,0,0,26,26,26,585.8622804589995,,,,,,,,,,,,,,,,,,,,,,585.8475141250001,585.8476456669996,585.8476622920007,585.8622804589995,585.8622804589995,585.8622804589995,585.8622804589995,588.8647585420003,588.8647585420003,589.8457007500001,2,1,0.8312630000000354,0.20890049999979965,None,589.8463320419996,589.8464029999996,None,589.8465214169992,589.8465604169996,None,589.8561747090007,589.8561747090007,,,,,,,,,,,1,6,0,1,2025-01-13_11h36.30.746,rtmindeye,2024.1.5,None,2025-01-13 11h36.45.624132 -0500,
all_stimuli/special515/special_55678.jpg,27,0,0,0,1,6,1,"[9, 21, 31, 45, 56, 68, 69]",,,,,1,0,1,0,0,27,27,27,589.8561747090007,,,,,,,,,,,,,,,,,,,,,,589.8469750839995,589.8470894999991,589.8471055419996,589.8561747090007,589.8561747090007,589.8561747090007,589.8561747090007,592.8657357499997,592.8657357499997,593.8493777500007,1,1,0.9533993320001173,0.1809550420002779,None,593.8500888340004,593.8501666669999,None,593.8502877089995,593.850328999999,None,,,,,,,,,,,,,1,6,0,1,2025-01-13_11h36.30.746,rtmindeye,2024.1.5,None,2025-01-13 11h36.45.624132 -0500,
all_stimuli/special515/special_40909.jpg,28,0,0,0,1,6,1,"[9, 21, 31, 45, 56, 68, 69]",,,,,1,0,1,0,0,28,28,28,593.8661127920004,,,,,,,,,,,,,,,,,,,,,,593.8507829169994,593.8509343749993,593.8509505839993,593.8661127920004,593.8661127920004,593.8661127920004,593.8661127920004,596.8816533749996,596.8816533749996,597.850134291999,1,1,1.8163528740005859,0.20397341699936078,None,597.8507652089993,597.8508414999997,None,597.8509715,597.8510110419993,None,597.865524625,597.865524625,,,,,,,,,,,1,6,0,1,2025-01-13_11h36.30.746,rtmindeye,2024.1.5,None,2025-01-13 11h36.45.624132 -0500,
all_stimuli/special515/special_70360.jpg,29,0,0,0,1,6,1,"[9, 21, 31, 45, 56, 68, 69]",,,,,1,0,1,0,0,29,29,29,597.865524625,,,,,,,,,,,,,,,,,,,,,,597.8514455000004,597.8515589590006,597.8515780840007,597.865524625,597.865524625,597.865524625,597.865524625,600.8627785839999,600.8627785839999,601.8495210000001,1,1,1.245991290999882,0.15896729199994297,None,601.8500717089992,601.8501350839997,None,601.8502324170004,601.8502639590006,None,601.8793894589999,601.8793894589999,,,,,,,,,,,1,6,0,1,2025-01-13_11h36.30.746,rtmindeye,2024.1.5,None,2025-01-13 11h36.45.624132 -0500,
all_stimuli/MST_pairs1/pair_42_w_icerink1.jpg,30,0,0,0,1,6,1,"[9, 21, 31, 45, 56, 68, 69]",,,,,1,0,1,0,0,30,30,30,601.8793894589999,,,,,,,,,,,,,,,,,,,,,,601.850642292,601.8507332919999,601.8507462090001,601.8793894589999,601.8793894589999,601.8793894589999,601.8793894589999,604.8843325420003,604.8843325420003,605.8628219589991,1,1,1.3961575829998765,0.15802925000025425,None,605.8633437499993,605.863418375,None,605.8635327499996,605.8635657920004,None,,,,,,,,,,,,,1,6,0,1,2025-01-13_11h36.30.746,rtmindeye,2024.1.5,None,2025-01-13 11h36.45.624132 -0500,
blank.jpg,31,1,0,0,1,6,1,"[9, 21, 31, 45, 56, 68, 69]",,,,,1,0,1,0,0,31,31,31,605.874142875,,,,,,,,,,,,,,,,,,,,,,605.8639266249993,605.8640347500004,605.8640484169991,605.874142875,605.874142875,605.874142875,605.874142875,608.8819277919993,608.8819277919993,609.8667648749997,None,0,,,None,609.8672191250007,609.8672915419993,None,609.8674114999994,609.8674517500003,None,,,,,,,,,,,,,1,6,0,1,2025-01-13_11h36.30.746,rtmindeye,2024.1.5,None,2025-01-13 11h36.45.624132 -0500,
all_stimuli/special515/special_30430.jpg,32,0,1,0,1,6,1,"[9, 21, 31, 45, 56, 68, 69]",,,,,1,0,1,0,0,32,32,32,609.8830034170005,,,,,,,,,,,,,,,,,,,,,,609.8678785840002,609.8680078340003,609.8680240840004,609.8830034170005,609.8830034170005,609.8830034170005,609.8830034170005,612.8983444170008,612.8983444170008,613.8669013750005,2,1,0.8804977489999146,0.17599504200006777,None,613.8679281250006,613.8680597090006,None,613.8683094169992,613.8684148749999,None,613.8830462089991,613.8830462089991,,,,,,,,,,,1,6,0,1,2025-01-13_11h36.30.746,rtmindeye,2024.1.5,None,2025-01-13 11h36.45.624132 -0500,
all_stimuli/shared1000_notspecial/notspecial_43746.png,33,0,0,0,1,6,1,"[9, 21, 31, 45, 56, 68, 69]",,,,,1,0,1,0,0,33,33,33,613.8830462089991,,,,,,,,,,,,,,,,,,,,,,613.869075958999,613.8692175840006,613.8692349169996,613.8830462089991,613.8830462089991,613.8830462089991,613.8830462089991,616.879478375,616.879478375,617.8667814170003,1,1,0.8915262909995363,0.18304750000061176,None,617.8677803339997,617.8679195000004,None,617.8680901669995,617.8681521670005,None,617.8974898340002,617.8974898340002,,,,,,,,,,,1,6,0,1,2025-01-13_11h36.30.746,rtmindeye,2024.1.5,None,2025-01-13 11h36.45.624132 -0500,
all_stimuli/MST_pairs1/pair_34_nsd_875_1_cocoid_67762.png,34,0,0,0,1,6,1,"[9, 21, 31, 45, 56, 68, 69]",,,,,1,0,1,0,0,34,34,34,617.8974898340002,,,,,,,,,,,,,,,,,,,,,,617.8689127090001,617.8690507499996,617.8690715840003,617.8974898340002,617.8974898340002,617.8974898340002,617.8974898340002,620.8981394589991,620.8981394589991,621.8822230419992,1,1,1.1791434999995545,0.17991862500093703,None,621.8833055840005,621.8834469169997,None,621.8836129169995,621.8836775,None,,,,,,,,,,,,,1,6,0,1,2025-01-13_11h36.30.746,rtmindeye,2024.1.5,None,2025-01-13 11h36.45.624132 -0500,
all_stimuli/MST_pairs1/pair_12_16_78.png,35,0,1,0,1,6,1,"[9, 21, 31, 45, 56, 68, 69]",,,,,1,0,1,0,0,35,35,35,621.902394499999,,,,,,,,,,,,,,,,,,,,,,621.8844902500005,621.8846353749996,621.8846532499992,621.902394499999,621.902394499999,621.902394499999,621.902394499999,624.9157412919994,624.9157412919994,625.8971914590002,2,1,1.1092335829998774,0.19906087500021385,None,625.8987841670005,625.8989627089995,None,625.899231166999,625.8992842089992,None,,,,,,,,,,,,,1,6,0,1,2025-01-13_11h36.30.746,rtmindeye,2024.1.5,None,2025-01-13 11h36.45.624132 -0500,
all_stimuli/special515/special_4249.jpg,36,0,1,0,1,6,1,"[9, 21, 31, 45, 56, 68, 69]",,,,,1,0,1,0,0,36,36,36,625.9147577500007,,,,,,,,,,,,,,,,,,,,,,625.9000433750007,625.9001953339994,625.9002168749994,625.9147577500007,625.9147577500007,625.9147577500007,625.9147577500007,628.9148082920001,628.9148082920001,629.9009649170002,2,1,1.16087029099981,0.19901750000099128,None,629.901674834,629.9017544590006,None,629.9018725839996,629.9019130420002,None,,,,,,,,,,,,,1,6,0,1,2025-01-13_11h36.30.746,rtmindeye,2024.1.5,None,2025-01-13 11h36.45.624132 -0500,
all_stimuli/MST_pairs1/pair_42_w_icerink2.jpg,37,0,1,0,1,6,1,"[9, 21, 31, 45, 56, 68, 69]",,,,,1,0,1,0,0,37,37,37,629.9163340840005,,,,,,,,,,,,,,,,,,,,,,629.9023436669995,629.9025113339994,629.9025294589992,629.9163340840005,629.9163340840005,629.9163340840005,629.9163340840005,632.9150408749992,632.9150408749992,633.9106809999994,2,1,0.9413139159987622,0.18693583300046157,None,633.9111915840003,633.911239084,None,633.9113102089996,633.9113283339993,None,,,,,,,,,,,,,1,6,0,1,2025-01-13_11h36.30.746,rtmindeye,2024.1.5,None,2025-01-13 11h36.45.624132 -0500,
all_stimuli/shared1000_notspecial/notspecial_70038.png,38,0,0,0,1,6,1,"[9, 21, 31, 45, 56, 68, 69]",,,,,1,0,1,0,0,38,38,38,633.9218053339991,,,,,,,,,,,,,,,,,,,,,,633.9116430840004,633.9117536249996,633.9117616250005,633.9218053339991,633.9218053339991,633.9218053339991,633.9218053339991,636.9316459999991,636.9316459999991,637.9152584589992,1,1,1.1578113740015397,0.17401929199877486,None,637.9159126249997,637.9159961250007,None,637.9161152920005,637.9161550839999,None,,,,,,,,,,,,,1,6,0,1,2025-01-13_11h36.30.746,rtmindeye,2024.1.5,None,2025-01-13 11h36.45.624132 -0500,
all_stimuli/special515/special_53155.jpg,39,0,0,0,1,6,1,"[9, 21, 31, 45, 56, 68, 69]",,,,,1,0,1,0,0,39,39,39,637.9332064589998,,,,,,,,,,,,,,,,,,,,,,637.9166207500002,637.9167833339998,637.916800125,637.9332064589998,637.9332064589998,637.9332064589998,637.9332064589998,640.9485152500001,640.9485152500001,641.917005792,1,1,1.0193854579993058,0.12800091700046323,None,641.9176532919992,641.9177339590005,None,641.9178514590003,641.9178912499992,None,,,,,,,,,,,,,1,6,0,1,2025-01-13_11h36.30.746,rtmindeye,2024.1.5,None,2025-01-13 11h36.45.624132 -0500,
all_stimuli/special515/special_24530.jpg,40,0,1,0,1,6,1,"[9, 21, 31, 45, 56, 68, 69]",,,,,1,0,1,0,0,40,40,40,641.9334844589994,,,,,,,,,,,,,,,,,,,,,,641.9183348339993,641.9184836250006,641.9184999589997,641.9334844589994,641.9334844589994,641.9334844589994,641.9334844589994,644.9317983750007,644.9317983750007,645.9296582089992,2,1,0.8941342500002065,0.18107629099904443,None,645.9301790419995,645.9302403340007,None,645.9303359999994,645.9303688340005,None,,,,,,,,,,,,,1,6,0,1,2025-01-13_11h36.30.746,rtmindeye,2024.1.5,None,2025-01-13 11h36.45.624132 -0500,
all_stimuli/special515/special_32232.jpg,41,0,0,0,1,6,1,"[9, 21, 31, 45, 56, 68, 69]",,,,,1,0,1,0,0,41,41,41,645.9433123340004,,,,,,,,,,,,,,,,,,,,,,645.9307262919992,645.9308383749994,645.9308516670008,645.9433123340004,645.9433123340004,645.9433123340004,645.9433123340004,648.9490623750007,648.9490623750007,649.9308007500003,1,1,1.1464132490000338,0.1889926669991837,None,649.9318408340005,649.9319779590005,None,649.9321282090004,649.932180709,None,649.945073208999,649.945073208999,,,,,,,,,,,1,6,0,1,2025-01-13_11h36.30.746,rtmindeye,2024.1.5,None,2025-01-13 11h36.45.624132 -0500,
all_stimuli/special515/special_41814.jpg,42,0,0,0,1,6,1,"[9, 21, 31, 45, 56, 68, 69]",,,,,1,0,1,0,0,42,42,42,649.945073208999,,,,,,,,,,,,,,,,,,,,,,649.932856292,649.933073791999,649.9331141669991,649.945073208999,649.945073208999,649.945073208999,649.945073208999,652.9488507499991,652.9488507499991,653.9297940840006,1,1,1.0075493740005186,0.19503083299969148,None,653.9304257919994,653.930500041999,None,653.930636916999,653.9306757089998,None,653.9480706249997,653.9480706249997,,,,,,,,,,,1,6,0,1,2025-01-13_11h36.30.746,rtmindeye,2024.1.5,None,2025-01-13 11h36.45.624132 -0500,
all_stimuli/shared1000_notspecial/notspecial_23883.png,43,0,0,0,1,6,1,"[9, 21, 31, 45, 56, 68, 69]",,,,,1,0,1,0,0,43,43,43,653.9480706249997,,,,,,,,,,,,,,,,,,,,,,653.9311182919992,653.9312304590003,653.9312463749993,653.9480706249997,653.9480706249997,653.9480706249997,653.9480706249997,656.9481607090001,656.9481607090001,657.9359486249996,1,1,1.051591041001302,0.1890669579988753,None,657.936571667,657.9366499589996,None,657.9367697090001,657.9368087919993,None,,,,,,,,,,,,,1,6,0,1,2025-01-13_11h36.30.746,rtmindeye,2024.1.5,None,2025-01-13 11h36.45.624132 -0500,
all_stimuli/shared1000_notspecial/notspecial_4436.png,44,0,0,0,1,6,1,"[9, 21, 31, 45, 56, 68, 69]",,,,,1,0,1,0,0,44,44,44,657.951327834,,,,,,,,,,,,,,,,,,,,,,657.9372503750001,657.9373961250003,657.937412542,657.951327834,657.951327834,657.951327834,657.951327834,660.962834209,660.962834209,661.9466787500005,1,1,1.0664346659996227,0.17492008299996087,None,661.9473403749998,661.9474143749994,None,661.9475307920002,661.9475712500007,None,,,,,,,,,,,,,1,6,0,1,2025-01-13_11h36.30.746,rtmindeye,2024.1.5,None,2025-01-13 11h36.45.624132 -0500,
blank.jpg,45,1,0,0,1,6,1,"[9, 21, 31, 45, 56, 68, 69]",,,,,1,0,1,0,0,45,45,45,661.9595590419995,,,,,,,,,,,,,,,,,,,,,,661.948071625,661.9482683749993,661.9482899590002,661.9595590419995,661.9595590419995,661.9595590419995,661.9595590419995,664.9483733750003,664.9483733750003,665.9466103340001,None,0,,,None,665.9469504589997,665.9470029170006,None,665.9470887089992,665.9471178749991,None,665.960223,665.960223,,,,,,,,,,,1,6,0,1,2025-01-13_11h36.30.746,rtmindeye,2024.1.5,None,2025-01-13 11h36.45.624132 -0500,
all_stimuli/special515/special_61133.jpg,46,0,1,0,1,6,1,"[9, 21, 31, 45, 56, 68, 69]",,,,,1,0,1,0,0,46,46,46,665.960223,,,,,,,,,,,,,,,,,,,,,,665.9474304169999,665.9475079999993,665.9475193340004,665.960223,665.960223,665.960223,665.960223,668.9667596250001,668.9667596250001,669.9500308339993,None,0,,,['2'],669.951080208999,669.9511592500003,None,669.9512820420005,669.9513213339997,None,,,[0.8554969569995592],[0.19818750000013097],,,,,,,,,1,6,0,1,2025-01-13_11h36.30.746,rtmindeye,2024.1.5,None,2025-01-13 11h36.45.624132 -0500,
all_stimuli/MST_pairs1/pair_24_nsd_158_2_cocoid_3673.png,47,0,0,0,1,6,1,"[9, 21, 31, 45, 56, 68, 69]",,,,,1,0,1,0,0,47,47,47,669.9825514170006,,,,,,,,,,,,,,,,,,,,,,669.9517905840003,669.951945625,669.951961625,669.9825514170006,669.9825514170006,669.9825514170006,669.9825514170006,672.9817644590003,672.9817644590003,673.9652017919998,2,0,1.8062852080001903,0.22000029199989513,None,673.9658582920001,673.9659520000005,None,673.9660742920005,673.9661183749995,None,,,,,,,,,,,,,1,6,0,1,2025-01-13_11h36.30.746,rtmindeye,2024.1.5,None,2025-01-13 11h36.45.624132 -0500,
all_stimuli/MST_pairs1/pair_34_nsd_875_2_cocoid_72398.png,48,0,0,0,1,6,1,"[9, 21, 31, 45, 56, 68, 69]",,,,,1,0,1,0,0,48,48,48,673.9955520839994,,,,,,,,,,,,,,,,,,,,,,673.9665689169997,673.9667333750003,673.9667501250005,673.9955520839994,673.9955520839994,673.9955520839994,673.9955520839994,676.9987691250008,676.9987691250008,677.9820626250003,1,1,1.1302844579986413,0.1859015410009306,None,677.9829745839997,677.9830852499999,None,677.983216958999,677.9832740420006,None,,,,,,,,,,,,,1,6,0,1,2025-01-13_11h36.30.746,rtmindeye,2024.1.5,None,2025-01-13 11h36.45.624132 -0500,
all_stimuli/shared1000_notspecial/notspecial_51965.png,49,0,0,0,1,6,1,"[9, 21, 31, 45, 56, 68, 69]",,,,,1,0,1,0,0,49,49,49,678.0010576669993,,,,,,,,,,,,,,,,,,,,,,677.9839467090005,677.9842776669993,677.9843188750001,678.0010576669993,678.0010576669993,678.0010576669993,678.0010576669993,681.0140283750006,681.0140283750006,681.9989772499994,1,1,0.8876998750001803,0.20298558300055447,None,682.0000260420002,682.0001468749997,None,682.0003164589998,682.0003861250007,None,,,,,,,,,,,,,1,6,0,1,2025-01-13_11h36.30.746,rtmindeye,2024.1.5,None,2025-01-13 11h36.45.624132 -0500,
all_stimuli/MST_pairs1/pair_30_nsd_676_1_cocoid_48729.png,50,0,0,0,1,6,1,"[9, 21, 31, 45, 56, 68, 69]",,,,,1,0,1,0,0,50,50,50,682.0199874589998,,,,,,,,,,,,,,,,,,,,,,682.0009890420006,682.0011023339994,682.0011145000008,682.0199874589998,682.0199874589998,682.0199874589998,682.0199874589998,685.0296515419996,685.0296515419996,686.0156566250007,1,1,1.6028645410005993,0.18599937500039232,None,686.0169855839995,686.0171651670007,None,686.0173111669992,686.0173694589994,None,,,,,,,,,,,,,1,6,0,1,2025-01-13_11h36.30.746,rtmindeye,2024.1.5,None,2025-01-13 11h36.45.624132 -0500,
all_stimuli/shared1000_notspecial/notspecial_52328.png,51,0,0,0,1,6,1,"[9, 21, 31, 45, 56, 68, 69]",,,,,1,0,1,0,0,51,51,51,686.0362316249993,,,,,,,,,,,,,,,,,,,,,,686.0181232920004,686.0184558750007,686.0184728339991,686.0362316249993,686.0362316249993,686.0362316249993,686.0362316249993,689.0489392090003,689.0489392090003,690.0330066250008,1,1,0.9546340409997356,0.15201854199949594,None,690.0336306249992,690.0337049169993,None,690.0338213750001,690.0338607499998,None,,,,,,,,,,,,,1,6,0,1,2025-01-13_11h36.30.746,rtmindeye,2024.1.5,None,2025-01-13 11h36.45.624132 -0500,
all_stimuli/MST_pairs1/pair_4_6_44.png,52,0,0,0,1,6,1,"[9, 21, 31, 45, 56, 68, 69]",,,,,1,0,1,0,0,52,52,52,690.0526559999998,,,,,,,,,,,,,,,,,,,,,,690.0342884589991,690.0344055419991,690.0344221670002,690.0526559999998,690.0526559999998,690.0526559999998,690.0526559999998,693.0494091670007,693.0494091670007,694.0464245839994,1,1,1.2542317910010752,0.18601795900030993,None,694.0469477499992,694.0470104169999,None,694.0471097089994,694.047142166999,None,,,,,,,,,,,,,1,6,0,1,2025-01-13_11h36.30.746,rtmindeye,2024.1.5,None,2025-01-13 11h36.45.624132 -0500,
all_stimuli/MST_pairs1/pair_48_w_runway1.jpg,53,0,0,0,1,6,1,"[9, 21, 31, 45, 56, 68, 69]",,,,,1,0,1,0,0,53,53,53,694.0578459999997,,,,,,,,,,,,,,,,,,,,,,694.047499667,694.047594624999,694.0476080000008,694.0578459999997,694.0578459999997,694.0578459999997,694.0578459999997,697.0657630419992,697.0657630419992,698.0495500840007,None,0,,,['1'],698.0502185419991,698.0502936249995,None,698.0504131670004,698.0504524999997,None,,,[1.1049804160011263],[0.17707729099856806],,,,,,,,,1,6,0,1,2025-01-13_11h36.30.746,rtmindeye,2024.1.5,None,2025-01-13 11h36.45.624132 -0500,
all_stimuli/special515/special_40840.jpg,54,0,1,0,1,6,1,"[9, 21, 31, 45, 56, 68, 69]",,,,,1,0,1,0,0,54,54,54,698.0669216250008,,,,,,,,,,,,,,,,,,,,,,698.0508822089996,698.0510050419998,698.0510213750003,698.0669216250008,698.0669216250008,698.0669216250008,698.0669216250008,701.0668734589999,701.0668734589999,702.0664618339997,2,1,1.816898790999403,0.18303212499995425,None,702.0674252919998,702.0675395840008,None,702.0676747500002,702.0677326669993,None,,,,,,,,,,,,,1,6,0,1,2025-01-13_11h36.30.746,rtmindeye,2024.1.5,None,2025-01-13 11h36.45.624132 -0500,
all_stimuli/shared1000_notspecial/notspecial_12487.png,55,0,0,0,1,6,1,"[9, 21, 31, 45, 56, 68, 69]",,,,,1,0,1,0,0,55,55,55,702.0840324170003,,,,,,,,,,,,,,,,,,,,,,702.0685103340002,702.0688181250007,702.0688357500003,702.0840324170003,702.0840324170003,702.0840324170003,702.0840324170003,705.0981779169997,705.0981779169997,706.0821044170007,1,1,0.8867969580005592,0.17406845799996518,None,706.0830464169994,706.0831543339991,None,706.0832905419993,706.0833413340006,None,,,,,,,,,,,,,1,6,0,1,2025-01-13_11h36.30.746,rtmindeye,2024.1.5,None,2025-01-13 11h36.45.624132 -0500,
blank.jpg,56,1,0,0,1,6,1,"[9, 21, 31, 45, 56, 68, 69]",,,,,1,0,1,0,0,56,56,56,706.0961928340002,,,,,,,,,,,,,,,,,,,,,,706.0840104170002,706.084357709,706.0843750839995,706.0961928340002,706.0961928340002,706.0961928340002,706.0961928340002,709.0835387089992,709.0835387089992,710.0819135000002,None,0,,,None,710.0825735420003,710.0826716249994,None,710.0827988750007,710.0828446670002,None,710.1016957499996,710.1016957499996,,,,,,,,,,,1,6,0,1,2025-01-13_11h36.30.746,rtmindeye,2024.1.5,None,2025-01-13 11h36.45.624132 -0500,
all_stimuli/MST_pairs1/pair_16_20_0.png,57,0,1,0,1,6,1,"[9, 21, 31, 45, 56, 68, 69]",,,,,1,0,1,0,0,57,57,57,710.1016957499996,,,,,,,,,,,,,,,,,,,,,,710.0835746249995,710.0837294590001,710.0837465839995,710.1016957499996,710.1016957499996,710.1016957499996,710.1016957499996,713.0964420420005,713.0964420420005,714.099115084,2,1,1.0272037489994545,0.1880181670003367,None,714.1000678750006,714.1001867089999,None,714.1003243750001,714.100374959,None,,,,,,,,,,,,,1,6,0,1,2025-01-13_11h36.30.746,rtmindeye,2024.1.5,None,2025-01-13 11h36.45.624132 -0500,
all_stimuli/shared1000_notspecial/notspecial_12685.png,58,0,0,0,1,6,1,"[9, 21, 31, 45, 56, 68, 69]",,,,,1,0,1,0,0,58,58,58,714.1238637089991,,,,,,,,,,,,,,,,,,,,,,714.101158292,714.1029911250007,714.1030193339993,714.1238637089991,714.1238637089991,714.1238637089991,714.1238637089991,717.1181849999994,717.1181849999994,718.1174231250006,1,1,0.8840758330006793,0.19195558299907134,None,718.1185697090004,718.1187206670002,None,718.118883916999,718.1189494169994,None,,,,,,,,,,,,,1,6,0,1,2025-01-13_11h36.30.746,rtmindeye,2024.1.5,None,2025-01-13 11h36.45.624132 -0500,
all_stimuli/MST_pairs1/pair_36_nsd_949_2_cocoid_60031.png,59,0,0,0,1,6,1,"[9, 21, 31, 45, 56, 68, 69]",,,,,1,0,1,0,0,59,59,59,718.1468222919993,,,,,,,,,,,,,,,,,,,,,,718.1198217919991,718.1201429169996,718.1201608339998,718.1468222919993,718.1468222919993,718.1468222919993,718.1468222919993,721.1493914170005,721.1493914170005,722.131000166999,1,1,1.6561412080009177,0.20400762499957636,None,722.1331438750003,722.1333400000003,None,722.1336025839992,722.1336520419991,None,,,,,,,,,,,,,1,6,0,1,2025-01-13_11h36.30.746,rtmindeye,2024.1.5,None,2025-01-13 11h36.45.624132 -0500,
all_stimuli/shared1000_notspecial/notspecial_34068.png,60,0,0,0,1,6,1,"[9, 21, 31, 45, 56, 68, 69]",,,,,1,0,1,0,0,60,60,60,722.149052499999,,,,,,,,,,,,,,,,,,,,,,722.1341789170001,722.1343147499992,722.1343313340003,722.149052499999,722.149052499999,722.149052499999,722.149052499999,725.1464815420004,725.1464815420004,726.1336270840002,1,1,0.9328365829987888,0.1980057079999824,None,726.1341600840005,726.1342184170007,None,726.1343115,726.1343424589995,None,726.1502459589992,726.1502459589992,,,,,,,,,,,1,6,0,1,2025-01-13_11h36.30.746,rtmindeye,2024.1.5,None,2025-01-13 11h36.45.624132 -0500,
all_stimuli/special515/special_11159.jpg,61,0,0,0,1,6,1,"[9, 21, 31, 45, 56, 68, 69]",,,,,1,0,1,0,0,61,61,61,726.1502459589992,,,,,,,,,,,,,,,,,,,,,,726.1346878749991,726.1347795839993,726.1347926670005,726.1502459589992,726.1502459589992,726.1502459589992,726.1502459589992,729.1464546669995,729.1464546669995,730.1488695839998,1,1,1.5176936659991043,0.18610491700019338,None,730.1498193749994,730.1499429590003,None,730.150072167,730.1501282919999,None,,,,,,,,,,,,,1,6,0,1,2025-01-13_11h36.30.746,rtmindeye,2024.1.5,None,2025-01-13 11h36.45.624132 -0500,
all_stimuli/MST_pairs1/pair_34_nsd_875_2_cocoid_72398.png,62,0,1,0,1,6,1,"[9, 21, 31, 45, 56, 68, 69]",,,,,1,0,1,0,0,62,62,62,730.1814383750007,,,,,,,,,,,,,,,,,,,,,,730.1519845420007,730.152195749999,730.1522184589994,730.1814383750007,730.1814383750007,730.1814383750007,730.1814383750007,733.1806444169997,733.1806444169997,734.1657069169996,2,1,0.9245817490009358,0.1840042089988856,None,734.1667361250002,734.1668523749995,None,734.1670117499998,734.1670744999992,None,,,,,,,,,,,,,1,6,0,1,2025-01-13_11h36.30.746,rtmindeye,2024.1.5,None,2025-01-13 11h36.45.624132 -0500,
all_stimuli/special515/special_67742.jpg,63,0,0,0,1,6,1,"[9, 21, 31, 45, 56, 68, 69]",,,,,1,0,1,0,0,63,63,63,734.1848339999997,,,,,,,,,,,,,,,,,,,,,,734.1678512920007,734.1682201669992,734.1682403750001,734.1848339999997,734.1848339999997,734.1848339999997,734.1848339999997,737.1995482919992,737.1995482919992,738.1800143750006,1,1,1.549189290999493,0.1939888750002865,None,738.1806866669995,738.1807654170007,None,738.1808852499998,738.1809268340003,None,,,,,,,,,,,,,1,6,0,1,2025-01-13_11h36.30.746,rtmindeye,2024.1.5,None,2025-01-13 11h36.45.624132 -0500,
all_stimuli/MST_pairs1/pair_48_w_runway2.jpg,64,0,0,0,1,6,1,"[9, 21, 31, 45, 56, 68, 69]",,,,,1,0,1,0,0,64,64,64,738.1936743339993,,,,,,,,,,,,,,,,,,,,,,738.1813989170005,738.1815169170004,738.1815335419997,738.1936743339993,738.1936743339993,738.1936743339993,738.1936743339993,741.1833486249998,741.1833486249998,742.1837280420004,1,1,2.1512687489994278,0.18314099999952305,None,742.1846715419997,742.1848072920002,None,742.1849865000004,742.185054042,None,,,,,,,,,,,,,1,6,0,1,2025-01-13_11h36.30.746,rtmindeye,2024.1.5,None,2025-01-13 11h36.45.624132 -0500,
all_stimuli/MST_pairs1/pair_40_w_escalator1.jpg,65,0,0,0,1,6,1,"[9, 21, 31, 45, 56, 68, 69]",,,,,1,0,1,0,0,65,65,65,742.1957812500004,,,,,,,,,,,,,,,,,,,,,,742.1858174999998,742.1861621669996,742.1861795419991,742.1957812500004,742.1957812500004,742.1957812500004,742.1957812500004,745.1829066249993,745.1829066249993,746.1828986250002,2,0,1.5453306239996891,0.2060605000006035,None,746.183526249999,746.1836047500001,None,746.1836833750003,746.1837196670003,None,746.1957430420007,746.1957430420007,,,,,,,,,,,1,6,0,1,2025-01-13_11h36.30.746,rtmindeye,2024.1.5,None,2025-01-13 11h36.45.624132 -0500,
all_stimuli/special515/special_62228.jpg,66,0,1,0,1,6,1,"[9, 21, 31, 45, 56, 68, 69]",,,,,1,0,1,0,0,66,66,66,746.1957430420007,,,,,,,,,,,,,,,,,,,,,,746.1840537089993,746.184160458999,746.1841704170001,746.1957430420007,746.1957430420007,746.1957430420007,746.1957430420007,749.1837479999995,749.1837479999995,750.1797942089997,2,1,1.0153862069983006,0.17287170900090132,None,750.1804789590005,750.180552374999,None,750.1806688340002,750.1807078750007,None,750.209263499999,750.209263499999,,,,,,,,,,,1,6,0,1,2025-01-13_11h36.30.746,rtmindeye,2024.1.5,None,2025-01-13 11h36.45.624132 -0500,
all_stimuli/MST_pairs1/pair_26_nsd_483_2_cocoid_8054.png,67,0,0,0,1,6,1,"[9, 21, 31, 45, 56, 68, 69]",,,,,1,0,1,0,0,67,67,67,750.209263499999,,,,,,,,,,,,,,,,,,,,,,750.1811657090002,750.1812958749997,750.1813125839999,750.209263499999,750.209263499999,750.209263499999,750.209263499999,753.1999122500001,753.1999122500001,754.1844445419993,1,1,1.1878073329990002,0.1908986670005106,None,754.1850567919992,754.1851283750002,None,754.1852502919992,754.1852894589993,None,,,,,,,,,,,,,1,6,0,1,2025-01-13_11h36.30.746,rtmindeye,2024.1.5,None,2025-01-13 11h36.45.624132 -0500,
blank.jpg,68,1,0,0,1,6,1,"[9, 21, 31, 45, 56, 68, 69]",,,,,1,0,1,0,0,68,68,68,754.1958702089996,,,,,,,,,,,,,,,,,,,,,,754.185718834,754.1858657920002,754.1858921669991,754.1958702089996,754.1958702089996,754.1958702089996,754.1958702089996,757.1995027089997,757.1995027089997,758.1820204590003,None,0,,,None,758.1825306249993,758.1826190840002,None,758.1827474999991,758.1827860419999,None,758.1966487919999,758.1966487919999,,,,,,,,,,,1,6,0,1,2025-01-13_11h36.30.746,rtmindeye,2024.1.5,None,2025-01-13 11h36.45.624132 -0500,
blank.jpg,69,1,0,1,1,6,0,"[9, 21, 31, 45, 56, 68, 69]",,,,,1,0,1,0,0,69,69,69,758.1966487919999,,,,,,,,,,,,,,,,,,,,,,758.1832545420002,758.1833804590005,758.1833965000005,758.1966487919999,758.1966487919999,758.1966487919999,758.1966487919999,761.1837696669991,761.1837696669991,762.1805921670002,None,0,,,None,762.1810246250006,823.6313485840001,1,823.6319402089994,844.1852855420002,equal,762.1957265420006,762.1957265420006,,,762.1957265420006,762.1957265420006,61.429692540999895,None,823.6396801669998,823.6396801669998,20.535826581999572,None,1,6,0,1,2025-01-13_11h36.30.746,rtmindeye,2024.1.5,None,2025-01-13 11h36.45.624132 -0500,
,,,,,,,,,,,,,1,0,1,0,,,,,,,,,,,,,,,,,,,,,,,,,,,,,,,,,,,,,,,,,,,,,,,,,,,,,,,,,,,,1,6,0,1,2025-01-13_11h36.30.746,rtmindeye,2024.1.5,None,2025-01-13 11h36.45.624132 -0500,
all_stimuli/shared1000_notspecial/notspecial_19672.png,0,0,0,0,2,6,1,"[9, 21, 31, 45, 56, 68, 69]",,,,,2,0,2,0,0,0,0,0,844.2194813749993,,,,,,,,,,,,,,,,,,,,,,844.2025909170006,844.2032094999995,844.203224249999,844.2194813749993,844.2194813749993,844.2194813749993,844.2194813749993,847.2136083749992,847.2136083749992,848.2160052920008,1,1,1.0548459159999766,0.19301212499885878,None,848.2174961250003,848.2176637089997,None,848.2181653749994,848.2182649999995,None,,,,,,,,,,,,,1,6,0,1,2025-01-13_11h36.30.746,rtmindeye,2024.1.5,None,2025-01-13 11h36.45.624132 -0500,
all_stimuli/special515/special_55526.jpg,1,0,0,0,2,6,1,"[9, 21, 31, 45, 56, 68, 69]",,,,,2,0,2,0,0,1,1,1,848.2338433749992,,,,,,,,,,,,,,,,,,,,,,848.2191107090002,848.2192857919999,848.2193030420003,848.2338433749992,848.2338433749992,848.2338433749992,848.2338433749992,851.2302270839991,851.2302270839991,852.2167534170003,1,1,1.569591916000718,0.19294074999925215,None,852.2178838750006,852.2180084169995,None,852.2181428749991,852.2181891250002,None,852.248749041999,852.248749041999,,,,,,,,,,,1,6,0,1,2025-01-13_11h36.30.746,rtmindeye,2024.1.5,None,2025-01-13 11h36.45.624132 -0500,
all_stimuli/MST_pairs1/pair_22_nsd_115_1_cocoid_8171.png,2,0,0,0,2,6,1,"[9, 21, 31, 45, 56, 68, 69]",,,,,2,0,2,0,0,2,2,2,852.248749041999,,,,,,,,,,,,,,,,,,,,,,852.2187062089997,852.2188580839993,852.218874791999,852.248749041999,852.248749041999,852.248749041999,852.248749041999,855.2484766670004,855.2484766670004,856.2304869590007,1,1,1.035686874000021,0.18091779200040037,None,856.2310491249991,856.2311092500004,None,856.2312053339992,856.2312385000005,None,,,,,,,,,,,,,1,6,0,1,2025-01-13_11h36.30.746,rtmindeye,2024.1.5,None,2025-01-13 11h36.45.624132 -0500,
all_stimuli/special515/special_13613.jpg,3,0,1,0,2,6,1,"[9, 21, 31, 45, 56, 68, 69]",,,,,2,0,2,0,0,3,3,3,856.2461039169993,,,,,,,,,,,,,,,,,,,,,,856.2316309590005,856.2317405840004,856.2317562919998,856.2461039169993,856.2461039169993,856.2461039169993,856.2461039169993,859.233786458999,859.233786458999,860.2331223340007,2,1,0.676327790999494,0.1789288750005653,None,860.2341379169993,860.2343067919992,None,860.2344714589999,860.2345344170008,None,,,,,,,,,,,,,1,6,0,1,2025-01-13_11h36.30.746,rtmindeye,2024.1.5,None,2025-01-13 11h36.45.624132 -0500,
all_stimuli/shared1000_notspecial/notspecial_28487.png,4,0,0,0,2,6,1,"[9, 21, 31, 45, 56, 68, 69]",,,,,2,0,2,0,0,4,4,4,860.252764375,,,,,,,,,,,,,,,,,,,,,,860.235449374999,860.2356137919996,860.2356331249994,860.252764375,860.252764375,860.252764375,860.252764375,863.2503253340001,863.2503253340001,864.2382880419991,1,1,0.7456577499997366,0.19608195799992245,None,864.2389212920007,864.2389939170007,None,864.2391119589993,864.2391514999999,None,,,,,,,,,,,,,1,6,0,1,2025-01-13_11h36.30.746,rtmindeye,2024.1.5,None,2025-01-13 11h36.45.624132 -0500,
all_stimuli/special515/special_28524.jpg,5,0,1,0,2,6,1,"[9, 21, 31, 45, 56, 68, 69]",,,,,2,0,2,0,0,5,5,5,864.2553038339993,,,,,,,,,,,,,,,,,,,,,,864.2395743750003,864.2397017919993,864.2397179590007,864.2553038339993,864.2553038339993,864.2553038339993,864.2553038339993,867.2667222090004,867.2667222090004,868.2468802919993,2,1,1.0351692909989652,0.18502695800088986,None,868.2474347499992,868.2474981249998,None,868.2475975420002,868.2476302920004,None,,,,,,,,,,,,,1,6,0,1,2025-01-13_11h36.30.746,rtmindeye,2024.1.5,None,2025-01-13 11h36.45.624132 -0500,
all_stimuli/MST_pairs1/pair_44_w_log_cabin1.jpg,6,0,0,0,2,6,1,"[9, 21, 31, 45, 56, 68, 69]",,,,,2,0,2,0,0,6,6,6,868.2615776669991,,,,,,,,,,,,,,,,,,,,,,868.2480134590005,868.2481202500003,868.2481334999993,868.2615776669991,868.2615776669991,868.2615776669991,868.2615776669991,871.2499195,871.2499195,872.2492709590006,2,0,1.6358199160004006,0.22110541700021713,None,872.2502293750003,872.2503417089993,None,872.2504772089997,872.2505290839999,None,,,,,,,,,,,,,1,6,0,1,2025-01-13_11h36.30.746,rtmindeye,2024.1.5,None,2025-01-13 11h36.45.624132 -0500,
all_stimuli/special515/special_71241.jpg,7,0,0,0,2,6,1,"[9, 21, 31, 45, 56, 68, 69]",,,,,2,0,2,0,0,7,7,7,872.2668610000001,,,,,,,,,,,,,,,,,,,,,,872.2513956250004,872.251582208999,872.2516073339993,872.2668610000001,872.2668610000001,872.2668610000001,872.2668610000001,875.264655334,875.264655334,876.2503407919994,1,1,1.3266788740002085,0.20487791699997615,None,876.2513456670004,876.251422166999,None,876.2514877920003,876.251506999999,None,876.2803234170005,876.2803234170005,,,,,,,,,,,1,6,0,1,2025-01-13_11h36.30.746,rtmindeye,2024.1.5,None,2025-01-13 11h36.45.624132 -0500,
all_stimuli/special515/special_68842.jpg,8,0,0,0,2,6,1,"[9, 21, 31, 45, 56, 68, 69]",,,,,2,0,2,0,0,8,8,8,876.2803234170005,,,,,,,,,,,,,,,,,,,,,,876.2517648339999,876.2518378749992,876.2518450000007,876.2803234170005,876.2803234170005,876.2803234170005,876.2803234170005,879.2836283750003,879.2836283750003,880.2635378750001,1,1,2.0501907910002046,0.18988495800113014,None,880.2640717499999,880.2641261249992,None,880.2642113340007,880.2642477089994,None,,,,,,,,,,,,,1,6,0,1,2025-01-13_11h36.30.746,rtmindeye,2024.1.5,None,2025-01-13 11h36.45.624132 -0500,
blank.jpg,9,1,0,0,2,6,1,"[9, 21, 31, 45, 56, 68, 69]",,,,,2,0,2,0,0,9,9,9,880.2725004999993,,,,,,,,,,,,,,,,,,,,,,880.2645625000005,880.2646608750001,880.2646722499994,880.2725004999993,880.2725004999993,880.2725004999993,880.2725004999993,883.2821875419995,883.2821875419995,884.2634709169997,None,0,,,None,884.2639211250007,884.264004875,None,884.2641456250003,884.2641874170004,None,884.278693541999,884.278693541999,,,,,,,,,,,1,6,0,1,2025-01-13_11h36.30.746,rtmindeye,2024.1.5,None,2025-01-13 11h36.45.624132 -0500,
all_stimuli/shared1000_notspecial/notspecial_70758.png,10,0,0,0,2,6,1,"[9, 21, 31, 45, 56, 68, 69]",,,,,2,0,2,0,0,10,10,10,884.278693541999,,,,,,,,,,,,,,,,,,,,,,884.2646386249999,884.2647525419998,884.2647687089993,884.278693541999,884.278693541999,884.278693541999,884.278693541999,887.2671929999997,887.2671929999997,888.2688772090005,1,1,1.017834958000094,0.2099354999991192,None,888.2694980840006,888.2695706249997,None,888.2696880839994,888.2697267919993,None,,,,,,,,,,,,,1,6,0,1,2025-01-13_11h36.30.746,rtmindeye,2024.1.5,None,2025-01-13 11h36.45.624132 -0500,
all_stimuli/special515/special_47687.jpg,11,0,1,0,2,6,1,"[9, 21, 31, 45, 56, 68, 69]",,,,,2,0,2,0,0,11,11,11,888.2843053340002,,,,,,,,,,,,,,,,,,,,,,888.2701522499992,888.2702777499999,888.2702940420004,888.2843053340002,888.2843053340002,888.2843053340002,888.2843053340002,891.2998010840001,891.2998010840001,892.2671063750004,2,1,0.7022341660012899,0.204973500000051,None,892.2676206249998,892.2676809170007,None,892.2677770419996,892.2678086249998,None,892.2836386670006,892.2836386670006,,,,,,,,,,,1,6,0,1,2025-01-13_11h36.30.746,rtmindeye,2024.1.5,None,2025-01-13 11h36.45.624132 -0500,
all_stimuli/shared1000_notspecial/notspecial_9462.png,12,0,0,0,2,6,1,"[9, 21, 31, 45, 56, 68, 69]",,,,,2,0,2,0,0,12,12,12,892.2836386670006,,,,,,,,,,,,,,,,,,,,,,892.2681601250006,892.268251042,892.2682640420007,892.2836386670006,892.2836386670006,892.2836386670006,892.2836386670006,895.2804102089995,895.2804102089995,896.2671292089999,1,1,1.1678476659999433,0.19599791700056812,None,896.2676412090004,896.2677008749997,None,896.2677953340008,896.2678266250005,None,896.2841399169993,896.2841399169993,,,,,,,,,,,1,6,0,1,2025-01-13_11h36.30.746,rtmindeye,2024.1.5,None,2025-01-13 11h36.45.624132 -0500,
all_stimuli/special515/special_57046.jpg,13,0,0,0,2,6,1,"[9, 21, 31, 45, 56, 68, 69]",,,,,2,0,2,0,0,13,13,13,896.2841399169993,,,,,,,,,,,,,,,,,,,,,,896.2681949170001,896.2682865839997,896.2682994169991,896.2841399169993,896.2841399169993,896.2841399169993,896.2841399169993,899.2823610840005,899.2823610840005,900.2833760419999,1,1,1.1673984580011165,0.22206699999878765,None,900.2840023749995,900.2840769169998,None,900.284196958999,900.2842363750005,None,,,,,,,,,,,,,1,6,0,1,2025-01-13_11h36.30.746,rtmindeye,2024.1.5,None,2025-01-13 11h36.45.624132 -0500,
all_stimuli/shared1000_notspecial/notspecial_57681.png,14,0,0,0,2,6,1,"[9, 21, 31, 45, 56, 68, 69]",,,,,2,0,2,0,0,14,14,14,900.3011675840007,,,,,,,,,,,,,,,,,,,,,,900.2846675839992,900.2847888340002,900.2848046250001,900.3011675840007,900.3011675840007,900.3011675840007,900.3011675840007,903.2972571669998,903.2972571669998,904.2971978339992,1,1,2.1294527079990075,0.1719025000002148,None,904.2979499590001,904.2980476249995,None,904.2982135839993,904.2982654999996,None,,,,,,,,,,,,,1,6,0,1,2025-01-13_11h36.30.746,rtmindeye,2024.1.5,None,2025-01-13 11h36.45.624132 -0500,
all_stimuli/special515/special_22587.jpg,15,0,1,0,2,6,1,"[9, 21, 31, 45, 56, 68, 69]",,,,,2,0,2,0,0,15,15,15,904.3129805419994,,,,,,,,,,,,,,,,,,,,,,904.2988248340007,904.2989784170004,904.2989990839997,904.3129805419994,904.3129805419994,904.3129805419994,904.3129805419994,907.2999849999997,907.2999849999997,908.2974555420005,2,1,0.9006202910004504,0.1889902090006217,None,908.2981119169999,908.2981857089999,None,908.2983199999999,908.2983627089998,None,908.3114942089996,908.3114942089996,,,,,,,,,,,1,6,0,1,2025-01-13_11h36.30.746,rtmindeye,2024.1.5,None,2025-01-13 11h36.45.624132 -0500,
all_stimuli/special515/special_32232.jpg,16,0,1,0,2,6,1,"[9, 21, 31, 45, 56, 68, 69]",,,,,2,0,2,0,0,16,16,16,908.3114942089996,,,,,,,,,,,,,,,,,,,,,,908.2988299169992,908.2989434169995,908.2989592920003,908.3114942089996,908.3114942089996,908.3114942089996,908.3114942089996,911.3163885840004,911.3163885840004,912.2975026669992,2,1,0.7180454580011428,0.15912145799848076,None,912.2981297919996,912.2982202919993,None,912.2983800000002,912.2984290839995,None,912.3117750420006,912.3117750420006,,,,,,,,,,,1,6,0,1,2025-01-13_11h36.30.746,rtmindeye,2024.1.5,None,2025-01-13 11h36.45.624132 -0500,
all_stimuli/special515/special_36731.jpg,17,0,0,0,2,6,1,"[9, 21, 31, 45, 56, 68, 69]",,,,,2,0,2,0,0,17,17,17,912.3117750420006,,,,,,,,,,,,,,,,,,,,,,912.2989531669991,912.2990991669994,912.2991191250003,912.3117750420006,912.3117750420006,912.3117750420006,912.3117750420006,915.3001748339993,915.3001748339993,916.2974159589994,2,0,1.3947869570001785,0.20212220900066313,None,916.2979314999993,916.2979944590006,None,916.2980887499998,916.2981208340007,None,916.3099887089993,916.3099887089993,,,,,,,,,,,1,6,0,1,2025-01-13_11h36.30.746,rtmindeye,2024.1.5,None,2025-01-13 11h36.45.624132 -0500,
all_stimuli/special515/special_40935.jpg,18,0,0,0,2,6,1,"[9, 21, 31, 45, 56, 68, 69]",,,,,2,0,2,0,0,18,18,18,916.3099887089993,,,,,,,,,,,,,,,,,,,,,,916.2984810840007,916.2985730420005,916.298585999999,916.3099887089993,916.3099887089993,916.3099887089993,916.3099887089993,919.3003852090005,919.3003852090005,920.2973817090005,1,1,0.9745798750009271,0.19007879099990532,None,920.2978935840001,920.2979519170003,None,920.2980567499999,920.2980898339993,None,920.3102146250003,920.3102146250003,,,,,,,,,,,1,6,0,1,2025-01-13_11h36.30.746,rtmindeye,2024.1.5,None,2025-01-13 11h36.45.624132 -0500,
all_stimuli/special515/special_41814.jpg,19,0,1,0,2,6,1,"[9, 21, 31, 45, 56, 68, 69]",,,,,2,0,2,0,0,19,19,19,920.3102146250003,,,,,,,,,,,,,,,,,,,,,,920.2984462919994,920.2985384170006,920.2985515839991,920.3102146250003,920.3102146250003,920.3102146250003,920.3102146250003,923.3161207499998,923.3161207499998,924.2972039169999,2,1,0.8674975000012637,0.14896645800035913,None,924.2977295420005,924.2977938339991,None,924.2978886250003,924.2979203750001,None,924.3106397920001,924.3106397920001,,,,,,,,,,,1,6,0,1,2025-01-13_11h36.30.746,rtmindeye,2024.1.5,None,2025-01-13 11h36.45.624132 -0500,
all_stimuli/special515/special_64880.jpg,20,0,1,0,2,6,1,"[9, 21, 31, 45, 56, 68, 69]",,,,,2,0,2,0,0,20,20,20,924.3106397920001,,,,,,,,,,,,,,,,,,,,,,924.2982717089999,924.298365875,924.2983787920002,924.3106397920001,924.3106397920001,924.3106397920001,924.3106397920001,927.3012381669996,927.3012381669996,928.2968302089994,2,1,0.7980459999998857,0.1749139160001505,None,928.2971449590004,928.2971777919993,None,928.297237834,928.2972547499994,None,928.3025031670004,928.3025031670004,,,,,,,,,,,1,6,0,1,2025-01-13_11h36.30.746,rtmindeye,2024.1.5,None,2025-01-13 11h36.45.624132 -0500,
blank.jpg,21,1,0,0,2,6,1,"[9, 21, 31, 45, 56, 68, 69]",,,,,2,0,2,0,0,21,21,21,928.3025031670004,,,,,,,,,,,,,,,,,,,,,,928.2974559590002,928.297505167,928.2975122089993,928.3025031670004,928.3025031670004,928.3025031670004,928.3025031670004,931.3045466669992,931.3045466669992,932.2994854169992,None,0,,,None,932.3002510419992,932.3003652499992,None,932.3004959169994,932.3005426250002,None,,,,,,,,,,,,,1,6,0,1,2025-01-13_11h36.30.746,rtmindeye,2024.1.5,None,2025-01-13 11h36.45.624132 -0500,
all_stimuli/MST_pairs1/pair_26_nsd_483_1_cocoid_37825.png,22,0,0,0,2,6,1,"[9, 21, 31, 45, 56, 68, 69]",,,,,2,0,2,0,0,22,22,22,932.3307525839991,,,,,,,,,,,,,,,,,,,,,,932.3011591249997,932.3015234590002,932.3015670839995,932.3307525839991,932.3307525839991,932.3307525839991,932.3307525839991,935.330190834,935.330190834,936.3174579999995,1,1,0.934893749999901,0.1890184580006462,None,936.3183577500004,936.3184546249995,None,936.3185845000007,936.3186378749997,None,,,,,,,,,,,,,1,6,0,1,2025-01-13_11h36.30.746,rtmindeye,2024.1.5,None,2025-01-13 11h36.45.624132 -0500,
all_stimuli/shared1000_notspecial/notspecial_70764.png,23,0,0,0,2,6,1,"[9, 21, 31, 45, 56, 68, 69]",,,,,2,0,2,0,0,23,23,23,936.3365799589992,,,,,,,,,,,,,,,,,,,,,,936.3192820000004,936.3196019169991,936.3196191669995,936.3365799589992,936.3365799589992,936.3365799589992,936.3365799589992,939.350189458999,939.350189458999,940.3304678749992,1,1,1.1881488330000138,0.16499425000074552,None,940.3310454589991,940.3311052089994,None,940.3312049169999,940.3312368339994,None,,,,,,,,,,,,,1,6,0,1,2025-01-13_11h36.30.746,rtmindeye,2024.1.5,None,2025-01-13 11h36.45.624132 -0500,
all_stimuli/special515/special_8933.jpg,24,0,1,0,2,6,1,"[9, 21, 31, 45, 56, 68, 69]",,,,,2,0,2,0,0,24,24,24,940.3459821670003,,,,,,,,,,,,,,,,,,,,,,940.3316079169999,940.3317049590005,940.3317185420001,940.3459821670003,940.3459821670003,940.3459821670003,940.3459821670003,943.3338132499994,943.3338132499994,944.3322492499992,2,1,1.5786932079990947,0.19508187500105123,None,944.3337122089997,944.3338532090002,None,944.3340699170003,944.3341789999995,None,944.3487949589999,944.3487949589999,,,,,,,,,,,1,6,0,1,2025-01-13_11h36.30.746,rtmindeye,2024.1.5,None,2025-01-13 11h36.45.624132 -0500,
