current_image,trial_index,is_blank_trial,is_repeat,is_new_run,run_num,sess_num,is_not_last_trial,all_blanks_list,practice.thisRepN,practice.thisTrialN,practice.thisN,practice.thisIndex,loop_runs.thisRepN,loop_runs.thisTrialN,loop_runs.thisN,loop_runs.thisIndex,loop_all_images.thisRepN,loop_all_images.thisTrialN,loop_all_images.thisN,loop_all_images.thisIndex,thisRow.t,notes,set_up.started,set_up.stopped,practice_continue.started,practice_continue.stopped,key_resp_6.keys,practice_trial.started,practice_trial.stopped,press_if_repeat_2.keys,press_if_repeat_2.corr,all_keys_pressed_2.keys,testing_continue.started,testing_continue.stopped,key_resp_7.keys,waiting_fmri.started,key_resp_2.started,text_3.started,waiting_fmri.stopped,key_resp_2.keys,key_resp_2.rt,key_resp_2.duration,set_skips_and_correct_key.started,set_skips_and_correct_key.stopped,trial.started,image.started,press_if_repeat.started,polygon.started,all_keys_pressed.started,image.stopped,press_if_repeat.stopped,trial.stopped,press_if_repeat.keys,press_if_repeat.corr,press_if_repeat.rt,press_if_repeat.duration,all_keys_pressed.keys,run_wait2_2.started,run_wait2_2.stopped,key_resp_5.keys,waiting_fmri_2.started,waiting_fmri_2.stopped,key_resp_4.keys,polygon.stopped,all_keys_pressed.stopped,key_resp_5.started,text_5.started,key_resp_5.rt,key_resp_5.duration,key_resp_4.started,text_4.started,key_resp_4.rt,key_resp_4.duration,participant,session (1 2 or 3),starting_run,skip_practice,date,expName,psychopyVersion,frameRate,expStart,
,,,,,,,,,,,,,,,,,,,,,,,0.008920749998651445,0.009082458998818765,,,,,,,,,,,,,,,,,,,,,,,,,,,,,,,,,,,,,,,,,,,,,,,,,,1,7,0,1,2025-01-13_12h13.00.304,rtmindeye,2024.1.5,None,2025-01-13 12h13.16.581569 -0500,
,,,,,,,,,,,,,,,,,,,,,,,,,0.009096499999941443,0.01643304199933482,None,,,,,,,,,,,,,,,,,,,,,,,,,,,,,,,,,,,,,,,,,,,,,,,1,7,0,1,2025-01-13_12h13.00.304,rtmindeye,2024.1.5,None,2025-01-13 12h13.16.581569 -0500,
practice_images/w_kitchen2.jpg,0,0,,,,,,,0,0,0,0,,,,,,,,,0.06049324999912642,,,,,,,0.022119249999377644,0.02677712500008056,None,0,None,,,,,,,,,,,,,,,,,,,,,,,,,,,,,,,,,,,,,,,,,,1,7,0,1,2025-01-13_12h13.00.304,rtmindeye,2024.1.5,None,2025-01-13 12h13.16.581569 -0500,
practice_images/w_boardwalk2.jpg,1,0,,,,,,,0,1,1,1,,,,,,,,,0.06049324999912642,,,,,,,0.02723179199892911,0.030398875000173575,None,0,None,,,,,,,,,,,,,,,,,,,,,,,,,,,,,,,,,,,,,,,,,,1,7,0,1,2025-01-13_12h13.00.304,rtmindeye,2024.1.5,None,2025-01-13 12h13.16.581569 -0500,
practice_images/w_monument2.jpg,2,0,,,,,,,0,2,2,2,,,,,,,,,0.06049324999912642,,,,,,,0.030682624999826658,0.03280304199870443,None,0,None,,,,,,,,,,,,,,,,,,,,,,,,,,,,,,,,,,,,,,,,,,1,7,0,1,2025-01-13_12h13.00.304,rtmindeye,2024.1.5,None,2025-01-13 12h13.16.581569 -0500,
practice_images/w_auditorium2.jpg,3,0,,,,,,,0,3,3,3,,,,,,,,,0.06049324999912642,,,,,,,0.03305979200013098,0.035188292000384536,None,0,None,,,,,,,,,,,,,,,,,,,,,,,,,,,,,,,,,,,,,,,,,,1,7,0,1,2025-01-13_12h13.00.304,rtmindeye,2024.1.5,None,2025-01-13 12h13.16.581569 -0500,
practice_images/w_kitchen2.jpg,4,0,,,,,,,0,4,4,4,,,,,,,,,0.06049324999912642,,,,,,,0.035445749999780674,0.03725341700010176,None,0,None,,,,,,,,,,,,,,,,,,,,,,,,,,,,,,,,,,,,,,,,,,1,7,0,1,2025-01-13_12h13.00.304,rtmindeye,2024.1.5,None,2025-01-13 12h13.16.581569 -0500,
practice_images/w_auditorium1.jpg,5,0,,,,,,,0,5,5,5,,,,,,,,,0.06049324999912642,,,,,,,0.03751220899903274,0.039430417000403395,None,0,None,,,,,,,,,,,,,,,,,,,,,,,,,,,,,,,,,,,,,,,,,,1,7,0,1,2025-01-13_12h13.00.304,rtmindeye,2024.1.5,None,2025-01-13 12h13.16.581569 -0500,
practice_images/w_bedroom2.jpg,6,0,,,,,,,0,6,6,6,,,,,,,,,0.06049324999912642,,,,,,,0.039681666999968,0.04155095900023298,None,0,None,,,,,,,,,,,,,,,,,,,,,,,,,,,,,,,,,,,,,,,,,,1,7,0,1,2025-01-13_12h13.00.304,rtmindeye,2024.1.5,None,2025-01-13 12h13.16.581569 -0500,
practice_images/w_kitchen1.jpg,7,0,,,,,,,0,7,7,7,,,,,,,,,0.06049324999912642,,,,,,,0.04179679200024111,0.043569458999627386,None,0,None,,,,,,,,,,,,,,,,,,,,,,,,,,,,,,,,,,,,,,,,,,1,7,0,1,2025-01-13_12h13.00.304,rtmindeye,2024.1.5,None,2025-01-13 12h13.16.581569 -0500,
practice_images/w_bedroom1.jpg,8,0,,,,,,,0,8,8,8,,,,,,,,,0.06049324999912642,,,,,,,0.043811916999402456,0.04570466699988174,None,0,None,,,,,,,,,,,,,,,,,,,,,,,,,,,,,,,,,,,,,,,,,,1,7,0,1,2025-01-13_12h13.00.304,rtmindeye,2024.1.5,None,2025-01-13 12h13.16.581569 -0500,
practice_images/w_monument2.jpg,9,0,,,,,,,0,9,9,9,,,,,,,,,0.06049324999912642,,,,,,,0.04595441699893854,0.04754537499866274,None,0,None,,,,,,,,,,,,,,,,,,,,,,,,,,,,,,,,,,,,,,,,,,1,7,0,1,2025-01-13_12h13.00.304,rtmindeye,2024.1.5,None,2025-01-13 12h13.16.581569 -0500,
,,,,,,,,,,,,,,,,,,,,,,,,,,,,,,,,,0.04770295900016208,0.05550704199959,None,,,,,,,,,,,,,,,,,,,,,,,,,,,,,,,,,,,,,,,1,7,0,1,2025-01-13_12h13.00.304,rtmindeye,2024.1.5,None,2025-01-13 12h13.16.581569 -0500,
,,,,,,,,,,,,,,,,,,,,,,,,,,,,,,,,,,,,0.05552145900037431,0.06049324999912642,0.06049324999912642,84.1635714999993,equal,83.93089979099932,None,,,,,,,,,,,,,,,,,,,,,,,,,,,,,,,,1,7,0,1,2025-01-13_12h13.00.304,rtmindeye,2024.1.5,None,2025-01-13 12h13.16.581569 -0500,
all_stimuli/special515/special_13613.jpg,0,0,0,0,0,7,1,"[9, 21, 31, 45, 56, 68, 69]",,,,,0,0,0,0,0,0,0,0,84.18943887499881,,,,,,,,,,,,,,,,,,,,,,84.1730571249991,84.17312299999867,84.17313133399875,84.18943887499881,84.18943887499881,84.18943887499881,84.18943887499881,87.18506499999967,87.18506499999967,88.1866525839996,1,1,0.6489152909998666,0.2220515829994838,None,88.18787245899875,88.18795504199988,None,88.18822558399916,88.1882725839987,None,,,,,,,,,,,1,7,0,1,2025-01-13_12h13.00.304,rtmindeye,2024.1.5,None,2025-01-13 12h13.16.581569 -0500,
all_stimuli/shared1000_notspecial/notspecial_31049.png,1,0,0,0,0,7,1,"[9, 21, 31, 45, 56, 68, 69]",,,,,0,0,0,0,0,1,1,1,88.20648158400036,,,,,,,,,,,,,,,,,,,,,,88.18892312499884,88.18913262499882,88.18914954199863,88.20648158400036,88.20648158400036,88.20648158400036,88.20648158400036,91.22073995899882,91.22073995899882,92.20461416699982,1,1,0.7119017079985497,0.19104183300078148,None,92.20542387499881,92.20550974999969,None,92.2056599589996,92.20571295899936,None,,,,,,,,,,,1,7,0,1,2025-01-13_12h13.00.304,rtmindeye,2024.1.5,None,2025-01-13 12h13.16.581569 -0500,
all_stimuli/special515/special_28096.jpg,2,0,0,0,0,7,1,"[9, 21, 31, 45, 56, 68, 69]",,,,,0,0,0,0,0,2,2,2,92.22175249999964,,,,,,,,,,,,,,,,,,,,,,92.20628624999881,92.20647483399989,92.20649537499958,92.22175249999964,92.22175249999964,92.22175249999964,92.22175249999964,95.21997908399862,95.21997908399862,96.205044291999,1,1,0.6506124160005129,0.18602458299938007,None,96.20555795899963,96.20561325000017,None,96.20570874999976,96.20574141699944,None,96.221377459,96.221377459,,,,,,,,,1,7,0,1,2025-01-13_12h13.00.304,rtmindeye,2024.1.5,None,2025-01-13 12h13.16.581569 -0500,
all_stimuli/shared1000_notspecial/notspecial_68471.png,3,0,0,0,0,7,1,"[9, 21, 31, 45, 56, 68, 69]",,,,,0,0,0,0,0,3,3,3,96.221377459,,,,,,,,,,,,,,,,,,,,,,96.2060918749994,96.20618416700017,96.20619733399872,96.221377459,96.221377459,96.221377459,96.221377459,99.21870841700002,99.21870841700002,100.22025470900007,1,1,0.6370039579996956,0.21009366599901114,None,100.22132229199997,100.22142379199977,None,100.22158366700023,100.22164137499931,None,,,,,,,,,,,1,7,0,1,2025-01-13_12h13.00.304,rtmindeye,2024.1.5,None,2025-01-13 12h13.16.581569 -0500,
all_stimuli/special515/special_15506.jpg,4,0,0,0,0,7,1,"[9, 21, 31, 45, 56, 68, 69]",,,,,0,0,0,0,0,4,4,4,100.23867916699965,,,,,,,,,,,,,,,,,,,,,,100.22257245899891,100.22276858399891,100.22279087499919,100.23867916699965,100.23867916699965,100.23867916699965,100.23867916699965,103.25342095899941,103.25342095899941,104.22617837500002,1,1,0.7437639159998071,0.17294362499887939,None,104.22671375000027,104.22676633399897,None,104.22685045899925,104.22687870899972,None,,,,,,,,,,,1,7,0,1,2025-01-13_12h13.00.304,rtmindeye,2024.1.5,None,2025-01-13 12h13.16.581569 -0500,
all_stimuli/MST_pairs1/pair_24_nsd_158_1_cocoid_2285.png,5,0,0,0,0,7,1,"[9, 21, 31, 45, 56, 68, 69]",,,,,0,0,0,0,0,5,5,5,104.25476508399879,,,,,,,,,,,,,,,,,,,,,,104.22719445899929,104.22731145899888,104.22732299999916,104.25476508399879,104.25476508399879,104.25476508399879,104.25476508399879,107.25493562500014,107.25493562500014,108.23804229199959,1,1,0.8356239569984609,0.20809579200067674,None,108.238951542,108.23904466699969,None,108.23917208399871,108.23922258399944,None,,,,,,,,,,,1,7,0,1,2025-01-13_12h13.00.304,rtmindeye,2024.1.5,None,2025-01-13 12h13.16.581569 -0500,
all_stimuli/MST_pairs1/pair_10_14_89.png,6,0,0,0,0,7,1,"[9, 21, 31, 45, 56, 68, 69]",,,,,0,0,0,0,0,6,6,6,108.2570803339986,,,,,,,,,,,,,,,,,,,,,,108.23988099999951,108.24012866699923,108.24014591699961,108.2570803339986,108.2570803339986,108.2570803339986,108.2570803339986,111.25563866700031,111.25563866700031,112.25198879199888,1,1,1.033418041000914,0.19597054199948616,None,112.25251500000013,112.25256637500024,None,112.25264991699987,112.25267791700026,None,,,,,,,,,,,1,7,0,1,2025-01-13_12h13.00.304,rtmindeye,2024.1.5,None,2025-01-13 12h13.16.581569 -0500,
all_stimuli/special515/special_62015.jpg,7,0,0,0,0,7,1,"[9, 21, 31, 45, 56, 68, 69]",,,,,0,0,0,0,0,7,7,7,112.26552724999965,,,,,,,,,,,,,,,,,,,,,,112.25299008399998,112.25308366699937,112.25309508399914,112.26552724999965,112.26552724999965,112.26552724999965,112.26552724999965,115.27170529199975,115.27170529199975,116.25507208399904,1,1,0.6689680830004363,0.19503366599928995,None,116.25571541699901,116.25578512500033,None,116.2559020839999,116.25594083400028,None,,,,,,,,,,,1,7,0,1,2025-01-13_12h13.00.304,rtmindeye,2024.1.5,None,2025-01-13 12h13.16.581569 -0500,
all_stimuli/special515/special_47687.jpg,8,0,0,0,0,7,1,"[9, 21, 31, 45, 56, 68, 69]",,,,,0,0,0,0,0,8,8,8,116.27219995899941,,,,,,,,,,,,,,,,,,,,,,116.25637124999957,116.25648845899923,116.25650483400022,116.27219995899941,116.27219995899941,116.27219995899941,116.27219995899941,119.2686589169989,119.2686589169989,120.25519358400015,1,1,0.6172541249998176,0.17605324999931327,None,120.2558191249991,120.25588658400011,None,120.25600370899883,120.25604279199979,None,120.26838191699972,120.26838191699972,,,,,,,,,1,7,0,1,2025-01-13_12h13.00.304,rtmindeye,2024.1.5,None,2025-01-13 12h13.16.581569 -0500,
blank.jpg,9,1,0,0,0,7,1,"[9, 21, 31, 45, 56, 68, 69]",,,,,0,0,0,0,0,9,9,9,120.26838191699972,,,,,,,,,,,,,,,,,,,,,,120.25647374999971,120.25659658400036,120.25661245899937,120.26838191699972,120.26838191699972,120.26838191699972,120.26838191699972,123.27146774999892,123.27146774999892,124.25289666699973,None,0,,,None,124.25340649999998,124.25347258399961,None,124.2535928340003,124.25363229199866,None,124.26842487499925,124.26842487499925,,,,,,,,,1,7,0,1,2025-01-13_12h13.00.304,rtmindeye,2024.1.5,None,2025-01-13 12h13.16.581569 -0500,
all_stimuli/special515/special_4249.jpg,10,0,0,0,0,7,1,"[9, 21, 31, 45, 56, 68, 69]",,,,,0,0,0,0,0,10,10,10,124.26842487499925,,,,,,,,,,,,,,,,,,,,,,124.25408854200032,124.25420583399864,124.25422287499896,124.26842487499925,124.26842487499925,124.26842487499925,124.26842487499925,127.27073820899932,127.27073820899932,128.2546548749997,1,1,0.6879798739992111,0.17208237500017276,None,128.25556962500013,128.25567070899888,None,128.2557986669999,128.25584620900008,None,,,,,,,,,,,1,7,0,1,2025-01-13_12h13.00.304,rtmindeye,2024.1.5,None,2025-01-13 12h13.16.581569 -0500,
all_stimuli/special515/special_54361.jpg,11,0,0,0,0,7,1,"[9, 21, 31, 45, 56, 68, 69]",,,,,0,0,0,0,0,11,11,11,128.28557412499867,,,,,,,,,,,,,,,,,,,,,,128.25651758399908,128.25672187499913,128.25674454199907,128.28557412499867,128.28557412499867,128.28557412499867,128.28557412499867,131.27259295899967,131.27259295899967,132.27072866699928,1,1,0.8740128739991633,0.18494550000104937,None,132.27120541699878,132.2712537089992,None,132.2713359999998,132.2713636669996,None,,,,,,,,,,,1,7,0,1,2025-01-13_12h13.00.304,rtmindeye,2024.1.5,None,2025-01-13 12h13.16.581569 -0500,
all_stimuli/special515/special_6489.jpg,12,0,0,0,0,7,1,"[9, 21, 31, 45, 56, 68, 69]",,,,,0,0,0,0,0,12,12,12,132.28875249999874,,,,,,,,,,,,,,,,,,,,,,132.27167020900015,132.27175533399895,132.27176662499915,132.28875249999874,132.28875249999874,132.28875249999874,132.28875249999874,135.2868789589993,135.2868789589993,136.27578416699907,1,1,0.5468139160002465,0.18190837499969348,None,136.27641683399997,136.2764876250003,None,136.27660300000025,136.27664229199945,None,,,,,,,,,,,1,7,0,1,2025-01-13_12h13.00.304,rtmindeye,2024.1.5,None,2025-01-13 12h13.16.581569 -0500,
all_stimuli/special515/special_38641.jpg,13,0,0,0,0,7,1,"[9, 21, 31, 45, 56, 68, 69]",,,,,0,0,0,0,0,13,13,13,136.29012233399953,,,,,,,,,,,,,,,,,,,,,,136.27706958399904,136.27719375000015,136.27720983399922,136.29012233399953,136.29012233399953,136.29012233399953,136.29012233399953,139.2852368749991,139.2852368749991,140.28837979200034,1,1,0.6864232489988353,0.1940467090007587,None,140.2891217919987,140.28919933399993,None,140.28932650000024,140.28936599999906,None,,,,,,,,,,,1,7,0,1,2025-01-13_12h13.00.304,rtmindeye,2024.1.5,None,2025-01-13 12h13.16.581569 -0500,
all_stimuli/shared1000_notspecial/notspecial_67168.png,14,0,0,0,0,7,1,"[9, 21, 31, 45, 56, 68, 69]",,,,,0,0,0,0,0,14,14,14,140.30550583399963,,,,,,,,,,,,,,,,,,,,,,140.2898501669988,140.29004799999893,140.2900644170004,140.30550583399963,140.30550583399963,140.30550583399963,140.30550583399963,143.303994083999,143.303994083999,144.28860929199982,1,1,1.089106374000039,0.20891574999950535,None,144.2895155419992,144.28959679199943,None,144.28973299999961,144.28978858399933,None,144.31835545899958,144.31835545899958,,,,,,,,,1,7,0,1,2025-01-13_12h13.00.304,rtmindeye,2024.1.5,None,2025-01-13 12h13.16.581569 -0500,
all_stimuli/shared1000_notspecial/notspecial_59079.png,15,0,0,0,0,7,1,"[9, 21, 31, 45, 56, 68, 69]",,,,,0,0,0,0,0,15,15,15,144.31835545899958,,,,,,,,,,,,,,,,,,,,,,144.29044016700027,144.29056120899986,144.29057829199883,144.31835545899958,144.31835545899958,144.31835545899958,144.31835545899958,147.3207167089986,147.3207167089986,148.30409316700025,1,1,1.0871864580003603,0.166996707999715,None,148.30473837499994,148.30480820899902,None,148.30492883399893,148.3049685419992,None,,,,,,,,,,,1,7,0,1,2025-01-13_12h13.00.304,rtmindeye,2024.1.5,None,2025-01-13 12h13.16.581569 -0500,
all_stimuli/MST_pairs1/pair_2_4_89.png,16,0,0,0,0,7,1,"[9, 21, 31, 45, 56, 68, 69]",,,,,0,0,0,0,0,16,16,16,148.32317541699922,,,,,,,,,,,,,,,,,,,,,,148.30542383399916,148.30554112499885,148.30555741699936,148.32317541699922,148.32317541699922,148.32317541699922,148.32317541699922,151.33750079200036,151.33750079200036,152.32118912499936,1,1,0.9033647489995928,0.1924439579997852,None,152.32185049999862,152.32191933399918,None,152.32205562499985,152.32209666699964,None,,,,,,,,,,,1,7,0,1,2025-01-13_12h13.00.304,rtmindeye,2024.1.5,None,2025-01-13 12h13.16.581569 -0500,
all_stimuli/shared1000_notspecial/notspecial_26127.png,17,0,0,0,0,7,1,"[9, 21, 31, 45, 56, 68, 69]",,,,,0,0,0,0,0,17,17,17,152.33859291699991,,,,,,,,,,,,,,,,,,,,,,152.3225500839999,152.32271333399876,152.32272974999978,152.33859291699991,152.33859291699991,152.33859291699991,152.33859291699991,155.35386516699873,155.35386516699873,156.32228195899916,1,1,0.9550095409995265,0.1999820830005774,None,156.32292970900016,156.32299987499937,None,156.3231180419989,156.32315762500002,None,156.33937074999994,156.33937074999994,,,,,,,,,1,7,0,1,2025-01-13_12h13.00.304,rtmindeye,2024.1.5,None,2025-01-13 12h13.16.581569 -0500,
all_stimuli/shared1000_notspecial/notspecial_20223.png,18,0,0,0,0,7,1,"[9, 21, 31, 45, 56, 68, 69]",,,,,0,0,0,0,0,18,18,18,156.33937074999994,,,,,,,,,,,,,,,,,,,,,,156.32359895899936,156.32371245899958,156.3237286249987,156.33937074999994,156.33937074999994,156.33937074999994,156.33937074999994,159.33588845899976,159.33588845899976,160.3409845419992,1,1,0.8332024989995261,0.17102908400011074,None,160.34163041699867,160.34170174999963,None,160.34181912500026,160.3418579169993,None,,,,,,,,,,,1,7,0,1,2025-01-13_12h13.00.304,rtmindeye,2024.1.5,None,2025-01-13 12h13.16.581569 -0500,
all_stimuli/special515/special_62015.jpg,19,0,1,0,0,7,1,"[9, 21, 31, 45, 56, 68, 69]",,,,,0,0,0,0,0,19,19,19,160.35571266700026,,,,,,,,,,,,,,,,,,,,,,160.34228683400033,160.3424262089993,160.34244295899953,160.35571266700026,160.35571266700026,160.35571266700026,160.35571266700026,163.37012175000018,163.37012175000018,164.35385779199896,2,1,0.9198977910000394,0.15499295799963875,None,164.35477504200026,164.35487166699932,None,164.354995959,164.35504124999898,None,,,,,,,,,,,1,7,0,1,2025-01-13_12h13.00.304,rtmindeye,2024.1.5,None,2025-01-13 12h13.16.581569 -0500,
all_stimuli/special515/special_10244.jpg,20,0,0,0,0,7,1,"[9, 21, 31, 45, 56, 68, 69]",,,,,0,0,0,0,0,20,20,20,164.3707708339989,,,,,,,,,,,,,,,,,,,,,,164.35565408399998,164.35598287500034,164.35599999999977,164.3707708339989,164.3707708339989,164.3707708339989,164.3707708339989,167.37052058399968,167.37052058399968,168.35624941700007,1,1,0.8968237909994059,0.20894358400073543,None,168.35753008400025,168.35778174999905,None,168.35808212499978,168.35813783399863,None,168.37267425000027,168.37267425000027,,,,,,,,,1,7,0,1,2025-01-13_12h13.00.304,rtmindeye,2024.1.5,None,2025-01-13 12h13.16.581569 -0500,
blank.jpg,21,1,0,0,0,7,1,"[9, 21, 31, 45, 56, 68, 69]",,,,,0,0,0,0,0,21,21,21,168.37267425000027,,,,,,,,,,,,,,,,,,,,,,168.3587037090001,168.35886754199964,168.35888391699882,168.37267425000027,168.37267425000027,168.37267425000027,168.37267425000027,171.38762333399973,171.38762333399973,172.371686167,None,0,,,None,172.37215033400025,172.3722221249991,None,172.37234366699886,172.37238425000032,None,,,,,,,,,,,1,7,0,1,2025-01-13_12h13.00.304,rtmindeye,2024.1.5,None,2025-01-13 12h13.16.581569 -0500,
all_stimuli/special515/special_28524.jpg,22,0,0,0,0,7,1,"[9, 21, 31, 45, 56, 68, 69]",,,,,0,0,0,0,0,22,22,22,172.3894674589992,,,,,,,,,,,,,,,,,,,,,,172.37282158400012,172.37293958400005,172.37295591699876,172.3894674589992,172.3894674589992,172.3894674589992,172.3894674589992,175.4043831250001,175.4043831250001,176.37384179199944,1,1,0.9272694159990351,0.20392833299956692,None,176.37467641699914,176.37476349999997,None,176.37491262499861,176.37496504199953,None,,,,,,,,,,,1,7,0,1,2025-01-13_12h13.00.304,rtmindeye,2024.1.5,None,2025-01-13 12h13.16.581569 -0500,
all_stimuli/special515/special_30430.jpg,23,0,0,0,0,7,1,"[9, 21, 31, 45, 56, 68, 69]",,,,,0,0,0,0,0,23,23,23,176.3847786669994,,,,,,,,,,,,,,,,,,,,,,176.37562833399897,176.37573187499947,176.375742541999,176.3847786669994,176.3847786669994,176.3847786669994,176.3847786669994,179.3710857089991,179.3710857089991,180.3695209999987,1,1,0.764976458000092,0.1979866250003397,None,180.37041854199924,180.37053174999892,None,180.3706982499989,180.37072129199987,None,180.3803204169999,180.3803204169999,,,,,,,,,1,7,0,1,2025-01-13_12h13.00.304,rtmindeye,2024.1.5,None,2025-01-13 12h13.16.581569 -0500,
all_stimuli/MST_pairs1/pair_10_14_33.png,24,0,0,0,0,7,1,"[9, 21, 31, 45, 56, 68, 69]",,,,,0,0,0,0,0,24,24,24,180.3803204169999,,,,,,,,,,,,,,,,,,,,,,180.37096841699895,180.37105599999995,180.3710633339997,180.3803204169999,180.3803204169999,180.3803204169999,180.3803204169999,183.37258974999895,183.37258974999895,184.3690407920003,1,1,0.8463647080006922,0.18205112499890674,None,184.36957274999986,184.3696289999989,None,184.36972391699965,184.3697558749991,None,184.3835423749988,184.3835423749988,,,,,,,,,1,7,0,1,2025-01-13_12h13.00.304,rtmindeye,2024.1.5,None,2025-01-13 12h13.16.581569 -0500,
all_stimuli/shared1000_notspecial/notspecial_10907.png,25,0,0,0,0,7,1,"[9, 21, 31, 45, 56, 68, 69]",,,,,0,0,0,0,0,25,25,25,184.3835423749988,,,,,,,,,,,,,,,,,,,,,,184.37011062499914,184.3702018749991,184.37021487499987,184.3835423749988,184.3835423749988,184.3835423749988,184.3835423749988,187.3729158749993,187.3729158749993,188.36889916699874,1,1,1.1172171660000458,0.19706637499984936,None,188.36942787499902,188.3694838749998,None,188.36959724999906,188.36962849999873,None,188.3836642089991,188.3836642089991,,,,,,,,,1,7,0,1,2025-01-13_12h13.00.304,rtmindeye,2024.1.5,None,2025-01-13 12h13.16.581569 -0500,
all_stimuli/special515/special_22587.jpg,26,0,0,0,0,7,1,"[9, 21, 31, 45, 56, 68, 69]",,,,,0,0,0,0,0,26,26,26,188.3836642089991,,,,,,,,,,,,,,,,,,,,,,188.37000833399907,188.37011116699978,188.37012470899936,188.3836642089991,188.3836642089991,188.3836642089991,188.3836642089991,191.37629395899967,191.37629395899967,192.37055358399994,1,1,0.8540919579991169,0.19898745799946482,None,192.37121204199866,192.37128312499954,None,192.37140433399873,192.37144445899867,None,,,,,,,,,,,1,7,0,1,2025-01-13_12h13.00.304,rtmindeye,2024.1.5,None,2025-01-13 12h13.16.581569 -0500,
all_stimuli/special515/special_3687.jpg,27,0,0,0,0,7,1,"[9, 21, 31, 45, 56, 68, 69]",,,,,0,0,0,0,0,27,27,27,192.38870066699928,,,,,,,,,,,,,,,,,,,,,,192.3718872089994,192.3720080839994,192.37202400000024,192.38870066699928,192.38870066699928,192.38870066699928,192.38870066699928,195.4038265420004,195.4038265420004,196.3854390839988,1,1,0.8990042490004271,0.21901354200053902,None,196.38586045899865,196.38590033400033,None,196.38596700000016,196.38598850000017,None,,,,,,,,,,,1,7,0,1,2025-01-13_12h13.00.304,rtmindeye,2024.1.5,None,2025-01-13 12h13.16.581569 -0500,
all_stimuli/shared1000_notspecial/notspecial_58164.png,28,0,0,0,0,7,1,"[9, 21, 31, 45, 56, 68, 69]",,,,,0,0,0,0,0,28,28,28,196.39841866699862,,,,,,,,,,,,,,,,,,,,,,196.38623695899878,196.38631062499917,196.3863193340003,196.39841866699862,196.39841866699862,196.39841866699862,196.39841866699862,199.38910391699937,199.38910391699937,200.3900438339988,1,1,0.7883540830007405,0.20704195799953595,None,200.39131541699862,200.39145262499915,None,200.39159004199973,200.39163904199995,None,,,,,,,,,,,1,7,0,1,2025-01-13_12h13.00.304,rtmindeye,2024.1.5,None,2025-01-13 12h13.16.581569 -0500,
all_stimuli/special515/special_38494.jpg,29,0,0,0,0,7,1,"[9, 21, 31, 45, 56, 68, 69]",,,,,0,0,0,0,0,29,29,29,200.4073101670001,,,,,,,,,,,,,,,,,,,,,,200.39256720899903,200.39269791699917,200.39272016699942,200.4073101670001,200.4073101670001,200.4073101670001,200.4073101670001,203.40551024999877,203.40551024999877,204.40470116699908,1,1,0.716434833000676,0.20304045800003223,None,204.40571437499966,204.4058374999986,None,204.40599741699953,204.40605700000015,None,,,,,,,,,,,1,7,0,1,2025-01-13_12h13.00.304,rtmindeye,2024.1.5,None,2025-01-13 12h13.16.581569 -0500,
all_stimuli/MST_pairs1/pair_12_16_22.png,30,0,0,0,0,7,1,"[9, 21, 31, 45, 56, 68, 69]",,,,,0,0,0,0,0,30,30,30,204.4251802919989,,,,,,,,,,,,,,,,,,,,,,204.40694120899934,204.4071347499994,204.40716149999935,204.4251802919989,204.4251802919989,204.4251802919989,204.4251802919989,207.43802091699945,207.43802091699945,208.42154895899876,1,1,0.8876579989992024,0.20391262500015728,None,208.42248020899933,208.4225753339997,None,208.42270362499949,208.42275195900038,None,,,,,,,,,,,1,7,0,1,2025-01-13_12h13.00.304,rtmindeye,2024.1.5,None,2025-01-13 12h13.16.581569 -0500,
blank.jpg,31,1,0,0,0,7,1,"[9, 21, 31, 45, 56, 68, 69]",,,,,0,0,0,0,0,31,31,31,208.4350724169999,,,,,,,,,,,,,,,,,,,,,,208.42346041699966,208.423651916999,208.42367441699935,208.4350724169999,208.4350724169999,208.4350724169999,208.4350724169999,211.43803804199888,211.43803804199888,212.41923679199863,None,0,,,None,212.41971187499985,212.41978041699986,None,212.41991420900013,212.41995512500034,None,212.43536983400008,212.43536983400008,,,,,,,,,1,7,0,1,2025-01-13_12h13.00.304,rtmindeye,2024.1.5,None,2025-01-13 12h13.16.581569 -0500,
all_stimuli/special515/special_66489.jpg,32,0,0,0,0,7,1,"[9, 21, 31, 45, 56, 68, 69]",,,,,0,0,0,0,0,32,32,32,212.43536983400008,,,,,,,,,,,,,,,,,,,,,,212.42039370899874,212.4205150839989,212.4205314589999,212.43536983400008,212.43536983400008,212.43536983400008,212.43536983400008,215.42475645899867,215.42475645899867,216.4215490839997,1,1,0.8564204989997961,0.23406904200055578,None,216.4225048749995,216.42260024999996,None,216.4227275840003,216.4227762089995,None,,,,,,,,,,,1,7,0,1,2025-01-13_12h13.00.304,rtmindeye,2024.1.5,None,2025-01-13 12h13.16.581569 -0500,
all_stimuli/MST_pairs1/pair_28_nsd_547_1_cocoid_60932.png,33,0,0,0,0,7,1,"[9, 21, 31, 45, 56, 68, 69]",,,,,0,0,0,0,0,33,33,33,216.44942312499916,,,,,,,,,,,,,,,,,,,,,,216.42364287499913,216.42382100000032,216.42384562499865,216.44942312499916,216.44942312499916,216.44942312499916,216.44942312499916,219.4391853750003,219.4391853750003,220.43898533399988,1,1,0.8594096659999195,0.2010344169993914,None,220.43961958399996,220.43968858399967,None,220.43980783400002,220.43984762499895,None,,,,,,,,,,,1,7,0,1,2025-01-13_12h13.00.304,rtmindeye,2024.1.5,None,2025-01-13 12h13.16.581569 -0500,
all_stimuli/shared1000_notspecial/notspecial_46002.png,34,0,0,0,0,7,1,"[9, 21, 31, 45, 56, 68, 69]",,,,,0,0,0,0,0,34,34,34,220.45614774999922,,,,,,,,,,,,,,,,,,,,,,220.44029379200038,220.440434791999,220.4404513749996,220.45614774999922,220.45614774999922,220.45614774999922,220.45614774999922,223.45228154199867,223.45228154199867,224.4424176249995,1,1,0.7937526250007068,0.20197550000011688,None,224.44305483399876,224.44312591699963,None,224.44324462499935,224.44328499999938,None,,,,,,,,,,,1,7,0,1,2025-01-13_12h13.00.304,rtmindeye,2024.1.5,None,2025-01-13 12h13.16.581569 -0500,
all_stimuli/special515/special_30632.jpg,35,0,0,0,0,7,1,"[9, 21, 31, 45, 56, 68, 69]",,,,,0,0,0,0,0,35,35,35,224.45733974999894,,,,,,,,,,,,,,,,,,,,,,224.44372424999892,224.4438472919992,224.44386354199924,224.45733974999894,224.45733974999894,224.45733974999894,224.45733974999894,227.47043366700018,227.47043366700018,228.44162416699874,1,1,0.9634678330003226,0.1920831659990654,None,228.44225204199938,228.44231874999969,None,228.44243916699997,228.4424780419995,None,228.45674299999882,228.45674299999882,,,,,,,,,1,7,0,1,2025-01-13_12h13.00.304,rtmindeye,2024.1.5,None,2025-01-13 12h13.16.581569 -0500,
all_stimuli/special515/special_31936.jpg,36,0,0,0,0,7,1,"[9, 21, 31, 45, 56, 68, 69]",,,,,0,0,0,0,0,36,36,36,228.45674299999882,,,,,,,,,,,,,,,,,,,,,,228.44292116699944,228.44303500000024,228.44305158399948,228.45674299999882,228.45674299999882,228.45674299999882,228.45674299999882,231.45493983399865,231.45493983399865,232.45560295900032,1,1,0.7970810829992843,0.1810738330004824,None,232.4562336250001,232.45630270899892,None,232.45642012499957,232.45645924999917,None,,,,,,,,,,,1,7,0,1,2025-01-13_12h13.00.304,rtmindeye,2024.1.5,None,2025-01-13 12h13.16.581569 -0500,
all_stimuli/MST_pairs1/pair_8_12_56.png,37,0,0,0,0,7,1,"[9, 21, 31, 45, 56, 68, 69]",,,,,0,0,0,0,0,37,37,37,232.4730917500001,,,,,,,,,,,,,,,,,,,,,,232.4568842919998,232.45700004199898,232.45701612499943,232.4730917500001,232.4730917500001,232.4730917500001,232.4730917500001,235.47070208399964,235.47070208399964,236.45604095899944,1,1,1.122772165999777,0.21105887500016252,None,236.45667895899896,236.45674474999942,None,236.45686074999867,236.4569008339986,None,236.47268141699897,236.47268141699897,,,,,,,,,1,7,0,1,2025-01-13_12h13.00.304,rtmindeye,2024.1.5,None,2025-01-13 12h13.16.581569 -0500,
all_stimuli/special515/special_19074.jpg,38,0,0,0,0,7,1,"[9, 21, 31, 45, 56, 68, 69]",,,,,0,0,0,0,0,38,38,38,236.47268141699897,,,,,,,,,,,,,,,,,,,,,,236.45733770900006,236.4574542499995,236.45747045899952,236.47268141699897,236.47268141699897,236.47268141699897,236.47268141699897,239.4694641669994,239.4694641669994,240.45648612500008,1,1,0.9112625409998145,0.19289791600022,None,240.45740891700007,240.45752512499894,None,240.45765849999952,240.45771387499917,None,240.47495670900025,240.47495670900025,,,,,,,,,1,7,0,1,2025-01-13_12h13.00.304,rtmindeye,2024.1.5,None,2025-01-13 12h13.16.581569 -0500,
all_stimuli/shared1000_notspecial/notspecial_42648.png,39,0,0,0,0,7,1,"[9, 21, 31, 45, 56, 68, 69]",,,,,0,0,0,0,0,39,39,39,240.47495670900025,,,,,,,,,,,,,,,,,,,,,,240.45853858400005,240.45870512500005,240.4587282499997,240.47495670900025,240.47495670900025,240.47495670900025,240.47495670900025,243.4887214169994,243.4887214169994,244.4690394169993,1,1,1.0689881660000538,0.20699008399969898,None,244.4696888749986,244.46975591699993,None,244.4698725420003,244.46991179199904,None,,,,,,,,,,,1,7,0,1,2025-01-13_12h13.00.304,rtmindeye,2024.1.5,None,2025-01-13 12h13.16.581569 -0500,
all_stimuli/MST_pairs1/pair_12_16_22.png,40,0,1,0,0,7,1,"[9, 21, 31, 45, 56, 68, 69]",,,,,0,0,0,0,0,40,40,40,244.48629241699928,,,,,,,,,,,,,,,,,,,,,,244.47038145899933,244.470498708999,244.47051524999915,244.48629241699928,244.48629241699928,244.48629241699928,244.48629241699928,247.47250545899988,247.47250545899988,248.471562834,2,1,0.98563783300051,0.23705895800048893,None,248.4726129589999,248.47273020899956,None,248.47288750000007,248.4729476249995,None,,,,,,,,,,,1,7,0,1,2025-01-13_12h13.00.304,rtmindeye,2024.1.5,None,2025-01-13 12h13.16.581569 -0500,
all_stimuli/shared1000_notspecial/notspecial_3951.png,41,0,0,0,0,7,1,"[9, 21, 31, 45, 56, 68, 69]",,,,,0,0,0,0,0,41,41,41,248.49014741700012,,,,,,,,,,,,,,,,,,,,,,248.47372554199865,248.4738741250003,248.47389654200015,248.49014741700012,248.49014741700012,248.49014741700012,248.49014741700012,251.5045056250001,251.5045056250001,252.47392741699878,1,1,0.8337914990006539,0.19698062499992375,None,252.47426191699924,252.4742918339998,None,252.47434450000037,252.47436458399898,None,252.49057466699924,252.49057466699924,,,,,,,,,1,7,0,1,2025-01-13_12h13.00.304,rtmindeye,2024.1.5,None,2025-01-13 12h13.16.581569 -0500,
all_stimuli/MST_pairs1/pair_12_16_78.png,42,0,0,0,0,7,1,"[9, 21, 31, 45, 56, 68, 69]",,,,,0,0,0,0,0,42,42,42,252.49057466699924,,,,,,,,,,,,,,,,,,,,,,252.47456574999887,252.47461487500004,252.4746217920001,252.49057466699924,252.49057466699924,252.49057466699924,252.49057466699924,255.48769899999934,255.48769899999934,256.4887949999993,1,1,1.0283260830001382,0.19806591700034915,None,256.4894262919988,256.48949420899953,None,256.48961529199914,256.4896542089991,None,,,,,,,,,,,1,7,0,1,2025-01-13_12h13.00.304,rtmindeye,2024.1.5,None,2025-01-13 12h13.16.581569 -0500,
all_stimuli/special515/special_11952.jpg,43,0,0,0,0,7,1,"[9, 21, 31, 45, 56, 68, 69]",,,,,0,0,0,0,0,43,43,43,256.5090523339986,,,,,,,,,,,,,,,,,,,,,,256.49009099999967,256.4902293340001,256.4902460840003,256.5090523339986,256.5090523339986,256.5090523339986,256.5090523339986,259.5122987499999,259.5122987499999,260.4927428339997,1,1,0.9468719159995089,0.21298141599982046,None,260.4933947919999,260.4934700419999,None,260.4935907500003,260.49363079199975,None,,,,,,,,,,,1,7,0,1,2025-01-13_12h13.00.304,rtmindeye,2024.1.5,None,2025-01-13 12h13.16.581569 -0500,
all_stimuli/MST_pairs1/pair_14_18_22.png,44,0,0,0,0,7,1,"[9, 21, 31, 45, 56, 68, 69]",,,,,0,0,0,0,0,44,44,44,260.5105563750003,,,,,,,,,,,,,,,,,,,,,,260.4940796669998,260.4942163750002,260.49423570900035,260.5105563750003,260.5105563750003,260.5105563750003,260.5105563750003,263.52216254199993,263.52216254199993,264.5025351669992,1,1,0.9324692910013255,0.19198183399930713,None,264.5030707499991,264.50312679200033,None,264.50322520899863,264.50325766700007,None,,,,,,,,,,,1,7,0,1,2025-01-13_12h13.00.304,rtmindeye,2024.1.5,None,2025-01-13 12h13.16.581569 -0500,
blank.jpg,45,1,0,0,0,7,1,"[9, 21, 31, 45, 56, 68, 69]",,,,,0,0,0,0,0,45,45,45,264.511040166999,,,,,,,,,,,,,,,,,,,,,,264.5036149589996,264.50371058400015,264.5037236669996,264.511040166999,264.511040166999,264.511040166999,264.511040166999,267.5218871249999,267.5218871249999,268.5067733340002,None,0,,,None,268.507723875,268.5078358339997,None,268.507974791999,268.5080280839993,None,,,,,,,,,,,1,7,0,1,2025-01-13_12h13.00.304,rtmindeye,2024.1.5,None,2025-01-13 12h13.16.581569 -0500,
all_stimuli/MST_pairs1/pair_16_20_56.png,46,0,0,0,0,7,1,"[9, 21, 31, 45, 56, 68, 69]",,,,,0,0,0,0,0,46,46,46,268.52777366699956,,,,,,,,,,,,,,,,,,,,,,268.5086404169997,268.50987129199893,268.50988874999894,268.52777366699956,268.52777366699956,268.52777366699956,268.52777366699956,271.52261499999986,271.52261499999986,272.5099877089997,1,1,0.8202853750008217,0.2088763329993526,None,272.5106660419988,272.510736541999,None,272.51085799999964,272.51089799999863,None,,,,,,,,,,,1,7,0,1,2025-01-13_12h13.00.304,rtmindeye,2024.1.5,None,2025-01-13 12h13.16.581569 -0500,
all_stimuli/special515/special_8933.jpg,47,0,0,0,0,7,1,"[9, 21, 31, 45, 56, 68, 69]",,,,,0,0,0,0,0,47,47,47,272.52741408399925,,,,,,,,,,,,,,,,,,,,,,272.5113384999986,272.51148845900025,272.5115047090003,272.52741408399925,272.52741408399925,272.52741408399925,272.52741408399925,275.5387973750003,275.5387973750003,276.521923291999,1,1,0.8445670000000973,0.19706787500035716,None,276.5231677920001,276.5233064999993,None,276.52350741699956,276.52362308400006,None,,,,,,,,,,,1,7,0,1,2025-01-13_12h13.00.304,rtmindeye,2024.1.5,None,2025-01-13 12h13.16.581569 -0500,
all_stimuli/MST_pairs1/pair_16_20_56.png,48,0,1,0,0,7,1,"[9, 21, 31, 45, 56, 68, 69]",,,,,0,0,0,0,0,48,48,48,276.539774375,,,,,,,,,,,,,,,,,,,,,,276.5243235420003,276.5244548749997,276.52447224999923,276.539774375,276.539774375,276.539774375,276.539774375,279.53580599999987,279.53580599999987,280.52509587500026,2,1,0.9742328749998705,0.18897683300019708,None,280.52561920900007,280.52567479199934,None,280.5257703339994,280.5258022090002,None,,,,,,,,,,,1,7,0,1,2025-01-13_12h13.00.304,rtmindeye,2024.1.5,None,2025-01-13 12h13.16.581569 -0500,
all_stimuli/special515/special_5034.jpg,49,0,0,0,0,7,1,"[9, 21, 31, 45, 56, 68, 69]",,,,,0,0,0,0,0,49,49,49,280.5395864589991,,,,,,,,,,,,,,,,,,,,,,280.5261515839993,280.5262523749989,280.52626570899884,280.5395864589991,280.5395864589991,280.5395864589991,280.5395864589991,283.53627170899927,283.53627170899927,284.53752024999994,1,1,0.7645016660007968,0.2139976670005126,None,284.53816254199955,284.5382324589991,None,284.5383495419992,284.5383896249987,None,,,,,,,,,,,1,7,0,1,2025-01-13_12h13.00.304,rtmindeye,2024.1.5,None,2025-01-13 12h13.16.581569 -0500,
all_stimuli/MST_pairs1/pair_16_20_0.png,50,0,0,0,0,7,1,"[9, 21, 31, 45, 56, 68, 69]",,,,,0,0,0,0,0,50,50,50,284.5554567500003,,,,,,,,,,,,,,,,,,,,,,284.5388475839991,284.53896570899997,284.5389817089999,284.5554567500003,284.5554567500003,284.5554567500003,284.5554567500003,287.5569762920004,287.5569762920004,288.5384529589992,1,1,0.9936831660015741,0.2048940409986244,None,288.5390784169995,288.5391435419988,None,288.53925945899937,288.53929849999986,None,288.55586604199925,288.55586604199925,,,,,,,,,1,7,0,1,2025-01-13_12h13.00.304,rtmindeye,2024.1.5,None,2025-01-13 12h13.16.581569 -0500,
all_stimuli/MST_pairs1/pair_46_w_pool2.jpg,51,0,0,0,0,7,1,"[9, 21, 31, 45, 56, 68, 69]",,,,,0,0,0,0,0,51,51,51,288.55586604199925,,,,,,,,,,,,,,,,,,,,,,288.5397306670002,288.53984474999925,288.5398607919997,288.55586604199925,288.55586604199925,288.55586604199925,288.55586604199925,291.55269724999926,291.55269724999926,292.53908862499884,1,1,0.9221500000003289,0.2070930000008957,None,292.53961045899996,292.5396665419994,None,292.5397637089991,292.53980062499977,None,292.55566279199957,292.55566279199957,,,,,,,,,1,7,0,1,2025-01-13_12h13.00.304,rtmindeye,2024.1.5,None,2025-01-13 12h13.16.581569 -0500,
all_stimuli/special515/special_62228.jpg,52,0,0,0,0,7,1,"[9, 21, 31, 45, 56, 68, 69]",,,,,0,0,0,0,0,52,52,52,292.55566279199957,,,,,,,,,,,,,,,,,,,,,,292.5401736249987,292.5402667919989,292.5402798340001,292.55566279199957,292.55566279199957,292.55566279199957,292.55566279199957,295.5527193750004,295.5527193750004,296.5401043339989,1,1,1.2894715820002602,0.20794316699902993,None,296.5411097919987,296.54122641699905,None,296.54139724999914,296.5414574589995,None,296.55637475000003,296.55637475000003,,,,,,,,,1,7,0,1,2025-01-13_12h13.00.304,rtmindeye,2024.1.5,None,2025-01-13 12h13.16.581569 -0500,
all_stimuli/MST_pairs1/pair_40_w_escalator2.jpg,53,0,0,0,0,7,1,"[9, 21, 31, 45, 56, 68, 69]",,,,,0,0,0,0,0,53,53,53,296.55637475000003,,,,,,,,,,,,,,,,,,,,,,296.54218129199944,296.542466375,296.5425115420003,296.55637475000003,296.55637475000003,296.55637475000003,296.55637475000003,299.573111583999,299.573111583999,300.5397881249992,1,1,1.1197606240002642,0.18600920899916673,None,300.54084087499905,300.5409624999993,None,300.5411221249997,300.54118079199907,None,300.5690899170004,300.5690899170004,,,,,,,,,1,7,0,1,2025-01-13_12h13.00.304,rtmindeye,2024.1.5,None,2025-01-13 12h13.16.581569 -0500,
all_stimuli/MST_pairs1/pair_20_nsd_41_2_cocoid_63715.png,54,0,0,0,0,7,1,"[9, 21, 31, 45, 56, 68, 69]",,,,,0,0,0,0,0,54,54,54,300.5690899170004,,,,,,,,,,,,,,,,,,,,,,300.5418848749996,300.5420156250002,300.5420314999992,300.5690899170004,300.5690899170004,300.5690899170004,300.5690899170004,303.5730200420003,303.5730200420003,304.55287874999885,1,1,1.107053124000231,0.21892004199980875,None,304.5535762090003,304.55364733399983,None,304.5537639590002,304.5538054589997,None,,,,,,,,,,,1,7,0,1,2025-01-13_12h13.00.304,rtmindeye,2024.1.5,None,2025-01-13 12h13.16.581569 -0500,
all_stimuli/shared1000_notspecial/notspecial_22155.png,55,0,0,0,0,7,1,"[9, 21, 31, 45, 56, 68, 69]",,,,,0,0,0,0,0,55,55,55,304.5703668339993,,,,,,,,,,,,,,,,,,,,,,304.5542761249999,304.5543962920001,304.55441266699927,304.5703668339993,304.5703668339993,304.5703668339993,304.5703668339993,307.56933191699864,307.56933191699864,308.555884292,1,1,1.152800625000964,0.18592145799993887,None,308.55651687499994,308.55658533399946,None,308.55670374999863,308.55674320899925,None,,,,,,,,,,,1,7,0,1,2025-01-13_12h13.00.304,rtmindeye,2024.1.5,None,2025-01-13 12h13.16.581569 -0500,
blank.jpg,56,1,0,0,0,7,1,"[9, 21, 31, 45, 56, 68, 69]",,,,,0,0,0,0,0,56,56,56,308.5692182499988,,,,,,,,,,,,,,,,,,,,,,308.55717220899896,308.55728949999866,308.5573060839997,308.5692182499988,308.5692182499988,308.5692182499988,308.5692182499988,311.57188758399934,311.57188758399934,312.55559637499937,None,0,,,None,312.5560372500004,312.5561040419998,None,312.5562254589986,312.5562655419999,None,312.5732763340002,312.5732763340002,,,,,,,,,1,7,0,1,2025-01-13_12h13.00.304,rtmindeye,2024.1.5,None,2025-01-13 12h13.16.581569 -0500,
all_stimuli/special515/special_11617.jpg,57,0,0,0,0,7,1,"[9, 21, 31, 45, 56, 68, 69]",,,,,0,0,0,0,0,57,57,57,312.5732763340002,,,,,,,,,,,,,,,,,,,,,,312.5567029590002,312.5568156669997,312.5568347919998,312.5732763340002,312.5732763340002,312.5732763340002,312.5732763340002,315.56918845899963,315.56918845899963,316.57026266699904,1,1,1.099839290998716,0.19308691600053862,None,316.5713346249995,316.5714233339986,None,316.5715464999994,316.57159145900005,None,,,,,,,,,,,1,7,0,1,2025-01-13_12h13.00.304,rtmindeye,2024.1.5,None,2025-01-13 12h13.16.581569 -0500,
all_stimuli/MST_pairs1/pair_14_18_22.png,58,0,1,0,0,7,1,"[9, 21, 31, 45, 56, 68, 69]",,,,,0,0,0,0,0,58,58,58,316.5832135419987,,,,,,,,,,,,,,,,,,,,,,316.5720656249996,316.57223562499894,316.57225262499924,316.5832135419987,316.5832135419987,316.5832135419987,316.5832135419987,319.57145862499965,319.57145862499965,320.5694380419991,2,1,0.8439875410003879,0.20298320800065994,None,320.5699495839999,320.5700043750003,None,320.570097333999,320.57012858399867,None,320.58447479200004,320.58447479200004,,,,,,,,,1,7,0,1,2025-01-13_12h13.00.304,rtmindeye,2024.1.5,None,2025-01-13 12h13.16.581569 -0500,
all_stimuli/shared1000_notspecial/notspecial_63081.png,59,0,0,0,0,7,1,"[9, 21, 31, 45, 56, 68, 69]",,,,,0,0,0,0,0,59,59,59,320.58447479200004,,,,,,,,,,,,,,,,,,,,,,320.5705001669994,320.57059183399906,320.57060512499993,320.58447479200004,320.58447479200004,320.58447479200004,320.58447479200004,323.57241095899917,323.57241095899917,324.56955529199877,1,1,0.9107714159999887,0.20697045900124067,None,324.5700887919993,324.5701442919999,None,324.5702380419989,324.57026912499896,None,324.58184545899894,324.58184545899894,,,,,,,,,1,7,0,1,2025-01-13_12h13.00.304,rtmindeye,2024.1.5,None,2025-01-13 12h13.16.581569 -0500,
all_stimuli/MST_pairs1/pair_42_w_icerink2.jpg,60,0,0,0,0,7,1,"[9, 21, 31, 45, 56, 68, 69]",,,,,0,0,0,0,0,60,60,60,324.58184545899894,,,,,,,,,,,,,,,,,,,,,,324.57062495900027,324.5707177919994,324.57073120899986,324.58184545899894,324.58184545899894,324.58184545899894,324.58184545899894,327.589141167,327.589141167,328.5695457919992,1,1,0.7873702489996504,0.18107358300039778,None,328.57016008400024,328.5702269169997,None,328.5703411249997,328.5703797089991,None,328.5814195839994,328.5814195839994,,,,,,,,,1,7,0,1,2025-01-13_12h13.00.304,rtmindeye,2024.1.5,None,2025-01-13 12h13.16.581569 -0500,
all_stimuli/MST_pairs1/pair_46_w_pool1.jpg,61,0,0,0,0,7,1,"[9, 21, 31, 45, 56, 68, 69]",,,,,0,0,0,0,0,61,61,61,328.5814195839994,,,,,,,,,,,,,,,,,,,,,,328.57080637499894,328.5709200839992,328.57093687499946,328.5814195839994,328.5814195839994,328.5814195839994,328.5814195839994,331.573334708999,331.573334708999,332.5726582499992,1,1,1.1988734580008895,0.21288087499851827,None,332.573282166999,332.57334979199914,None,332.57346970899926,332.57350970900006,None,,,,,,,,,,,1,7,0,1,2025-01-13_12h13.00.304,rtmindeye,2024.1.5,None,2025-01-13 12h13.16.581569 -0500,
all_stimuli/special515/special_40840.jpg,62,0,0,0,0,7,1,"[9, 21, 31, 45, 56, 68, 69]",,,,,0,0,0,0,0,62,62,62,332.5904357500003,,,,,,,,,,,,,,,,,,,,,,332.57393666699863,332.57406070899924,332.5740769999993,332.5904357500003,332.5904357500003,332.5904357500003,332.5904357500003,335.60537929199927,335.60537929199927,336.5887391670003,1,1,2.155782083000304,0.1839939580004284,None,336.58965937500034,336.5897590839995,None,336.58989083399865,336.5899436669988,None,,,,,,,,,,,1,7,0,1,2025-01-13_12h13.00.304,rtmindeye,2024.1.5,None,2025-01-13 12h13.16.581569 -0500,
all_stimuli/special515/special_29837.jpg,63,0,0,0,0,7,1,"[9, 21, 31, 45, 56, 68, 69]",,,,,0,0,0,0,0,63,63,63,336.60593374999917,,,,,,,,,,,,,,,,,,,,,,336.59071820899953,336.5909295419988,336.5909527499989,336.60593374999917,336.60593374999917,336.60593374999917,336.60593374999917,339.6045329589997,339.6045329589997,340.5898179169999,1,1,1.3963509579989477,0.17900412500057428,None,340.5904324589992,340.590501749999,None,340.5906172499999,340.5906570419993,None,340.6070446670001,340.6070446670001,,,,,,,,,1,7,0,1,2025-01-13_12h13.00.304,rtmindeye,2024.1.5,None,2025-01-13 12h13.16.581569 -0500,
all_stimuli/shared1000_notspecial/notspecial_4768.png,64,0,0,0,0,7,1,"[9, 21, 31, 45, 56, 68, 69]",,,,,0,0,0,0,0,64,64,64,340.6070446670001,,,,,,,,,,,,,,,,,,,,,,340.59109329199964,340.5912078749989,340.5912240839989,340.6070446670001,340.6070446670001,340.6070446670001,340.6070446670001,343.60441874999924,343.60441874999924,344.59025349999865,1,1,0.8422898740009259,0.18495699999948556,None,344.5908772499988,344.5909434999994,None,344.5910599589988,344.59109866699873,None,344.6194302499989,344.6194302499989,,,,,,,,,1,7,0,1,2025-01-13_12h13.00.304,rtmindeye,2024.1.5,None,2025-01-13 12h13.16.581569 -0500,
all_stimuli/MST_pairs1/pair_20_nsd_41_1_cocoid_15472.png,65,0,0,0,0,7,1,"[9, 21, 31, 45, 56, 68, 69]",,,,,0,0,0,0,0,65,65,65,344.6194302499989,,,,,,,,,,,,,,,,,,,,,,344.59152483399885,344.5916372089996,344.59165329200005,344.6194302499989,344.6194302499989,344.6194302499989,344.6194302499989,347.6061097089987,347.6061097089987,348.60564924999926,1,1,1.3898399990011967,0.1850552500000049,None,348.60673458400015,348.60683116699875,None,348.6070151249987,348.60705995900025,None,,,,,,,,,,,1,7,0,1,2025-01-13_12h13.00.304,rtmindeye,2024.1.5,None,2025-01-13 12h13.16.581569 -0500,
all_stimuli/shared1000_notspecial/notspecial_53157.png,66,0,0,0,0,7,1,"[9, 21, 31, 45, 56, 68, 69]",,,,,0,0,0,0,0,66,66,66,348.6240739999994,,,,,,,,,,,,,,,,,,,,,,348.60759108399907,348.60774579200006,348.60776216699924,348.6240739999994,348.6240739999994,348.6240739999994,348.6240739999994,351.62255595900024,351.62255595900024,352.60687849999886,1,1,0.8412641240010998,0.2079557079996448,None,352.6073884589987,352.6074424589988,None,352.6075357089994,352.6075670419996,None,352.6230688750002,352.6230688750002,,,,,,,,,1,7,0,1,2025-01-13_12h13.00.304,rtmindeye,2024.1.5,None,2025-01-13 12h13.16.581569 -0500,
all_stimuli/special515/special_38641.jpg,67,0,1,0,0,7,1,"[9, 21, 31, 45, 56, 68, 69]",,,,,0,0,0,0,0,67,67,67,352.6230688750002,,,,,,,,,,,,,,,,,,,,,,352.6079147499986,352.60800541699973,352.6080180839999,352.6230688750002,352.6230688750002,352.6230688750002,352.6230688750002,355.61946075000014,355.61946075000014,356.62220708399946,2,1,2.5602837079986784,0.08594941699993797,None,356.62312108399965,356.6232111669997,None,356.62337404199934,356.62364116699973,None,,,,,,,,,,,1,7,0,1,2025-01-13_12h13.00.304,rtmindeye,2024.1.5,None,2025-01-13 12h13.16.581569 -0500,
blank.jpg,68,1,0,0,0,7,1,"[9, 21, 31, 45, 56, 68, 69]",,,,,0,0,0,0,0,68,68,68,356.6355240419998,,,,,,,,,,,,,,,,,,,,,,356.6244562920001,356.62463491699964,356.6246565000001,356.6355240419998,356.6355240419998,356.6355240419998,356.6355240419998,359.6229661669986,359.6229661669986,360.6219782499993,None,0,,,None,360.62243291699997,360.62251354199907,None,360.62263704199904,360.62267749999955,None,360.6363337499988,360.6363337499988,,,,,,,,,1,7,0,1,2025-01-13_12h13.00.304,rtmindeye,2024.1.5,None,2025-01-13 12h13.16.581569 -0500,
blank.jpg,69,1,0,1,0,7,0,"[9, 21, 31, 45, 56, 68, 69]",,,,,0,0,0,0,0,69,69,69,360.6363337499988,,,,,,,,,,,,,,,,,,,,,,360.6231173750002,360.6232315420002,360.62324779200026,360.6363337499988,360.6363337499988,360.6363337499988,360.6363337499988,363.6232887499991,363.6232887499991,364.62145879200034,None,0,,,None,364.6219191250002,374.6069190420003,1,374.60772258399993,392.4069808339991,equal,364.642296,364.642296,364.642296,364.642296,9.952139999000792,None,374.61892712499866,374.61892712499866,17.77258062400142,None,1,7,0,1,2025-01-13_12h13.00.304,rtmindeye,2024.1.5,None,2025-01-13 12h13.16.581569 -0500,
,,,,,,,,,,,,,0,0,0,0,,,,,,,,,,,,,,,,,,,,,,,,,,,,,,,,,,,,,,,,,,,,,,,,,,,,,,,,,,1,7,0,1,2025-01-13_12h13.00.304,rtmindeye,2024.1.5,None,2025-01-13 12h13.16.581569 -0500,
all_stimuli/special515/special_71450.jpg,0,0,0,0,1,7,1,"[9, 21, 31, 45, 56, 68, 69]",,,,,1,0,1,0,0,0,0,0,392.4434660420011,,,,,,,,,,,,,,,,,,,,,,392.42660504200103,392.42718199999945,392.4271958749996,392.4434660420011,392.4434660420011,392.4434660420011,392.4434660420011,395.43940979200124,395.43940979200124,396.4410388340002,1,1,1.6700232489965856,0.19088816700241296,None,396.443074625,396.44319062499926,None,396.4434804169978,396.4435290420006,None,,,,,,,,,,,1,7,0,1,2025-01-13_12h13.00.304,rtmindeye,2024.1.5,None,2025-01-13 12h13.16.581569 -0500,
all_stimuli/special515/special_38246.jpg,1,0,0,0,1,7,1,"[9, 21, 31, 45, 56, 68, 69]",,,,,1,0,1,0,0,1,1,1,396.45724787499785,,,,,,,,,,,,,,,,,,,,,,396.444160250001,396.44428433400026,396.4443008749986,396.45724787499785,396.45724787499785,396.45724787499785,396.45724787499785,399.4551393750007,399.4551393750007,400.4561759169992,1,1,0.937239832997875,0.17101970799922128,None,400.4568252499994,400.45689804200083,None,400.45701474999805,400.4570539169981,None,,,,,,,,,,,1,7,0,1,2025-01-13_12h13.00.304,rtmindeye,2024.1.5,None,2025-01-13 12h13.16.581569 -0500,
all_stimuli/special515/special_10046.jpg,2,0,0,0,1,7,1,"[9, 21, 31, 45, 56, 68, 69]",,,,,1,0,1,0,0,2,2,2,400.4731661670012,,,,,,,,,,,,,,,,,,,,,,400.45748308399925,400.4576189170002,400.4576350839998,400.4731661670012,400.4731661670012,400.4731661670012,400.4731661670012,403.47112899999775,403.47112899999775,404.4566313340001,1,1,0.834232332999818,0.16904000000067754,None,404.45727408400126,404.4573444999987,None,404.4574569590004,404.45749433400124,None,404.46945433400106,404.46945433400106,,,,,,,,,1,7,0,1,2025-01-13_12h13.00.304,rtmindeye,2024.1.5,None,2025-01-13 12h13.16.581569 -0500,
all_stimuli/MST_pairs1/pair_38_w_arch2.jpg,3,0,0,0,1,7,1,"[9, 21, 31, 45, 56, 68, 69]",,,,,1,0,1,0,0,3,3,3,404.46945433400106,,,,,,,,,,,,,,,,,,,,,,404.4579070840009,404.4580202500001,404.458036,404.46945433400106,404.46945433400106,404.46945433400106,404.46945433400106,407.4559329590011,407.4559329590011,408.4561842920011,1,1,0.7869363329991756,0.186085916000593,None,408.4568082090009,408.45687854199787,None,408.4569920419999,408.45703020899964,None,408.4738271669994,408.4738271669994,,,,,,,,,1,7,0,1,2025-01-13_12h13.00.304,rtmindeye,2024.1.5,None,2025-01-13 12h13.16.581569 -0500,
all_stimuli/special515/special_30395.jpg,4,0,0,0,1,7,1,"[9, 21, 31, 45, 56, 68, 69]",,,,,1,0,1,0,0,4,4,4,408.4738271669994,,,,,,,,,,,,,,,,,,,,,,408.4574814589978,408.4575935840003,408.4576094590011,408.4738271669994,408.4738271669994,408.4738271669994,408.4738271669994,411.46978120899803,411.46978120899803,412.4563557090005,1,1,0.7926832909979566,0.16993541700139758,None,412.45688045899806,412.4569564589983,None,412.4570512089995,412.45708266699876,None,412.4863573340008,412.4863573340008,,,,,,,,,1,7,0,1,2025-01-13_12h13.00.304,rtmindeye,2024.1.5,None,2025-01-13 12h13.16.581569 -0500,
all_stimuli/special515/special_38494.jpg,5,0,1,0,1,7,1,"[9, 21, 31, 45, 56, 68, 69]",,,,,1,0,1,0,0,5,5,5,412.4863573340008,,,,,,,,,,,,,,,,,,,,,,412.4574683339997,412.45755945899873,412.45757233399854,412.4863573340008,412.4863573340008,412.4863573340008,412.4863573340008,415.4912100420006,415.4912100420006,416.4702153750004,2,1,0.9090992490018834,0.16704541699800757,None,416.47059654199984,416.47063329199955,None,416.47068529199896,416.47070316700047,None,,,,,,,,,,,1,7,0,1,2025-01-13_12h13.00.304,rtmindeye,2024.1.5,None,2025-01-13 12h13.16.581569 -0500,
all_stimuli/MST_pairs1/pair_28_nsd_547_1_cocoid_60932.png,6,0,1,0,1,7,1,"[9, 21, 31, 45, 56, 68, 69]",,,,,1,0,1,0,0,6,6,6,416.48740491699937,,,,,,,,,,,,,,,,,,,,,,416.47090770900104,416.4709890000013,416.4709960420005,416.48740491699937,416.48740491699937,416.48740491699937,416.48740491699937,419.4866671669988,419.4866671669988,420.4731075839991,2,1,0.8181417909981974,0.15297712499886984,None,420.474018375,420.47411674999967,None,420.4742527089984,420.4743002089999,None,,,,,,,,,,,1,7,0,1,2025-01-13_12h13.00.304,rtmindeye,2024.1.5,None,2025-01-13 12h13.16.581569 -0500,
all_stimuli/special515/special_61133.jpg,7,0,0,0,1,7,1,"[9, 21, 31, 45, 56, 68, 69]",,,,,1,0,1,0,0,7,7,7,420.49061695899945,,,,,,,,,,,,,,,,,,,,,,420.4749129589982,420.47520316699956,420.4752201250012,420.49061695899945,420.49061695899945,420.49061695899945,420.49061695899945,423.4863669589977,423.4863669589977,424.48959658400054,1,1,1.1828927910028142,0.1899801670006127,None,424.4902231669985,424.4902925419992,None,424.4904072089994,424.49044666699774,None,,,,,,,,,,,1,7,0,1,2025-01-13_12h13.00.304,rtmindeye,2024.1.5,None,2025-01-13 12h13.16.581569 -0500,
all_stimuli/shared1000_notspecial/notspecial_16635.png,8,0,0,0,1,7,1,"[9, 21, 31, 45, 56, 68, 69]",,,,,1,0,1,0,0,8,8,8,424.5071470420007,,,,,,,,,,,,,,,,,,,,,,424.49087466700075,424.4909984170008,424.49101433399846,424.5071470420007,424.5071470420007,424.5071470420007,424.5071470420007,427.521530334001,427.521530334001,428.50313083400033,1,1,0.9273872910016507,0.17906379199848743,None,428.50364433399955,428.50370066699907,None,428.50380012499954,428.50383208399944,None,,,,,,,,,,,1,7,0,1,2025-01-13_12h13.00.304,rtmindeye,2024.1.5,None,2025-01-13 12h13.16.581569 -0500,
blank.jpg,9,1,0,0,1,7,1,"[9, 21, 31, 45, 56, 68, 69]",,,,,1,0,1,0,0,9,9,9,428.5125422919991,,,,,,,,,,,,,,,,,,,,,,428.5041818339996,428.5042777919989,428.5042909590011,428.5125422919991,428.5125422919991,428.5125422919991,428.5125422919991,431.50588954200066,431.50588954200066,432.5057742499994,None,0,,,None,432.5064950419983,432.5065981250009,None,432.5067291669984,432.5067769169982,None,,,,,,,,,,,1,7,0,1,2025-01-13_12h13.00.304,rtmindeye,2024.1.5,None,2025-01-13 12h13.16.581569 -0500,
all_stimuli/MST_pairs1/pair_18_nsd_6_1_cocoid_13417.png,10,0,0,0,1,7,1,"[9, 21, 31, 45, 56, 68, 69]",,,,,1,0,1,0,0,10,10,10,432.53485345900117,,,,,,,,,,,,,,,,,,,,,,432.50744308399953,432.5076425420011,432.50766374999876,432.53485345900117,432.53485345900117,432.53485345900117,432.53485345900117,435.5391181249979,435.5391181249979,436.52272166699913,1,1,0.7546797489994788,0.18400341700180434,None,436.52388449999853,436.5240196249979,None,436.52435454199804,436.5244449169986,None,,,,,,,,,,,1,7,0,1,2025-01-13_12h13.00.304,rtmindeye,2024.1.5,None,2025-01-13 12h13.16.581569 -0500,
all_stimuli/shared1000_notspecial/notspecial_21703.png,11,0,0,0,1,7,1,"[9, 21, 31, 45, 56, 68, 69]",,,,,1,0,1,0,0,11,11,11,436.5404571250001,,,,,,,,,,,,,,,,,,,,,,436.5250154999994,436.52518679199784,436.5252037499995,436.5404571250001,436.5404571250001,436.5404571250001,436.5404571250001,439.5365523750006,439.5365523750006,440.5233282090012,1,1,0.9651024990016595,0.19427174999873387,None,440.523958875001,440.5240288749992,None,440.5241426249995,440.52418104200115,None,440.540220709001,440.540220709001,,,,,,,,,1,7,0,1,2025-01-13_12h13.00.304,rtmindeye,2024.1.5,None,2025-01-13 12h13.16.581569 -0500,
all_stimuli/special515/special_24530.jpg,12,0,0,0,1,7,1,"[9, 21, 31, 45, 56, 68, 69]",,,,,1,0,1,0,0,12,12,12,440.540220709001,,,,,,,,,,,,,,,,,,,,,,440.52461754199976,440.5247320419985,440.52474816700123,440.540220709001,440.540220709001,440.540220709001,440.540220709001,443.5366826669997,443.5366826669997,444.5253279589997,1,1,0.8483894160017371,0.19197391600027913,None,444.5259685839992,444.52603795899995,None,444.5261529169984,444.5261920000012,None,,,,,,,,,,,1,7,0,1,2025-01-13_12h13.00.304,rtmindeye,2024.1.5,None,2025-01-13 12h13.16.581569 -0500,
all_stimuli/shared1000_notspecial/notspecial_6222.png,13,0,0,0,1,7,1,"[9, 21, 31, 45, 56, 68, 69]",,,,,1,0,1,0,0,13,13,13,444.5409979590004,,,,,,,,,,,,,,,,,,,,,,444.52663991699956,444.5267822499991,444.52679904199977,444.5409979590004,444.5409979590004,444.5409979590004,444.5409979590004,447.5366231250009,447.5366231250009,448.533486291999,1,1,0.8385989160015015,0.17700049999984913,None,448.53397170899916,448.53401795899845,None,448.5340885000005,448.53411337500074,None,,,,,,,,,,,1,7,0,1,2025-01-13_12h13.00.304,rtmindeye,2024.1.5,None,2025-01-13 12h13.16.581569 -0500,
all_stimuli/MST_pairs1/pair_44_w_log_cabin2.jpg,14,0,0,0,1,7,1,"[9, 21, 31, 45, 56, 68, 69]",,,,,1,0,1,0,0,14,14,14,448.5455136249984,,,,,,,,,,,,,,,,,,,,,,448.53438874999847,448.5344881669989,448.5344980419977,448.5455136249984,448.5455136249984,448.5455136249984,448.5455136249984,451.5560596670002,451.5560596670002,452.5388201249989,1,1,1.2971416660002433,0.1850356249997276,None,452.53982379199806,452.5399372920001,None,452.5400757089992,452.5401300839985,None,,,,,,,,,,,1,7,0,1,2025-01-13_12h13.00.304,rtmindeye,2024.1.5,None,2025-01-13 12h13.16.581569 -0500,
all_stimuli/special515/special_28068.jpg,15,0,0,0,1,7,1,"[9, 21, 31, 45, 56, 68, 69]",,,,,1,0,1,0,0,15,15,15,452.55680970899994,,,,,,,,,,,,,,,,,,,,,,452.54086641699905,452.541068292001,452.54108883400113,452.55680970899994,452.55680970899994,452.55680970899994,452.55680970899994,455.55321750000076,455.55321750000076,456.5401161669979,1,1,1.164873498997622,0.16894070800117333,None,456.5411635419987,456.5412783339998,None,456.541624999998,456.5417085839981,None,456.55829749999975,456.55829749999975,,,,,,,,,1,7,0,1,2025-01-13_12h13.00.304,rtmindeye,2024.1.5,None,2025-01-13 12h13.16.581569 -0500,
all_stimuli/shared1000_notspecial/notspecial_60978.png,16,0,0,0,1,7,1,"[9, 21, 31, 45, 56, 68, 69]",,,,,1,0,1,0,0,16,16,16,456.55829749999975,,,,,,,,,,,,,,,,,,,,,,456.54224833400076,456.5423903339979,456.5424072499991,456.55829749999975,456.55829749999975,456.55829749999975,456.55829749999975,459.5568397089992,459.5568397089992,460.5534057090008,1,1,0.854390707998391,0.16497625000192784,None,460.55393695900057,460.55399704199954,None,460.55409054199845,460.55412295899805,None,,,,,,,,,,,1,7,0,1,2025-01-13_12h13.00.304,rtmindeye,2024.1.5,None,2025-01-13 12h13.16.581569 -0500,
all_stimuli/MST_pairs1/pair_2_4_22.png,17,0,0,0,1,7,1,"[9, 21, 31, 45, 56, 68, 69]",,,,,1,0,1,0,0,17,17,17,460.5694937090011,,,,,,,,,,,,,,,,,,,,,,460.5544855420012,460.55458216699844,460.5545956249989,460.5694937090011,460.5694937090011,460.5694937090011,460.5694937090011,463.57154179200006,463.57154179200006,464.555407459,1,1,1.2432342490028532,0.19094987499920535,None,464.5564302919993,464.5565339169989,None,464.5566609169982,464.5567201249978,None,,,,,,,,,,,1,7,0,1,2025-01-13_12h13.00.304,rtmindeye,2024.1.5,None,2025-01-13 12h13.16.581569 -0500,
all_stimuli/shared1000_notspecial/notspecial_46160.png,18,0,0,0,1,7,1,"[9, 21, 31, 45, 56, 68, 69]",,,,,1,0,1,0,0,18,18,18,464.57467208399976,,,,,,,,,,,,,,,,,,,,,,464.5574521669987,464.55768162499953,464.5577032500005,464.57467208399976,464.57467208399976,464.57467208399976,464.57467208399976,467.5727967919993,467.5727967919993,468.5571849589978,1,1,0.8469857909985876,0.1790876249979192,None,468.5575187499999,468.557554084,None,468.5576087090012,468.5576269589983,None,468.57357287500054,468.57357287500054,,,,,,,,,1,7,0,1,2025-01-13_12h13.00.304,rtmindeye,2024.1.5,None,2025-01-13 12h13.16.581569 -0500,
all_stimuli/special515/special_64880.jpg,19,0,0,0,1,7,1,"[9, 21, 31, 45, 56, 68, 69]",,,,,1,0,1,0,0,19,19,19,468.57357287500054,,,,,,,,,,,,,,,,,,,,,,468.5578478339994,468.55789704199924,468.55790391700066,468.57357287500054,468.57357287500054,468.57357287500054,468.57357287500054,471.5699303750007,471.5699303750007,472.5585177920002,1,1,0.8871340829973633,0.181956041000376,None,472.5591702919992,472.559244125001,None,472.5593622089982,472.55940116700003,None,,,,,,,,,,,1,7,0,1,2025-01-13_12h13.00.304,rtmindeye,2024.1.5,None,2025-01-13 12h13.16.581569 -0500,
all_stimuli/MST_pairs1/pair_36_nsd_949_1_cocoid_43196.png,20,0,0,0,1,7,1,"[9, 21, 31, 45, 56, 68, 69]",,,,,1,0,1,0,0,20,20,20,472.5867124590004,,,,,,,,,,,,,,,,,,,,,,472.5598577919991,472.56000112499896,472.5600172919985,472.5867124590004,472.5867124590004,472.5867124590004,472.5867124590004,475.5890177090005,475.5890177090005,476.5603548750005,1,1,0.9519732079970709,0.1830572500002745,None,476.560982125,476.56105166699854,None,476.56117254199853,476.5612128339999,None,,,,,,,,,,,1,7,0,1,2025-01-13_12h13.00.304,rtmindeye,2024.1.5,None,2025-01-13 12h13.16.581569 -0500,
blank.jpg,21,1,0,0,1,7,1,"[9, 21, 31, 45, 56, 68, 69]",,,,,1,0,1,0,0,21,21,21,476.5747079590001,,,,,,,,,,,,,,,,,,,,,,476.56164645899844,476.56178216699846,476.5617984169985,476.5747079590001,476.5747079590001,476.5747079590001,476.5747079590001,479.5704862499988,479.5704862499988,480.5736756670012,None,0,,,None,480.57437562500127,480.5744802500012,None,480.57460875000106,480.5746582089996,None,,,,,,,,,,,1,7,0,1,2025-01-13_12h13.00.304,rtmindeye,2024.1.5,None,2025-01-13 12h13.16.581569 -0500,
all_stimuli/special515/special_30632.jpg,22,0,1,0,1,7,1,"[9, 21, 31, 45, 56, 68, 69]",,,,,1,0,1,0,0,22,22,22,480.59279374999824,,,,,,,,,,,,,,,,,,,,,,480.5752399589983,480.57548462499835,480.5755019169992,480.59279374999824,480.59279374999824,480.59279374999824,480.59279374999824,483.5906241249977,483.5906241249977,484.58661241699883,2,1,0.8809476659989741,0.18697879100000137,None,484.58727879199796,484.5873653749986,None,484.58748358400044,484.5875234999985,None,,,,,,,,,,,1,7,0,1,2025-01-13_12h13.00.304,rtmindeye,2024.1.5,None,2025-01-13 12h13.16.581569 -0500,
all_stimuli/MST_pairs1/pair_20_nsd_41_2_cocoid_63715.png,23,0,1,0,1,7,1,"[9, 21, 31, 45, 56, 68, 69]",,,,,1,0,1,0,0,23,23,23,484.6138711249987,,,,,,,,,,,,,,,,,,,,,,484.5879807499987,484.58809929199924,484.5881155419993,484.6138711249987,484.6138711249987,484.6138711249987,484.6138711249987,487.622874875,487.622874875,488.59025758400094,2,1,0.7498762909999641,0.2050517919997219,None,488.5908848750005,488.590957417,None,488.59108245899915,488.5911221669994,None,,,,,,,,,,,1,7,0,1,2025-01-13_12h13.00.304,rtmindeye,2024.1.5,None,2025-01-13 12h13.16.581569 -0500,
all_stimuli/MST_pairs1/pair_22_nsd_115_2_cocoid_65194.png,24,0,0,0,1,7,1,"[9, 21, 31, 45, 56, 68, 69]",,,,,1,0,1,0,0,24,24,24,488.61635625000054,,,,,,,,,,,,,,,,,,,,,,488.5915774999994,488.59169804200064,488.59171416699974,488.61635625000054,488.61635625000054,488.61635625000054,488.61635625000054,491.62279554199995,491.62279554199995,492.59342858400123,1,1,1.1414036659989506,0.1989302920010232,None,492.5940864590011,492.5941587499983,None,492.59428158399896,492.5943236669991,None,,,,,,,,,,,1,7,0,1,2025-01-13_12h13.00.304,rtmindeye,2024.1.5,None,2025-01-13 12h13.16.581569 -0500,
all_stimuli/shared1000_notspecial/notspecial_26292.png,25,0,0,0,1,7,1,"[9, 21, 31, 45, 56, 68, 69]",,,,,1,0,1,0,0,25,25,25,492.6113037920004,,,,,,,,,,,,,,,,,,,,,,492.5947675419993,492.59490383400043,492.5949228749996,492.6113037920004,492.6113037920004,492.6113037920004,492.6113037920004,495.60558825000044,495.60558825000044,496.6059503340002,1,1,0.8234514989999298,0.18800270900101168,None,496.60688350000055,496.606991708999,None,496.60712712500026,496.6071744590008,None,,,,,,,,,,,1,7,0,1,2025-01-13_12h13.00.304,rtmindeye,2024.1.5,None,2025-01-13 12h13.16.581569 -0500,
all_stimuli/special515/special_6489.jpg,26,0,1,0,1,7,1,"[9, 21, 31, 45, 56, 68, 69]",,,,,1,0,1,0,0,26,26,26,496.62340849999964,,,,,,,,,,,,,,,,,,,,,,496.6079451250007,496.60809858399807,496.60812499999884,496.62340849999964,496.62340849999964,496.62340849999964,496.62340849999964,499.62032004199864,499.62032004199864,500.60996179200083,2,1,0.8564449160003278,0.18803124999976717,None,500.61058525000044,500.6106550000004,None,500.61077574999945,500.61081524999827,None,,,,,,,,,,,1,7,0,1,2025-01-13_12h13.00.304,rtmindeye,2024.1.5,None,2025-01-13 12h13.16.581569 -0500,
all_stimuli/special515/special_55678.jpg,27,0,0,0,1,7,1,"[9, 21, 31, 45, 56, 68, 69]",,,,,1,0,1,0,0,27,27,27,500.6247971669982,,,,,,,,,,,,,,,,,,,,,,500.6112432919981,500.61137091699857,500.6113871669986,500.6247971669982,500.6247971669982,500.6247971669982,500.6247971669982,503.63997449999806,503.63997449999806,504.6225066250008,1,1,1.0840418330008106,0.17900991599890403,None,504.62342050000007,504.62351441699866,None,504.6236463339992,504.6236949999984,None,,,,,,,,,,,1,7,0,1,2025-01-13_12h13.00.304,rtmindeye,2024.1.5,None,2025-01-13 12h13.16.581569 -0500,
all_stimuli/special515/special_40909.jpg,28,0,0,0,1,7,1,"[9, 21, 31, 45, 56, 68, 69]",,,,,1,0,1,0,0,28,28,28,504.64055212499807,,,,,,,,,,,,,,,,,,,,,,504.6243824589983,504.62470004200077,504.62471704199925,504.64055212499807,504.64055212499807,504.64055212499807,504.64055212499807,507.6403085419988,507.6403085419988,508.62418787500064,1,1,1.0903107909980463,0.17794700000013108,None,508.6250877499988,508.6251915419998,None,508.62540779199844,508.6255338339979,None,508.6535475419987,508.6535475419987,,,,,,,,,1,7,0,1,2025-01-13_12h13.00.304,rtmindeye,2024.1.5,None,2025-01-13 12h13.16.581569 -0500,
all_stimuli/special515/special_70360.jpg,29,0,0,0,1,7,1,"[9, 21, 31, 45, 56, 68, 69]",,,,,1,0,1,0,0,29,29,29,508.6535475419987,,,,,,,,,,,,,,,,,,,,,,508.6261607089982,508.626246374999,508.6262554999994,508.6535475419987,508.6535475419987,508.6535475419987,508.6535475419987,511.6565359999986,511.6565359999986,512.6370700000007,1,1,1.2602956660011841,0.19499816600000486,None,512.6376042919983,512.6376655839995,None,512.6377642919979,512.6377957920013,None,,,,,,,,,,,1,7,0,1,2025-01-13_12h13.00.304,rtmindeye,2024.1.5,None,2025-01-13 12h13.16.581569 -0500,
all_stimuli/MST_pairs1/pair_42_w_icerink1.jpg,30,0,0,0,1,7,1,"[9, 21, 31, 45, 56, 68, 69]",,,,,1,0,1,0,0,30,30,30,512.6502987919994,,,,,,,,,,,,,,,,,,,,,,512.6381728339984,512.6382688339982,512.6382821250008,512.6502987919994,512.6502987919994,512.6502987919994,512.6502987919994,515.6552648340003,515.6552648340003,516.6368353340004,1,1,1.214632249000715,0.20489033400008339,None,516.6375141669996,516.6375903340013,None,516.6377051669988,516.6377441670011,None,516.6500841249981,516.6500841249981,,,,,,,,,1,7,0,1,2025-01-13_12h13.00.304,rtmindeye,2024.1.5,None,2025-01-13 12h13.16.581569 -0500,
blank.jpg,31,1,0,0,1,7,1,"[9, 21, 31, 45, 56, 68, 69]",,,,,1,0,1,0,0,31,31,31,516.6500841249981,,,,,,,,,,,,,,,,,,,,,,516.638195708998,516.6383081249987,516.6383249999999,516.6500841249981,516.6500841249981,516.6500841249981,516.6500841249981,519.6565166670007,519.6565166670007,520.6370892919986,None,0,,,None,520.6375288339987,520.6375983750004,None,520.6377179999981,520.6377584590009,None,520.6523647499998,520.6523647499998,,,,,,,,,1,7,0,1,2025-01-13_12h13.00.304,rtmindeye,2024.1.5,None,2025-01-13 12h13.16.581569 -0500,
all_stimuli/special515/special_30430.jpg,32,0,1,0,1,7,1,"[9, 21, 31, 45, 56, 68, 69]",,,,,1,0,1,0,0,32,32,32,520.6523647499998,,,,,,,,,,,,,,,,,,,,,,520.6381977919991,520.6383094999983,520.6383255420005,520.6523647499998,520.6523647499998,520.6523647499998,520.6523647499998,523.6561798750008,523.6561798750008,524.6396666250002,2,1,0.893562249999377,0.1589163330027077,None,524.6402894999992,524.6403609589979,None,524.6404777089992,524.6405197089989,None,,,,,,,,,,,1,7,0,1,2025-01-13_12h13.00.304,rtmindeye,2024.1.5,None,2025-01-13 12h13.16.581569 -0500,
all_stimuli/shared1000_notspecial/notspecial_43746.png,33,0,0,0,1,7,1,"[9, 21, 31, 45, 56, 68, 69]",,,,,1,0,1,0,0,33,33,33,524.6572607089984,,,,,,,,,,,,,,,,,,,,,,524.6409516669992,524.6410848749983,524.6411015419981,524.6572607089984,524.6572607089984,524.6572607089984,524.6572607089984,527.6556720839981,527.6556720839981,528.6417441249978,1,1,1.1376041240000632,0.16708775000006426,None,528.6423750840004,528.6424470839993,None,528.6425622499992,528.6426015840007,None,,,,,,,,,,,1,7,0,1,2025-01-13_12h13.00.304,rtmindeye,2024.1.5,None,2025-01-13 12h13.16.581569 -0500,
all_stimuli/MST_pairs1/pair_34_nsd_875_1_cocoid_67762.png,34,0,0,0,1,7,1,"[9, 21, 31, 45, 56, 68, 69]",,,,,1,0,1,0,0,34,34,34,528.6690739590013,,,,,,,,,,,,,,,,,,,,,,528.6430340839979,528.6431562090002,528.6431723339992,528.6690739590013,528.6690739590013,528.6690739590013,528.6690739590013,531.6699889589981,531.6699889589981,532.6566664589991,1,1,1.2399149160009983,0.18902116599929286,None,532.6576127090011,532.6577232499985,None,532.6578461669997,532.6578966669986,None,,,,,,,,,,,1,7,0,1,2025-01-13_12h13.00.304,rtmindeye,2024.1.5,None,2025-01-13 12h13.16.581569 -0500,
all_stimuli/MST_pairs1/pair_12_16_78.png,35,0,1,0,1,7,1,"[9, 21, 31, 45, 56, 68, 69]",,,,,1,0,1,0,0,35,35,35,532.6770919170012,,,,,,,,,,,,,,,,,,,,,,532.6585584169989,532.6588567500003,532.658873542001,532.6770919170012,532.6770919170012,532.6770919170012,532.6770919170012,535.6735165419996,535.6735165419996,536.6728956250008,2,1,0.9208374159970845,0.1552674170015962,None,536.6738514999997,536.6739544589982,None,536.6740856670003,536.6741350000011,None,,,,,,,,,,,1,7,0,1,2025-01-13_12h13.00.304,rtmindeye,2024.1.5,None,2025-01-13 12h13.16.581569 -0500,
all_stimuli/special515/special_4249.jpg,36,0,1,0,1,7,1,"[9, 21, 31, 45, 56, 68, 69]",,,,,1,0,1,0,0,36,36,36,536.6905661669989,,,,,,,,,,,,,,,,,,,,,,536.6748442499993,536.6751809999987,536.6751987919997,536.6905661669989,536.6905661669989,536.6905661669989,536.6905661669989,539.6868862499978,539.6868862499978,540.6898325840011,2,1,0.7684145829989575,0.1700149579992285,None,540.6909095419978,540.6910302920005,None,540.691196374999,540.6912602499979,None,,,,,,,,,,,1,7,0,1,2025-01-13_12h13.00.304,rtmindeye,2024.1.5,None,2025-01-13 12h13.16.581569 -0500,
all_stimuli/MST_pairs1/pair_42_w_icerink2.jpg,37,0,1,0,1,7,1,"[9, 21, 31, 45, 56, 68, 69]",,,,,1,0,1,0,0,37,37,37,540.7072918339982,,,,,,,,,,,,,,,,,,,,,,540.6921080840002,540.6922877090001,540.6923052089987,540.7072918339982,540.7072918339982,540.7072918339982,540.7072918339982,543.7064044170002,543.7064044170002,544.7069497499979,2,1,0.8976364580012159,0.16597387499859906,None,544.7084183750012,544.7085429170002,None,544.7086870419989,544.7087409169981,None,,,,,,,,,,,1,7,0,1,2025-01-13_12h13.00.304,rtmindeye,2024.1.5,None,2025-01-13 12h13.16.581569 -0500,
all_stimuli/shared1000_notspecial/notspecial_70038.png,38,0,0,0,1,7,1,"[9, 21, 31, 45, 56, 68, 69]",,,,,1,0,1,0,0,38,38,38,544.7246018750011,,,,,,,,,,,,,,,,,,,,,,544.7095397919984,544.7096909169995,544.7097126669978,544.7246018750011,544.7246018750011,544.7246018750011,544.7246018750011,547.722908208998,547.722908208998,548.709918624998,1,1,0.915321666001546,0.19010062500092317,None,548.7105507089982,548.7106187919999,None,548.7107332089981,548.7107718340012,None,548.7256781670003,548.7256781670003,,,,,,,,,1,7,0,1,2025-01-13_12h13.00.304,rtmindeye,2024.1.5,None,2025-01-13 12h13.16.581569 -0500,
all_stimuli/special515/special_53155.jpg,39,0,0,0,1,7,1,"[9, 21, 31, 45, 56, 68, 69]",,,,,1,0,1,0,0,39,39,39,548.7256781670003,,,,,,,,,,,,,,,,,,,,,,548.7111938339985,548.7113080419986,548.7113240840008,548.7256781670003,548.7256781670003,548.7256781670003,548.7256781670003,551.7235919999985,551.7235919999985,552.7237415839991,1,1,0.7713584579978487,0.1749242920013785,None,552.724733209001,552.7248262920002,None,552.7249573749978,552.7250076249984,None,,,,,,,,,,,1,7,0,1,2025-01-13_12h13.00.304,rtmindeye,2024.1.5,None,2025-01-13 12h13.16.581569 -0500,
all_stimuli/special515/special_24530.jpg,40,0,1,0,1,7,1,"[9, 21, 31, 45, 56, 68, 69]",,,,,1,0,1,0,0,40,40,40,552.7409845000002,,,,,,,,,,,,,,,,,,,,,,552.7256964589978,552.7259737919994,552.7259909169989,552.7409845000002,552.7409845000002,552.7409845000002,552.7409845000002,555.7371180419977,555.7371180419977,556.7398912919998,2,1,0.7860749999999825,0.18197287499788217,None,556.740506416998,556.7405759169997,None,556.740696375,556.7407354169991,None,,,,,,,,,,,1,7,0,1,2025-01-13_12h13.00.304,rtmindeye,2024.1.5,None,2025-01-13 12h13.16.581569 -0500,
all_stimuli/special515/special_32232.jpg,41,0,0,0,1,7,1,"[9, 21, 31, 45, 56, 68, 69]",,,,,1,0,1,0,0,41,41,41,556.7568827499999,,,,,,,,,,,,,,,,,,,,,,556.741158249999,556.741276083998,556.7412922090007,556.7568827499999,556.7568827499999,556.7568827499999,556.7568827499999,559.7534467500009,559.7534467500009,560.7405735840002,1,1,1.7060814159995061,0.21707225000136532,None,560.7410461670006,560.7410939590009,None,560.7411732920009,560.741199791999,None,560.7527944169997,560.7527944169997,,,,,,,,,1,7,0,1,2025-01-13_12h13.00.304,rtmindeye,2024.1.5,None,2025-01-13 12h13.16.581569 -0500,
all_stimuli/special515/special_41814.jpg,42,0,0,0,1,7,1,"[9, 21, 31, 45, 56, 68, 69]",,,,,1,0,1,0,0,42,42,42,560.7527944169997,,,,,,,,,,,,,,,,,,,,,,560.7415030000011,560.7415808750011,560.7415918340012,560.7527944169997,560.7527944169997,560.7527944169997,560.7527944169997,563.7401635419992,563.7401635419992,564.7402870000005,1,1,1.032298833000823,0.17387999999846215,None,564.740914375001,564.7409808749981,None,564.7410990419994,564.7411377089993,None,564.7571798339995,564.7571798339995,,,,,,,,,1,7,0,1,2025-01-13_12h13.00.304,rtmindeye,2024.1.5,None,2025-01-13 12h13.16.581569 -0500,
all_stimuli/shared1000_notspecial/notspecial_23883.png,43,0,0,0,1,7,1,"[9, 21, 31, 45, 56, 68, 69]",,,,,1,0,1,0,0,43,43,43,564.7571798339995,,,,,,,,,,,,,,,,,,,,,,564.7415681249986,564.7416842919993,564.741703249998,564.7571798339995,564.7571798339995,564.7571798339995,564.7571798339995,567.7535996670013,567.7535996670013,568.7584245420003,1,1,0.8928056660006405,0.1870902919981745,None,568.7590500839979,568.759120499999,None,568.7592345839985,568.7592741669978,None,,,,,,,,,,,1,7,0,1,2025-01-13_12h13.00.304,rtmindeye,2024.1.5,None,2025-01-13 12h13.16.581569 -0500,
all_stimuli/shared1000_notspecial/notspecial_4436.png,44,0,0,0,1,7,1,"[9, 21, 31, 45, 56, 68, 69]",,,,,1,0,1,0,0,44,44,44,568.7744407499995,,,,,,,,,,,,,,,,,,,,,,568.7597117500009,568.7598394169981,568.7598554590004,568.7744407499995,568.7744407499995,568.7744407499995,568.7744407499995,571.7703359589977,571.7703359589977,572.7581352089983,1,1,0.8266806239989819,0.16601000000082422,None,572.759121209001,572.7592320420008,None,572.7593869589982,572.7594440419998,None,572.774368792001,572.774368792001,,,,,,,,,1,7,0,1,2025-01-13_12h13.00.304,rtmindeye,2024.1.5,None,2025-01-13 12h13.16.581569 -0500,
blank.jpg,45,1,0,0,1,7,1,"[9, 21, 31, 45, 56, 68, 69]",,,,,1,0,1,0,0,45,45,45,572.774368792001,,,,,,,,,,,,,,,,,,,,,,572.7601979589999,572.7603442920008,572.7603658750013,572.774368792001,572.774368792001,572.774368792001,572.774368792001,575.7887763340004,575.7887763340004,576.7587320839993,None,0,,,None,576.7592273339978,576.759303750001,None,576.7594361669981,576.7594767919982,None,576.7757672919979,576.7757672919979,,,,,,,,,1,7,0,1,2025-01-13_12h13.00.304,rtmindeye,2024.1.5,None,2025-01-13 12h13.16.581569 -0500,
all_stimuli/special515/special_61133.jpg,46,0,1,0,1,7,1,"[9, 21, 31, 45, 56, 68, 69]",,,,,1,0,1,0,0,46,46,46,576.7757672919979,,,,,,,,,,,,,,,,,,,,,,576.7599399999999,576.7600547500006,576.7600710420011,576.7757672919979,576.7757672919979,576.7757672919979,576.7757672919979,579.7898320839995,579.7898320839995,580.7731805840012,2,1,1.030334123999637,0.19091320799998357,None,580.7738250420007,580.7738956249996,None,580.7740141670001,580.7740532919997,None,,,,,,,,,,,1,7,0,1,2025-01-13_12h13.00.304,rtmindeye,2024.1.5,None,2025-01-13 12h13.16.581569 -0500,
all_stimuli/MST_pairs1/pair_24_nsd_158_2_cocoid_3673.png,47,0,0,0,1,7,1,"[9, 21, 31, 45, 56, 68, 69]",,,,,1,0,1,0,0,47,47,47,580.8034807500007,,,,,,,,,,,,,,,,,,,,,,580.774482959001,580.7746011669988,580.7746175419998,580.8034807500007,580.8034807500007,580.8034807500007,580.8034807500007,583.8062389170009,583.8062389170009,584.7887096249979,1,1,0.9515964159982104,0.17800862500007497,None,584.7893577499999,584.7894255840001,None,584.7895402920003,584.7895796249977,None,,,,,,,,,,,1,7,0,1,2025-01-13_12h13.00.304,rtmindeye,2024.1.5,None,2025-01-13 12h13.16.581569 -0500,
all_stimuli/MST_pairs1/pair_34_nsd_875_2_cocoid_72398.png,48,0,0,0,1,7,1,"[9, 21, 31, 45, 56, 68, 69]",,,,,1,0,1,0,0,48,48,48,584.8186822499993,,,,,,,,,,,,,,,,,,,,,,584.7900046670002,584.7901245840003,584.7901407919999,584.8186822499993,584.8186822499993,584.8186822499993,584.8186822499993,587.8071968340009,587.8071968340009,588.8074056250007,1,1,1.1164749990020937,0.18399929199949838,None,588.808355666999,588.8084611669983,None,588.8085949169981,588.8087275840007,None,,,,,,,,,,,1,7,0,1,2025-01-13_12h13.00.304,rtmindeye,2024.1.5,None,2025-01-13 12h13.16.581569 -0500,
all_stimuli/shared1000_notspecial/notspecial_51965.png,49,0,0,0,1,7,1,"[9, 21, 31, 45, 56, 68, 69]",,,,,1,0,1,0,0,49,49,49,588.8268938750007,,,,,,,,,,,,,,,,,,,,,,588.8094501669984,588.8097684589993,588.8097860839989,588.8268938750007,588.8268938750007,588.8268938750007,588.8268938750007,591.823475792,591.823475792,592.8100095419977,1,1,0.7841904159977275,0.182006334001926,None,592.8106478339978,592.8107185000008,None,592.8108332919983,592.8108733749978,None,,,,,,,,,,,1,7,0,1,2025-01-13_12h13.00.304,rtmindeye,2024.1.5,None,2025-01-13 12h13.16.581569 -0500,
all_stimuli/MST_pairs1/pair_30_nsd_676_1_cocoid_48729.png,50,0,0,0,1,7,1,"[9, 21, 31, 45, 56, 68, 69]",,,,,1,0,1,0,0,50,50,50,592.8379910420008,,,,,,,,,,,,,,,,,,,,,,592.8113156250001,592.8114582919989,592.8114746669999,592.8379910420008,592.8379910420008,592.8379910420008,592.8379910420008,595.8396370839982,595.8396370839982,596.8232676250009,1,1,1.2311732080015645,0.19301679199998034,None,596.824331333999,596.8244498339991,None,596.8246094589995,596.8246675839982,None,,,,,,,,,,,1,7,0,1,2025-01-13_12h13.00.304,rtmindeye,2024.1.5,None,2025-01-13 12h13.16.581569 -0500,
all_stimuli/shared1000_notspecial/notspecial_52328.png,51,0,0,0,1,7,1,"[9, 21, 31, 45, 56, 68, 69]",,,,,1,0,1,0,0,51,51,51,596.8419019169996,,,,,,,,,,,,,,,,,,,,,,596.8254647499998,596.8256701249993,596.825688500001,596.8419019169996,596.8419019169996,596.8419019169996,596.8419019169996,599.8567495419993,599.8567495419993,600.8396871670011,1,1,0.8512741660015308,0.16897804099789937,None,600.8408968750009,600.8410352089995,None,600.8411822089984,600.8412353749991,None,,,,,,,,,,,1,7,0,1,2025-01-13_12h13.00.304,rtmindeye,2024.1.5,None,2025-01-13 12h13.16.581569 -0500,
all_stimuli/MST_pairs1/pair_4_6_44.png,52,0,0,0,1,7,1,"[9, 21, 31, 45, 56, 68, 69]",,,,,1,0,1,0,0,52,52,52,600.8601402089989,,,,,,,,,,,,,,,,,,,,,,600.8419452499984,600.8422645840001,600.8422815419981,600.8601402089989,600.8601402089989,600.8601402089989,600.8601402089989,603.857133417001,603.857133417001,604.8537507500005,1,1,0.8943107490013062,0.17171295899970573,None,604.8545350839995,604.8546219169984,None,604.8547660840013,604.8548154589989,None,,,,,,,,,,,1,7,0,1,2025-01-13_12h13.00.304,rtmindeye,2024.1.5,None,2025-01-13 12h13.16.581569 -0500,
all_stimuli/MST_pairs1/pair_48_w_runway1.jpg,53,0,0,0,1,7,1,"[9, 21, 31, 45, 56, 68, 69]",,,,,1,0,1,0,0,53,53,53,604.8674758339985,,,,,,,,,,,,,,,,,,,,,,604.8553714170012,604.855522875001,604.8555432920002,604.8674758339985,604.8674758339985,604.8674758339985,604.8674758339985,607.8730017499984,607.8730017499984,608.8571555419985,1,1,0.986644623997563,0.1470301670015033,None,608.8577932500011,608.8578634170008,None,608.8579772089979,608.8580156249991,None,,,,,,,,,,,1,7,0,1,2025-01-13_12h13.00.304,rtmindeye,2024.1.5,None,2025-01-13 12h13.16.581569 -0500,
all_stimuli/special515/special_40840.jpg,54,0,1,0,1,7,1,"[9, 21, 31, 45, 56, 68, 69]",,,,,1,0,1,0,0,54,54,54,608.8758207499995,,,,,,,,,,,,,,,,,,,,,,608.8584430419978,608.8585928339999,608.8586096250001,608.8758207499995,608.8758207499995,608.8758207499995,608.8758207499995,611.8733255420011,611.8733255420011,612.8737033750003,2,1,1.0723130410005979,0.15743395800018334,None,612.8743152499992,612.8743858749986,None,612.8745047919983,612.8745444169981,None,,,,,,,,,,,1,7,0,1,2025-01-13_12h13.00.304,rtmindeye,2024.1.5,None,2025-01-13 12h13.16.581569 -0500,
all_stimuli/shared1000_notspecial/notspecial_12487.png,55,0,0,0,1,7,1,"[9, 21, 31, 45, 56, 68, 69]",,,,,1,0,1,0,0,55,55,55,612.8906995840007,,,,,,,,,,,,,,,,,,,,,,612.8749799590005,612.8750959589997,612.8751122089998,612.8906995840007,612.8906995840007,612.8906995840007,612.8906995840007,615.9093727500003,615.9093727500003,616.8747037499998,1,1,0.7745464990002802,0.1799704170007317,None,616.8758337500003,616.875974999999,None,616.8761613749994,616.8762237499977,None,616.9039729590004,616.9039729590004,,,,,,,,,1,7,0,1,2025-01-13_12h13.00.304,rtmindeye,2024.1.5,None,2025-01-13 12h13.16.581569 -0500,
blank.jpg,56,1,0,0,1,7,1,"[9, 21, 31, 45, 56, 68, 69]",,,,,1,0,1,0,0,56,56,56,616.9039729590004,,,,,,,,,,,,,,,,,,,,,,616.8771205839985,616.8772938750008,616.8773195419999,616.9039729590004,616.9039729590004,616.9039729590004,616.9039729590004,619.892007041999,619.892007041999,620.8893052089988,None,0,,,None,620.8902276669978,620.8903637920012,None,620.8905783339978,620.8906268339997,None,,,,,,,,,,,1,7,0,1,2025-01-13_12h13.00.304,rtmindeye,2024.1.5,None,2025-01-13 12h13.16.581569 -0500,
all_stimuli/MST_pairs1/pair_16_20_0.png,57,0,1,0,1,7,1,"[9, 21, 31, 45, 56, 68, 69]",,,,,1,0,1,0,0,57,57,57,620.9069928749996,,,,,,,,,,,,,,,,,,,,,,620.8913537090011,620.8915255840002,620.8915470840002,620.9069928749996,620.9069928749996,620.9069928749996,620.9069928749996,623.9036713339992,623.9036713339992,624.890627959001,2,1,1.3572819159999199,0.14800058399850968,None,624.8918728749995,624.8920034170005,None,624.8923270419982,624.8924149589984,None,624.9143802920007,624.9143802920007,,,,,,,,,1,7,0,1,2025-01-13_12h13.00.304,rtmindeye,2024.1.5,None,2025-01-13 12h13.16.581569 -0500,
all_stimuli/shared1000_notspecial/notspecial_12685.png,58,0,0,0,1,7,1,"[9, 21, 31, 45, 56, 68, 69]",,,,,1,0,1,0,0,58,58,58,624.9143802920007,,,,,,,,,,,,,,,,,,,,,,624.8929719999978,624.8946015420006,624.8946273750007,624.9143802920007,624.9143802920007,624.9143802920007,624.9143802920007,627.9199652919997,627.9199652919997,628.903912583999,1,1,0.7937430820020381,0.18399108399898978,None,628.904545166999,628.904615667001,None,628.904732791998,628.9047703340002,None,,,,,,,,,,,1,7,0,1,2025-01-13_12h13.00.304,rtmindeye,2024.1.5,None,2025-01-13 12h13.16.581569 -0500,
all_stimuli/MST_pairs1/pair_36_nsd_949_2_cocoid_60031.png,59,0,0,0,1,7,1,"[9, 21, 31, 45, 56, 68, 69]",,,,,1,0,1,0,0,59,59,59,628.9310163339978,,,,,,,,,,,,,,,,,,,,,,628.9052071250007,628.9053257089981,628.9053419169977,628.9310163339978,628.9310163339978,628.9310163339978,628.9310163339978,631.9241226249978,631.9241226249978,632.9062900839999,1,1,1.4713045829994371,0.20898466700236895,None,632.9072119999983,632.9073030420004,None,632.9074287920012,632.9074765839978,None,,,,,,,,,,,1,7,0,1,2025-01-13_12h13.00.304,rtmindeye,2024.1.5,None,2025-01-13 12h13.16.581569 -0500,
all_stimuli/shared1000_notspecial/notspecial_34068.png,60,0,0,0,1,7,1,"[9, 21, 31, 45, 56, 68, 69]",,,,,1,0,1,0,0,60,60,60,632.9239810420004,,,,,,,,,,,,,,,,,,,,,,632.9082363339985,632.9084289169987,632.9084534169997,632.9239810420004,632.9239810420004,632.9239810420004,632.9239810420004,635.927594083998,635.927594083998,636.9131900419998,1,1,0.8562905830003729,0.21395858300093096,None,636.9137555839989,636.9138172089988,None,636.9139124169997,636.9139441669977,None,,,,,,,,,,,1,7,0,1,2025-01-13_12h13.00.304,rtmindeye,2024.1.5,None,2025-01-13 12h13.16.581569 -0500,
all_stimuli/special515/special_11159.jpg,61,0,0,0,1,7,1,"[9, 21, 31, 45, 56, 68, 69]",,,,,1,0,1,0,0,61,61,61,636.931151249999,,,,,,,,,,,,,,,,,,,,,,636.9143035419984,636.9153787089999,636.9153976669986,636.931151249999,636.931151249999,636.931151249999,636.931151249999,639.9242126249992,639.9242126249992,640.9206115419984,1,1,1.3901451659985469,0.19004770900210133,None,640.9213897090012,640.9214994590002,None,640.921648042,640.9216995419993,None,,,,,,,,,,,1,7,0,1,2025-01-13_12h13.00.304,rtmindeye,2024.1.5,None,2025-01-13 12h13.16.581569 -0500,
all_stimuli/MST_pairs1/pair_34_nsd_875_2_cocoid_72398.png,62,0,1,0,1,7,1,"[9, 21, 31, 45, 56, 68, 69]",,,,,1,0,1,0,0,62,62,62,640.9511809590003,,,,,,,,,,,,,,,,,,,,,,640.9222553750005,640.9224061249988,640.9224297920009,640.9511809590003,640.9511809590003,640.9511809590003,640.9511809590003,643.9409988340012,643.9409988340012,644.9242569999988,2,1,0.9411013319986523,0.15512041700276313,None,644.9248805839998,644.9249526249987,None,644.9250697919997,644.9251089999998,None,,,,,,,,,,,1,7,0,1,2025-01-13_12h13.00.304,rtmindeye,2024.1.5,None,2025-01-13 12h13.16.581569 -0500,
all_stimuli/special515/special_67742.jpg,63,0,0,0,1,7,1,"[9, 21, 31, 45, 56, 68, 69]",,,,,1,0,1,0,0,63,63,63,644.940929542001,,,,,,,,,,,,,,,,,,,,,,644.9255413749997,644.9256666670008,644.925682541998,644.940929542001,644.940929542001,644.940929542001,644.940929542001,647.9370753340008,647.9370753340008,648.9254188339983,1,1,0.8754184579993307,0.18000920800113818,None,648.9258669170013,648.9259186669988,None,648.9259970419989,648.9260236250011,None,648.9409048749985,648.9409048749985,,,,,,,,,1,7,0,1,2025-01-13_12h13.00.304,rtmindeye,2024.1.5,None,2025-01-13 12h13.16.581569 -0500,
all_stimuli/MST_pairs1/pair_48_w_runway2.jpg,64,0,0,0,1,7,1,"[9, 21, 31, 45, 56, 68, 69]",,,,,1,0,1,0,0,64,64,64,648.9409048749985,,,,,,,,,,,,,,,,,,,,,,648.9263162499992,648.9263941249992,648.9264053750012,648.9409048749985,648.9409048749985,648.9409048749985,648.9409048749985,651.9372545839979,651.9372545839979,652.9235277090011,1,1,1.08447950000118,0.18293037499825004,None,652.924143166998,652.9242113750006,None,652.9243232090012,652.9243643339978,None,652.9366256249996,652.9366256249996,,,,,,,,,1,7,0,1,2025-01-13_12h13.00.304,rtmindeye,2024.1.5,None,2025-01-13 12h13.16.581569 -0500,
all_stimuli/MST_pairs1/pair_40_w_escalator1.jpg,65,0,0,0,1,7,1,"[9, 21, 31, 45, 56, 68, 69]",,,,,1,0,1,0,0,65,65,65,652.9366256249996,,,,,,,,,,,,,,,,,,,,,,652.9247907499994,652.9249058749992,652.9249221249993,652.9366256249996,652.9366256249996,652.9366256249996,652.9366256249996,655.9424789590012,655.9424789590012,656.923083458998,1,1,1.0777261660005024,0.175936208001076,None,656.9239622919995,656.9240737500004,None,656.9242113340006,656.9242627919994,None,656.9401692499996,656.9401692499996,,,,,,,,,1,7,0,1,2025-01-13_12h13.00.304,rtmindeye,2024.1.5,None,2025-01-13 12h13.16.581569 -0500,
all_stimuli/special515/special_62228.jpg,66,0,1,0,1,7,1,"[9, 21, 31, 45, 56, 68, 69]",,,,,1,0,1,0,0,66,66,66,656.9401692499996,,,,,,,,,,,,,,,,,,,,,,656.9250442919983,656.9252095839984,656.9252336249992,656.9401692499996,656.9401692499996,656.9401692499996,656.9401692499996,659.9558053750006,659.9558053750006,660.926490875001,2,1,1.0211452080002346,0.15709395799785852,None,660.9270059999981,660.9270637500013,None,660.9271592090008,660.9271915419995,None,,,,,,,,,,,1,7,0,1,2025-01-13_12h13.00.304,rtmindeye,2024.1.5,None,2025-01-13 12h13.16.581569 -0500,
all_stimuli/MST_pairs1/pair_26_nsd_483_2_cocoid_8054.png,67,0,0,0,1,7,1,"[9, 21, 31, 45, 56, 68, 69]",,,,,1,0,1,0,0,67,67,67,660.9524662090007,,,,,,,,,,,,,,,,,,,,,,660.9275417919998,660.9276442090013,660.9276574590003,660.9524662090007,660.9524662090007,660.9524662090007,660.9524662090007,663.9404883749994,663.9404883749994,664.9405380419994,1,1,0.7469019580021268,0.18408487499982584,None,664.941484084,664.9415794589986,None,664.9417069589981,664.941755374999,None,,,,,,,,,,,1,7,0,1,2025-01-13_12h13.00.304,rtmindeye,2024.1.5,None,2025-01-13 12h13.16.581569 -0500,
blank.jpg,68,1,0,0,1,7,1,"[9, 21, 31, 45, 56, 68, 69]",,,,,1,0,1,0,0,68,68,68,664.9576611669982,,,,,,,,,,,,,,,,,,,,,,664.9424497500004,664.9427866250007,664.9428039999984,664.9576611669982,664.9576611669982,664.9576611669982,664.9576611669982,667.9731802919996,667.9731802919996,668.9416042499979,None,0,,,None,668.9420755840001,668.9421460839985,None,668.9422669999985,668.9423094999984,None,668.953533459,668.953533459,,,,,,,,,1,7,0,1,2025-01-13_12h13.00.304,rtmindeye,2024.1.5,None,2025-01-13 12h13.16.581569 -0500,
blank.jpg,69,1,0,1,1,7,0,"[9, 21, 31, 45, 56, 68, 69]",,,,,1,0,1,0,0,69,69,69,668.953533459,,,,,,,,,,,,,,,,,,,,,,668.942757249999,668.9428696249997,668.9428853339996,668.953533459,668.953533459,668.953533459,668.953533459,671.956805834001,671.956805834001,672.9374577499984,None,0,,,None,672.9378552499984,687.2384017090008,1,687.2389989170006,704.6055469169987,equal,672.9524792089978,672.9524792089978,672.9524792089978,672.9524792089978,14.282081707999168,None,687.2472619170003,687.2472619170003,17.354300623999734,None,1,7,0,1,2025-01-13_12h13.00.304,rtmindeye,2024.1.5,None,2025-01-13 12h13.16.581569 -0500,
,,,,,,,,,,,,,1,0,1,0,,,,,,,,,,,,,,,,,,,,,,,,,,,,,,,,,,,,,,,,,,,,,,,,,,,,,,,,,,1,7,0,1,2025-01-13_12h13.00.304,rtmindeye,2024.1.5,None,2025-01-13 12h13.16.581569 -0500,
all_stimuli/shared1000_notspecial/notspecial_19672.png,0,0,0,0,2,7,1,"[9, 21, 31, 45, 56, 68, 69]",,,,,2,0,2,0,0,0,0,0,704.6324379170001,,,,,,,,,,,,,,,,,,,,,,704.6219187089991,704.6222060420005,704.6222161670012,704.6324379170001,704.6324379170001,704.6324379170001,704.6324379170001,707.6240644999998,707.6240644999998,708.6245288339996,1,1,1.1691422490002878,0.19086470899856067,None,708.625620584,708.6257054169982,None,708.6259798339997,708.6260244590012,None,,,,,,,,,,,1,7,0,1,2025-01-13_12h13.00.304,rtmindeye,2024.1.5,None,2025-01-13 12h13.16.581569 -0500,
all_stimuli/special515/special_55526.jpg,1,0,0,0,2,7,1,"[9, 21, 31, 45, 56, 68, 69]",,,,,2,0,2,0,0,1,1,1,708.6423350000005,,,,,,,,,,,,,,,,,,,,,,708.6266461249979,708.6267786249991,708.6267949590001,708.6423350000005,708.6423350000005,708.6423350000005,708.6423350000005,711.6374292500004,711.6374292500004,712.6274747089992,1,1,2.0841512080005486,0.19798270799947204,None,712.6281219169978,712.6281933339997,None,712.6283090420002,712.6283501670005,None,,,,,,,,,,,1,7,0,1,2025-01-13_12h13.00.304,rtmindeye,2024.1.5,None,2025-01-13 12h13.16.581569 -0500,
all_stimuli/MST_pairs1/pair_22_nsd_115_1_cocoid_8171.png,2,0,0,0,2,7,1,"[9, 21, 31, 45, 56, 68, 69]",,,,,2,0,2,0,0,2,2,2,712.656605917,,,,,,,,,,,,,,,,,,,,,,712.6287919589995,712.6289487920003,712.6289647919984,712.656605917,712.656605917,712.656605917,712.656605917,715.6540823750001,715.6540823750001,716.6376472499978,1,1,0.95597537499998,0.17796654099947773,None,716.6382751249985,716.6383393340002,None,716.6384387500002,716.6384722500006,None,,,,,,,,,,,1,7,0,1,2025-01-13_12h13.00.304,rtmindeye,2024.1.5,None,2025-01-13 12h13.16.581569 -0500,
all_stimuli/special515/special_13613.jpg,3,0,1,0,2,7,1,"[9, 21, 31, 45, 56, 68, 69]",,,,,2,0,2,0,0,3,3,3,716.6532770839985,,,,,,,,,,,,,,,,,,,,,,716.6388789589982,716.6390064170009,716.6390199589987,716.6532770839985,716.6532770839985,716.6532770839985,716.6532770839985,719.6404137499994,719.6404137499994,720.6392433750007,2,1,0.6682998750002298,0.18592370799888158,None,720.6399377499984,720.6400135420008,None,720.640146583999,720.640186708999,None,720.6569805420004,720.6569805420004,,,,,,,,,1,7,0,1,2025-01-13_12h13.00.304,rtmindeye,2024.1.5,None,2025-01-13 12h13.16.581569 -0500,
all_stimuli/shared1000_notspecial/notspecial_28487.png,4,0,0,0,2,7,1,"[9, 21, 31, 45, 56, 68, 69]",,,,,2,0,2,0,0,4,4,4,720.6569805420004,,,,,,,,,,,,,,,,,,,,,,720.6406354999999,720.640748875001,720.6407680000011,720.6569805420004,720.6569805420004,720.6569805420004,720.6569805420004,723.6541949589991,723.6541949589991,724.6436060839987,1,1,1.8805792489984015,0.2039855830007582,None,724.6442246250008,724.6442932919999,None,724.6444097919994,724.6444475839999,None,,,,,,,,,,,1,7,0,1,2025-01-13_12h13.00.304,rtmindeye,2024.1.5,None,2025-01-13 12h13.16.581569 -0500,
all_stimuli/special515/special_28524.jpg,5,0,1,0,2,7,1,"[9, 21, 31, 45, 56, 68, 69]",,,,,2,0,2,0,0,5,5,5,724.6591666249988,,,,,,,,,,,,,,,,,,,,,,724.644869249998,724.6450010839981,724.6450174999991,724.6591666249988,724.6591666249988,724.6591666249988,724.6591666249988,727.6573444589994,727.6573444589994,728.6540682089981,2,1,0.728378583000449,0.15203266699973028,None,728.6545777089996,728.6546358749983,None,728.6547335840005,728.6547647919979,None,,,,,,,,,,,1,7,0,1,2025-01-13_12h13.00.304,rtmindeye,2024.1.5,None,2025-01-13 12h13.16.581569 -0500,
all_stimuli/MST_pairs1/pair_44_w_log_cabin1.jpg,6,0,0,0,2,7,1,"[9, 21, 31, 45, 56, 68, 69]",,,,,2,0,2,0,0,6,6,6,728.6679110839978,,,,,,,,,,,,,,,,,,,,,,728.6551172500003,728.6552320839983,728.6552456669997,728.6679110839978,728.6679110839978,728.6679110839978,728.6679110839978,731.6731889170005,731.6731889170005,732.6570685420011,1,1,1.8357294160014135,0.18395033300112118,None,732.6577390419989,732.657812958998,None,732.6579297919998,732.6579706669982,None,,,,,,,,,,,1,7,0,1,2025-01-13_12h13.00.304,rtmindeye,2024.1.5,None,2025-01-13 12h13.16.581569 -0500,
all_stimuli/special515/special_71241.jpg,7,0,0,0,2,7,1,"[9, 21, 31, 45, 56, 68, 69]",,,,,2,0,2,0,0,7,7,7,732.6745648340002,,,,,,,,,,,,,,,,,,,,,,732.6584286670004,732.6585774589985,732.6585937499985,732.6745648340002,732.6745648340002,732.6745648340002,732.6745648340002,735.6728504999992,735.6728504999992,736.6575808339985,1,1,0.9630864159989869,0.19501029100138112,None,736.6580862919982,736.6581428339996,None,736.6582353339982,736.6582670839998,None,736.6701725419989,736.6701725419989,,,,,,,,,1,7,0,1,2025-01-13_12h13.00.304,rtmindeye,2024.1.5,None,2025-01-13 12h13.16.581569 -0500,
all_stimuli/special515/special_68842.jpg,8,0,0,0,2,7,1,"[9, 21, 31, 45, 56, 68, 69]",,,,,2,0,2,0,0,8,8,8,736.6701725419989,,,,,,,,,,,,,,,,,,,,,,736.6586112500008,736.6587034590011,736.6587167920006,736.6701725419989,736.6701725419989,736.6701725419989,736.6701725419989,739.6584250419983,739.6584250419983,740.6541979169997,1,1,0.8465544989994669,0.1938719999998284,None,740.6546339589986,740.6546817919989,None,740.6547614170013,740.654788625001,None,740.6641945419979,740.6641945419979,,,,,,,,,1,7,0,1,2025-01-13_12h13.00.304,rtmindeye,2024.1.5,None,2025-01-13 12h13.16.581569 -0500,
blank.jpg,9,1,0,0,2,7,1,"[9, 21, 31, 45, 56, 68, 69]",,,,,2,0,2,0,0,9,9,9,740.6641945419979,,,,,,,,,,,,,,,,,,,,,,740.6550855419991,740.655164249998,740.655175459,740.6641945419979,740.6641945419979,740.6641945419979,740.6641945419979,743.6575306249979,743.6575306249979,744.6574251249986,None,0,,,None,744.6581612919981,744.6582664589987,None,744.6584125000008,744.658459541999,None,,,,,,,,,,,1,7,0,1,2025-01-13_12h13.00.304,rtmindeye,2024.1.5,None,2025-01-13 12h13.16.581569 -0500,
all_stimuli/shared1000_notspecial/notspecial_70758.png,10,0,0,0,2,7,1,"[9, 21, 31, 45, 56, 68, 69]",,,,,2,0,2,0,0,10,10,10,744.6751362920004,,,,,,,,,,,,,,,,,,,,,,744.6592618750001,744.6594061670003,744.6594274999989,744.6751362920004,744.6751362920004,744.6751362920004,744.6751362920004,747.6736814169999,747.6736814169999,748.6733506249984,1,1,0.9755647910023981,0.1888911249989178,None,748.6743482499987,748.6744419589995,None,748.6746025419998,748.6746478749992,None,,,,,,,,,,,1,7,0,1,2025-01-13_12h13.00.304,rtmindeye,2024.1.5,None,2025-01-13 12h13.16.581569 -0500,
all_stimuli/special515/special_47687.jpg,11,0,1,0,2,7,1,"[9, 21, 31, 45, 56, 68, 69]",,,,,2,0,2,0,0,11,11,11,748.6932536249988,,,,,,,,,,,,,,,,,,,,,,748.67530825,748.6756687499983,748.6756873749982,748.6932536249988,748.6932536249988,748.6932536249988,748.6932536249988,751.6912028340012,751.6912028340012,752.6874379590008,2,1,0.7614698329998646,0.1858891659976507,None,752.6879646669986,752.6880221669999,None,752.6881150000008,752.6881464170001,None,,,,,,,,,,,1,7,0,1,2025-01-13_12h13.00.304,rtmindeye,2024.1.5,None,2025-01-13 12h13.16.581569 -0500,
all_stimuli/shared1000_notspecial/notspecial_9462.png,12,0,0,0,2,7,1,"[9, 21, 31, 45, 56, 68, 69]",,,,,2,0,2,0,0,12,12,12,752.7038763749988,,,,,,,,,,,,,,,,,,,,,,752.6885297500012,752.6886261250002,752.6886393749992,752.7038763749988,752.7038763749988,752.7038763749988,752.7038763749988,755.690751416998,755.690751416998,756.6911180839998,1,1,1.8088042070012307,0.19604174999767565,None,756.6923276669986,756.6924714589986,None,756.6926360420002,756.6926934170006,None,,,,,,,,,,,1,7,0,1,2025-01-13_12h13.00.304,rtmindeye,2024.1.5,None,2025-01-13 12h13.16.581569 -0500,
all_stimuli/special515/special_57046.jpg,13,0,0,0,2,7,1,"[9, 21, 31, 45, 56, 68, 69]",,,,,2,0,2,0,0,13,13,13,756.7090507920002,,,,,,,,,,,,,,,,,,,,,,756.6935489999996,756.6937123749994,756.6937354170004,756.7090507920002,756.7090507920002,756.7090507920002,756.7090507920002,759.7232108749995,759.7232108749995,760.6917217090013,1,1,0.9506084160020691,0.19400829199730651,None,760.6923263749995,760.6923934999977,None,760.6925057500011,760.6925449170012,None,760.7090813340001,760.7090813340001,,,,,,,,,1,7,0,1,2025-01-13_12h13.00.304,rtmindeye,2024.1.5,None,2025-01-13 12h13.16.581569 -0500,
all_stimuli/shared1000_notspecial/notspecial_57681.png,14,0,0,0,2,7,1,"[9, 21, 31, 45, 56, 68, 69]",,,,,2,0,2,0,0,14,14,14,760.7090813340001,,,,,,,,,,,,,,,,,,,,,,760.6929644999982,760.6930780420007,760.6930936249992,760.7090813340001,760.7090813340001,760.7090813340001,760.7090813340001,763.7228164589978,763.7228164589978,764.7043697090012,1,1,0.6726899579989549,0.1969350420004048,None,764.7049421250013,764.7050041250004,None,764.7051024169996,764.7051359590005,None,,,,,,,,,,,1,7,0,1,2025-01-13_12h13.00.304,rtmindeye,2024.1.5,None,2025-01-13 12h13.16.581569 -0500,
all_stimuli/special515/special_22587.jpg,15,0,1,0,2,7,1,"[9, 21, 31, 45, 56, 68, 69]",,,,,2,0,2,0,0,15,15,15,764.7195261249981,,,,,,,,,,,,,,,,,,,,,,764.7055209169994,764.7056188339993,764.7056321669988,764.7195261249981,764.7195261249981,764.7195261249981,764.7195261249981,767.7076368339985,767.7076368339985,768.704723750001,2,1,0.8032337490003556,0.18292520899922238,None,768.7053777500005,768.7054489590009,None,768.7055624169989,768.7056015419985,None,768.7189594999982,768.7189594999982,,,,,,,,,1,7,0,1,2025-01-13_12h13.00.304,rtmindeye,2024.1.5,None,2025-01-13 12h13.16.581569 -0500,
all_stimuli/special515/special_32232.jpg,16,0,1,0,2,7,1,"[9, 21, 31, 45, 56, 68, 69]",,,,,2,0,2,0,0,16,16,16,768.7189594999982,,,,,,,,,,,,,,,,,,,,,,768.7060502089989,768.7061652919983,768.7061816249989,768.7189594999982,768.7189594999982,768.7189594999982,768.7189594999982,771.7111742919988,771.7111742919988,772.7046466669999,2,1,0.7707363330009684,0.17408708299990394,None,772.705316749998,772.7053928749992,None,772.705508125,772.7055568340002,None,772.7199105,772.7199105,,,,,,,,,1,7,0,1,2025-01-13_12h13.00.304,rtmindeye,2024.1.5,None,2025-01-13 12h13.16.581569 -0500,
all_stimuli/special515/special_36731.jpg,17,0,0,0,2,7,1,"[9, 21, 31, 45, 56, 68, 69]",,,,,2,0,2,0,0,17,17,17,772.7199105,,,,,,,,,,,,,,,,,,,,,,772.7061542499978,772.7062983340002,772.7063220839991,772.7199105,772.7199105,772.7199105,772.7199105,775.7069358749977,775.7069358749977,776.707161792001,1,1,1.0938180410012137,0.21000404200094636,None,776.7081662919991,776.7082764999977,None,776.708438499998,776.7084943749978,None,,,,,,,,,,,1,7,0,1,2025-01-13_12h13.00.304,rtmindeye,2024.1.5,None,2025-01-13 12h13.16.581569 -0500,
all_stimuli/special515/special_40935.jpg,18,0,0,0,2,7,1,"[9, 21, 31, 45, 56, 68, 69]",,,,,2,0,2,0,0,18,18,18,776.7242873750001,,,,,,,,,,,,,,,,,,,,,,776.7093733750007,776.709510749999,776.7095329170006,776.7242873750001,776.7242873750001,776.7242873750001,776.7242873750001,779.7208418749979,779.7208418749979,780.7236444170012,1,1,0.8705142489998252,0.19492437500230153,None,780.7245323339994,780.7246186669981,None,780.7247463339991,780.7247930839985,None,,,,,,,,,,,1,7,0,1,2025-01-13_12h13.00.304,rtmindeye,2024.1.5,None,2025-01-13 12h13.16.581569 -0500,
all_stimuli/special515/special_41814.jpg,19,0,1,0,2,7,1,"[9, 21, 31, 45, 56, 68, 69]",,,,,2,0,2,0,0,19,19,19,780.7412108339995,,,,,,,,,,,,,,,,,,,,,,780.7254761250006,780.725630375,780.7256567090008,780.7412108339995,780.7412108339995,780.7412108339995,780.7412108339995,783.7375327919981,783.7375327919981,784.7252431249981,2,1,0.8305478740003309,0.1839437500020722,None,784.7257590000008,784.7258157920005,None,784.7259104170007,784.7259425000011,None,784.7420128749982,784.7420128749982,,,,,,,,,1,7,0,1,2025-01-13_12h13.00.304,rtmindeye,2024.1.5,None,2025-01-13 12h13.16.581569 -0500,
all_stimuli/special515/special_64880.jpg,20,0,1,0,2,7,1,"[9, 21, 31, 45, 56, 68, 69]",,,,,2,0,2,0,0,20,20,20,784.7420128749982,,,,,,,,,,,,,,,,,,,,,,784.726288124999,784.7263818339998,784.7263948750006,784.7420128749982,784.7420128749982,784.7420128749982,784.7420128749982,787.740828209,787.740828209,788.7378087500001,2,1,0.7967942079994828,0.20191541700114612,None,788.7383229170009,788.7383797920011,None,788.7384725000011,788.7385040839981,None,,,,,,,,,,,1,7,0,1,2025-01-13_12h13.00.304,rtmindeye,2024.1.5,None,2025-01-13 12h13.16.581569 -0500,
blank.jpg,21,1,0,0,2,7,1,"[9, 21, 31, 45, 56, 68, 69]",,,,,2,0,2,0,0,21,21,21,788.7494523749992,,,,,,,,,,,,,,,,,,,,,,788.7388610839989,788.7389740840008,788.7389873339998,788.7494523749992,788.7494523749992,788.7494523749992,788.7494523749992,791.7407817919993,791.7407817919993,792.7399347089995,None,0,,,None,792.7406469589987,792.7407420419986,None,792.7408819589982,792.7409317499987,None,,,,,,,,,,,1,7,0,1,2025-01-13_12h13.00.304,rtmindeye,2024.1.5,None,2025-01-13 12h13.16.581569 -0500,
all_stimuli/MST_pairs1/pair_26_nsd_483_1_cocoid_37825.png,22,0,0,0,2,7,1,"[9, 21, 31, 45, 56, 68, 69]",,,,,2,0,2,0,0,22,22,22,792.7697010419979,,,,,,,,,,,,,,,,,,,,,,792.7415628339986,792.7419519169998,792.7419697500009,792.7697010419979,792.7697010419979,792.7697010419979,792.7697010419979,795.7728229999993,795.7728229999993,796.7447013339988,1,1,1.041137833002722,0.19005258299876004,None,796.7453587089985,796.7454326250008,None,796.7455564999982,796.7455957499988,None,,,,,,,,,,,1,7,0,1,2025-01-13_12h13.00.304,rtmindeye,2024.1.5,None,2025-01-13 12h13.16.581569 -0500,
all_stimuli/shared1000_notspecial/notspecial_70764.png,23,0,0,0,2,7,1,"[9, 21, 31, 45, 56, 68, 69]",,,,,2,0,2,0,0,23,23,23,796.7616156250006,,,,,,,,,,,,,,,,,,,,,,796.7460362919992,796.7461650420009,796.7461809999986,796.7616156250006,796.7616156250006,796.7616156250006,796.7616156250006,799.7580240839998,799.7580240839998,800.7576909589989,1,1,0.9221836659999099,0.19809083300060593,None,800.7583184169998,800.7583887920009,None,800.7585013339994,800.758542749998,None,,,,,,,,,,,1,7,0,1,2025-01-13_12h13.00.304,rtmindeye,2024.1.5,None,2025-01-13 12h13.16.581569 -0500,
all_stimuli/special515/special_8933.jpg,24,0,1,0,2,7,1,"[9, 21, 31, 45, 56, 68, 69]",,,,,2,0,2,0,0,24,24,24,800.7748449589999,,,,,,,,,,,,,,,,,,,,,,800.7589778340007,800.7591188340011,800.7591347089983,800.7748449589999,800.7748449589999,800.7748449589999,800.7748449589999,803.7708797499981,803.7708797499981,804.7582250839987,2,1,0.8350298750010552,0.17704829099966446,None,804.758858666999,804.7589287499977,None,804.7590431669996,804.7590838750002,None,804.7739804999983,804.7739804999983,,,,,,,,,1,7,0,1,2025-01-13_12h13.00.304,rtmindeye,2024.1.5,None,2025-01-13 12h13.16.581569 -0500,
