current_image,trial_index,is_blank_trial,thisN,thisTrialN,thisRepN,press_if_repeat_2.keys,press_if_repeat_2.corr,all_keys_pressed_2.keys,is_repeat,is_new_run,run_num,sess_num,is_not_last_trial,all_blanks_list,press_if_repeat.keys,press_if_repeat.corr,press_if_repeat.rt,press_if_repeat.duration,all_keys_pressed.keys,key_resp_5.keys,key_resp_4.keys,key_resp_5.rt,key_resp_5.duration,key_resp_4.rt,key_resp_4.duration,all_keys_pressed.rt,all_keys_pressed.duration,practice.thisRepN,practice.thisTrialN,practice.thisN,practice.thisIndex,loop_runs.thisRepN,loop_runs.thisTrialN,loop_runs.thisN,loop_runs.thisIndex,loop_all_images.thisRepN,loop_all_images.thisTrialN,loop_all_images.thisN,loop_all_images.thisIndex,thisRow.t,notes,set_up.started,set_up.stopped,practice_continue.started,practice_continue.stopped,key_resp_6.keys,practice_trial.started,practice_trial.stopped,practice.press_if_repeat_2.keys,practice.press_if_repeat_2.corr,practice.all_keys_pressed_2.keys,testing_continue.started,testing_continue.stopped,key_resp_7.keys,waiting_fmri.started,key_resp_2.started,text_3.started,waiting_fmri.stopped,key_resp_2.keys,key_resp_2.rt,key_resp_2.duration,set_skips_and_correct_key.started,set_skips_and_correct_key.stopped,trial.started,image.started,press_if_repeat.started,polygon.started,all_keys_pressed.started,image.stopped,press_if_repeat.stopped,trial.stopped,loop_all_images.press_if_repeat.keys,loop_all_images.press_if_repeat.corr,loop_all_images.press_if_repeat.rt,loop_all_images.press_if_repeat.duration,loop_all_images.all_keys_pressed.keys,run_wait2_2.started,run_wait2_2.stopped,loop_all_images.key_resp_5.keys,waiting_fmri_2.started,waiting_fmri_2.stopped,loop_all_images.key_resp_4.keys,key_resp_5.started,text_5.started,loop_all_images.key_resp_5.rt,loop_all_images.key_resp_5.duration,key_resp_4.started,text_4.started,loop_all_images.key_resp_4.rt,loop_all_images.key_resp_4.duration,loop_all_images.all_keys_pressed.rt,loop_all_images.all_keys_pressed.duration,participant,session (1 2 or 3),starting_run,skip_practice,date,expName,psychopyVersion,frameRate,expStart
,,,,,,,,,,,,,,,,,,,,,,,,,,,,,,,,,,,,,,,,,,0.004680792,0.004758958,,,,,,,,,,,,,,,,,,,,,,,,,,,,,,,,,,,,,,,,,,,,,,,,,,4,6,0,1,2025-02-06_13h02.45.189,rtmindeye,2024.2.4,None,2025-02-06 13h03.01.541102 -0500
,,,,,,,,,,,,,,,,,,,,,,,,,,,,,,,,,,,,,,,,,,,,0.010191124994889833,0.010209832995315082,None,,,,,,,,,,,,,,,,,,,,,,,,,,,,,,,,,,,,,,,,,,,,,,,4,6,0,1,2025-02-06_13h02.45.189,rtmindeye,2024.2.4,None,2025-02-06 13h03.01.541102 -0500
practice_images/w_kitchen2.jpg,0,0,0,0,0,None,0,None,,,,,,,,,,,,,,,,,,,,0,0,0,0,,,,,,,,,1.1832693749893224,,,,,,,0.23284229199634865,0.23294124999665655,None,0,None,,,,,,,,,,,,,,,,,,,,,,,,,,,,,,,,,,,,,,,,,,4,6,0,1,2025-02-06_13h02.45.189,rtmindeye,2024.2.4,None,2025-02-06 13h03.01.541102 -0500
practice_images/w_boardwalk2.jpg,1,0,1,1,0,None,0,None,,,,,,,,,,,,,,,,,,,,0,1,1,1,,,,,,,,,1.1832693749893224,,,,,,,0.34440320800058544,0.3445306669891579,None,0,None,,,,,,,,,,,,,,,,,,,,,,,,,,,,,,,,,,,,,,,,,,4,6,0,1,2025-02-06_13h02.45.189,rtmindeye,2024.2.4,None,2025-02-06 13h03.01.541102 -0500
practice_images/w_monument2.jpg,2,0,2,2,0,None,0,None,,,,,,,,,,,,,,,,,,,,0,2,2,2,,,,,,,,,1.1832693749893224,,,,,,,0.46649595799681265,0.4665946249879198,None,0,None,,,,,,,,,,,,,,,,,,,,,,,,,,,,,,,,,,,,,,,,,,4,6,0,1,2025-02-06_13h02.45.189,rtmindeye,2024.2.4,None,2025-02-06 13h03.01.541102 -0500
practice_images/w_auditorium2.jpg,3,0,3,3,0,None,0,None,,,,,,,,,,,,,,,,,,,,0,3,3,3,,,,,,,,,1.1832693749893224,,,,,,,0.5817079580010613,0.5818111669941572,None,0,None,,,,,,,,,,,,,,,,,,,,,,,,,,,,,,,,,,,,,,,,,,4,6,0,1,2025-02-06_13h02.45.189,rtmindeye,2024.2.4,None,2025-02-06 13h03.01.541102 -0500
practice_images/w_kitchen2.jpg,4,0,4,4,0,None,0,None,,,,,,,,,,,,,,,,,,,,0,4,4,4,,,,,,,,,1.1832693749893224,,,,,,,0.6393616249988554,0.6395019170013256,None,0,None,,,,,,,,,,,,,,,,,,,,,,,,,,,,,,,,,,,,,,,,,,4,6,0,1,2025-02-06_13h02.45.189,rtmindeye,2024.2.4,None,2025-02-06 13h03.01.541102 -0500
practice_images/w_auditorium1.jpg,5,0,5,5,0,None,0,None,,,,,,,,,,,,,,,,,,,,0,5,5,5,,,,,,,,,1.1832693749893224,,,,,,,0.7531814169924473,0.7532789169927128,None,0,None,,,,,,,,,,,,,,,,,,,,,,,,,,,,,,,,,,,,,,,,,,4,6,0,1,2025-02-06_13h02.45.189,rtmindeye,2024.2.4,None,2025-02-06 13h03.01.541102 -0500
practice_images/w_bedroom2.jpg,6,0,6,6,0,None,0,None,,,,,,,,,,,,,,,,,,,,0,6,6,6,,,,,,,,,1.1832693749893224,,,,,,,0.879059667,0.8791520829981891,None,0,None,,,,,,,,,,,,,,,,,,,,,,,,,,,,,,,,,,,,,,,,,,4,6,0,1,2025-02-06_13h02.45.189,rtmindeye,2024.2.4,None,2025-02-06 13h03.01.541102 -0500
practice_images/w_kitchen1.jpg,7,0,7,7,0,None,0,None,,,,,,,,,,,,,,,,,,,,0,7,7,7,,,,,,,,,1.1832693749893224,,,,,,,0.9973984169919277,0.9974813750013709,None,0,None,,,,,,,,,,,,,,,,,,,,,,,,,,,,,,,,,,,,,,,,,,4,6,0,1,2025-02-06_13h02.45.189,rtmindeye,2024.2.4,None,2025-02-06 13h03.01.541102 -0500
practice_images/w_bedroom1.jpg,8,0,8,8,0,None,0,None,,,,,,,,,,,,,,,,,,,,0,8,8,8,,,,,,,,,1.1832693749893224,,,,,,,1.132100624992745,1.132191958,None,0,None,,,,,,,,,,,,,,,,,,,,,,,,,,,,,,,,,,,,,,,,,,4,6,0,1,2025-02-06_13h02.45.189,rtmindeye,2024.2.4,None,2025-02-06 13h03.01.541102 -0500
practice_images/w_monument2.jpg,9,0,9,9,0,None,0,None,,,,,,,,,,,,,,,,,,,,0,9,9,9,,,,,,,,,1.1832693749893224,,,,,,,1.1689857919991482,1.1690862079994986,None,0,None,,,,,,,,,,,,,,,,,,,,,,,,,,,,,,,,,,,,,,,,,,4,6,0,1,2025-02-06_13h02.45.189,rtmindeye,2024.2.4,None,2025-02-06 13h03.01.541102 -0500
,,,,,,,,,,,,,,,,,,,,,,,,,,,,,,,,,,,,,,,,,,,,,,,,,,,,1.178678416996263,1.1787066249962663,None,,,,,,,,,,,,,,,,,,,,,,,,,,,,,,,,,,,,,,,4,6,0,1,2025-02-06_13h02.45.189,rtmindeye,2024.2.4,None,2025-02-06 13h03.01.541102 -0500
,,,,,,,,,,,,,,,,,,,,,,,,,,,,,,,,,,,,,,,,,,,,,,,,,,,,,,,1.1787242499995045,1.1832693749893224,1.1832693749893224,102.1149467919895,equal,100.74895841599209,None,,,,,,,,,,,,,,,,,,,,,,,,,,,,,,,,4,6,0,1,2025-02-06_13h02.45.189,rtmindeye,2024.2.4,None,2025-02-06 13h03.01.541102 -0500
all_stimuli/special515/special_13613.jpg,0,0,0,0,0,,,,0,0,0,6,1,"[9, 21, 31, 45, 56, 68, 69]",1,1,1.823915332002798,0.4189940420037601,None,None,None,,,,,,,,,,,0,0,0,0,0,0,0,0,102.48827658299706,,,,,,,,,,,,,,,,,,,,,,102.26443541698973,102.26451745799568,102.47797004198947,102.48827658299706,102.48827658299706,102.48827658299706,102.48827658299706,105.48264829198888,105.48264829198888,106.26592104199517,1,1,1.823915332002798,0.4189940420037601,None,106.26611570800014,106.26619399999618,None,106.26625779199821,106.26630449999357,None,,,,,,,,,,,4,6,0,1,2025-02-06_13h02.45.189,rtmindeye,2024.2.4,None,2025-02-06 13h03.01.541102 -0500
all_stimuli/shared1000_notspecial/notspecial_31049.png,1,0,1,1,0,,,,0,0,0,6,1,"[9, 21, 31, 45, 56, 68, 69]",1,1,0.9552881240088027,0.3230453750002198,None,None,None,,,,,,,,,,,0,0,0,0,0,1,1,1,106.44383645799826,,,,,,,,,,,,,,,,,,,,,,106.2667795419984,106.26697337499354,106.43586245799088,106.44383645799826,106.44383645799826,106.44383645799826,106.44383645799826,109.44278074998874,109.44278074998874,110.27077562500199,1,1,0.9552881240088027,0.3230453750002198,None,110.27099437499419,110.27106049998838,None,110.27111287499429,110.27115587500157,None,,,,,,,,,,,4,6,0,1,2025-02-06_13h02.45.189,rtmindeye,2024.2.4,None,2025-02-06 13h03.01.541102 -0500
all_stimuli/special515/special_28096.jpg,2,0,2,2,0,,,,0,0,0,6,1,"[9, 21, 31, 45, 56, 68, 69]",1,1,0.9330017909960588,0.2610323340049945,None,None,None,,,,,,,,,,,0,0,0,0,0,2,2,2,110.4071428749885,,,,,,,,,,,,,,,,,,,,,,110.27162412500184,110.27185620799719,110.4037404999981,110.4071428749885,110.4071428749885,110.4071428749885,110.4071428749885,113.40345512499334,113.40345512499334,114.28262908299803,1,1,0.9330017909960588,0.2610323340049945,None,114.28284099999291,114.28290795799694,None,114.28298299999733,114.28303341699939,None,,,,,,,,,,,4,6,0,1,2025-02-06_13h02.45.189,rtmindeye,2024.2.4,None,2025-02-06 13h03.01.541102 -0500
all_stimuli/shared1000_notspecial/notspecial_68471.png,3,0,3,3,0,,,,0,0,0,6,1,"[9, 21, 31, 45, 56, 68, 69]",1,1,0.7306087080069119,0.25493016598920804,None,None,None,,,,,,,,,,,0,0,0,0,0,3,3,3,114.46359054200002,,,,,,,,,,,,,,,,,,,,,,114.28356199999689,114.2837578329927,114.46002408298955,114.46359054200002,114.46359054200002,114.46359054200002,114.46359054200002,117.45189625000057,117.45189625000057,118.2862122499937,1,1,0.7306087080069119,0.25493016598920804,None,118.28633229200204,118.2863817079924,None,118.28642137499992,118.28645249998954,None,,,,,,,,,,,4,6,0,1,2025-02-06_13h02.45.189,rtmindeye,2024.2.4,None,2025-02-06 13h03.01.541102 -0500
all_stimuli/special515/special_15506.jpg,4,0,4,4,0,,,,0,0,0,6,1,"[9, 21, 31, 45, 56, 68, 69]",1,1,0.8354764999967301,0.30596245800552424,None,None,None,,,,,,,,,,,0,0,0,0,0,4,4,4,118.42570395799703,,,,,,,,,,,,,,,,,,,,,,118.28678554198996,118.28688975000114,118.42166758299572,118.42570395799703,118.42570395799703,118.42570395799703,118.42570395799703,121.42060070799198,121.42060070799198,122.29926416699891,1,1,0.8354764999967301,0.30596245800552424,None,122.29954304199782,122.29961766699853,None,122.29969266700209,122.29977512499318,None,,,,,,,,,,,4,6,0,1,2025-02-06_13h02.45.189,rtmindeye,2024.2.4,None,2025-02-06 13h03.01.541102 -0500
all_stimuli/MST_pairs1/pair_24_nsd_158_1_cocoid_2285.png,5,0,5,5,0,,,,0,0,0,6,1,"[9, 21, 31, 45, 56, 68, 69]",1,1,0.7728146660083439,0.33592087498982437,None,None,None,,,,,,,,,,,0,0,0,0,0,5,5,5,122.57341883299523,,,,,,,,,,,,,,,,,,,,,,122.30031049999525,122.30049074999988,122.56964545798837,122.57341883299523,122.57341883299523,122.57341883299523,122.57341883299523,125.58294670798932,125.58294670798932,126.30278437500237,1,1,0.7728146660083439,0.33592087498982437,None,126.30296612498933,126.30301666699233,None,126.30308141699061,126.30312124999182,None,,,,,,,,,,,4,6,0,1,2025-02-06_13h02.45.189,rtmindeye,2024.2.4,None,2025-02-06 13h03.01.541102 -0500
all_stimuli/MST_pairs1/pair_10_14_89.png,6,0,6,6,0,,,,0,0,0,6,1,"[9, 21, 31, 45, 56, 68, 69]",1,1,1.1424889159970917,0.4540413329959847,None,None,None,,,,,,,,,,,0,0,0,0,0,6,6,6,126.4676217919914,,,,,,,,,,,,,,,,,,,,,,126.30354699998861,126.3037956670014,126.46252395799092,126.4676217919914,126.4676217919914,126.4676217919914,126.4676217919914,129.46584749998874,129.46584749998874,130.3042806250014,1,1,1.1424889159970917,0.4540413329959847,None,130.30446324999502,130.30451308299962,None,130.30456550000235,130.30460358299024,None,,,,,,,,,,,4,6,0,1,2025-02-06_13h02.45.189,rtmindeye,2024.2.4,None,2025-02-06 13h03.01.541102 -0500
all_stimuli/special515/special_62015.jpg,7,0,7,7,0,,,,0,0,0,6,1,"[9, 21, 31, 45, 56, 68, 69]",1,1,0.6043424569943454,0.6630167920084205,None,None,None,,,,,,,,,,,0,0,0,0,0,7,7,7,130.47775766700215,,,,,,,,,,,,,,,,,,,,,,130.30502433299262,130.30525287499768,130.46729629200127,130.47775766700215,130.47775766700215,130.47775766700215,130.47775766700215,133.47036199999275,133.47036199999275,134.31605433300138,1,1,0.6043424569943454,0.6630167920084205,None,134.3162916250003,134.31641929199395,None,134.31652166700223,134.31665216699184,None,,,,,,,,,,,4,6,0,1,2025-02-06_13h02.45.189,rtmindeye,2024.2.4,None,2025-02-06 13h03.01.541102 -0500
all_stimuli/special515/special_47687.jpg,8,0,8,8,0,,,,0,0,0,6,1,"[9, 21, 31, 45, 56, 68, 69]",1,1,1.1852686240017647,0.9230561669974122,None,None,None,,,,,,,,,,,0,0,0,0,0,8,8,8,134.51482587499777,,,,,,,,,,,,,,,,,,,,,,134.3172502499947,134.31752062500163,134.5106514999934,134.51482587499777,134.51482587499777,134.51482587499777,134.51482587499777,137.5030764999974,137.5030764999974,138.33301279199077,1,1,1.1852686240017647,0.9230561669974122,None,138.3333095,138.33338187499612,None,138.3334457079909,138.3334909999976,None,,,,,,,,,,,4,6,0,1,2025-02-06_13h02.45.189,rtmindeye,2024.2.4,None,2025-02-06 13h03.01.541102 -0500
blank.jpg,9,1,9,9,0,,,,0,0,0,6,1,"[9, 21, 31, 45, 56, 68, 69]",None,0,,,None,None,None,,,,,,,,,,,0,0,0,0,0,9,9,9,138.4344528329966,,,,,,,,,,,,,,,,,,,,,,138.33399008298875,138.33419574999425,138.42876866699953,138.4344528329966,138.4344528329966,138.4344528329966,138.4344528329966,141.4324830419937,141.4324830419937,142.33651604199258,None,0,,,None,142.33667195799353,142.33672474999912,None,142.3367740419926,142.33682320799562,None,,,,,,,,,,,4,6,0,1,2025-02-06_13h02.45.189,rtmindeye,2024.2.4,None,2025-02-06 13h03.01.541102 -0500
all_stimuli/special515/special_4249.jpg,10,0,10,10,0,,,,0,0,0,6,1,"[9, 21, 31, 45, 56, 68, 69]",1,1,0.7580151250003837,0.3620232079993002,None,None,None,,,,,,,,,,,0,0,0,0,0,10,10,10,142.47818099999859,,,,,,,,,,,,,,,,,,,,,,142.33723333298985,142.3374513329909,142.46958320798876,142.47818099999859,142.47818099999859,142.47818099999859,142.47818099999859,145.4700155419996,145.4700155419996,146.3496752499923,1,1,0.7580151250003837,0.3620232079993002,None,146.34994587500114,146.35004958299396,None,146.35011029199813,146.35015037500125,None,,,,,,,,,,,4,6,0,1,2025-02-06_13h02.45.189,rtmindeye,2024.2.4,None,2025-02-06 13h03.01.541102 -0500
all_stimuli/special515/special_54361.jpg,11,0,11,11,0,,,,0,0,0,6,1,"[9, 21, 31, 45, 56, 68, 69]",1,1,0.7096124579984462,0.5260267499979818,None,None,None,,,,,,,,,,,0,0,0,0,0,11,11,11,146.48653062499943,,,,,,,,,,,,,,,,,,,,,,146.35060241699102,146.35079299999052,146.48180733299523,146.48653062499943,146.48653062499943,146.48653062499943,146.48653062499943,149.4824013329926,149.4824013329926,150.35287237499142,1,1,0.7096124579984462,0.5260267499979818,None,150.3530493750004,150.35309970799426,None,150.3531532920024,150.35319591699226,None,,,,,,,,,,,4,6,0,1,2025-02-06_13h02.45.189,rtmindeye,2024.2.4,None,2025-02-06 13h03.01.541102 -0500
all_stimuli/special515/special_6489.jpg,12,0,12,12,0,,,,0,0,0,6,1,"[9, 21, 31, 45, 56, 68, 69]",1,1,0.6658187079883646,0.2949918750091456,None,None,None,,,,,,,,,,,0,0,0,0,0,12,12,12,150.48739991699404,,,,,,,,,,,,,,,,,,,,,,150.35361900000134,150.35383820800052,150.48348079199786,150.48739991699404,150.48739991699404,150.48739991699404,150.48739991699404,153.48270541700185,153.48270541700185,154.36617916700197,1,1,0.6658187079883646,0.2949918750091456,None,154.36642033299722,154.36648470799264,None,154.36660216699238,154.36666829200112,None,,,,,,,,,,,4,6,0,1,2025-02-06_13h02.45.189,rtmindeye,2024.2.4,None,2025-02-06 13h03.01.541102 -0500
all_stimuli/special515/special_38641.jpg,13,0,13,13,0,,,,0,0,0,6,1,"[9, 21, 31, 45, 56, 68, 69]",1,1,0.6362961660051951,0.2569942499976605,None,None,None,,,,,,,,,,,0,0,0,0,0,13,13,13,154.51587395799288,,,,,,,,,,,,,,,,,,,,,,154.36717870799475,154.36738683299336,154.5072135829978,154.51587395799288,154.51587395799288,154.51587395799288,154.51587395799288,157.51602179199108,157.51602179199108,158.3705575829954,1,1,0.6362961660051951,0.2569942499976605,None,158.37074025000038,158.37080220799544,None,158.3708549169969,158.3708924579987,None,,,,,,,,,,,4,6,0,1,2025-02-06_13h02.45.189,rtmindeye,2024.2.4,None,2025-02-06 13h03.01.541102 -0500
all_stimuli/shared1000_notspecial/notspecial_67168.png,14,0,14,14,0,,,,0,0,0,6,1,"[9, 21, 31, 45, 56, 68, 69]",1,1,0.869516332,0.2860304170026211,None,None,None,,,,,,,,,,,0,0,0,0,0,14,14,14,158.55761120800162,,,,,,,,,,,,,,,,,,,,,,158.3713648749981,158.3715985000017,158.5522584579885,158.55761120800162,158.55761120800162,158.55761120800162,158.55761120800162,161.55347104198881,161.55347104198881,162.38262879199465,1,1,0.869516332,0.2860304170026211,None,162.3828595419909,162.38292633299716,None,162.38301166699966,162.38306349999039,None,,,,,,,,,,,4,6,0,1,2025-02-06_13h02.45.189,rtmindeye,2024.2.4,None,2025-02-06 13h03.01.541102 -0500
all_stimuli/shared1000_notspecial/notspecial_59079.png,15,0,15,15,0,,,,0,0,0,6,1,"[9, 21, 31, 45, 56, 68, 69]",1,1,0.9833100819960237,0.3250784999981988,None,None,None,,,,,,,,,,,0,0,0,0,0,15,15,15,162.55286433298897,,,,,,,,,,,,,,,,,,,,,,162.38356970799214,162.3837588329916,162.54878291700152,162.55286433298897,162.55286433298897,162.55286433298897,162.55286433298897,165.5494619999954,165.5494619999954,166.38643837498967,1,1,0.9833100819960237,0.3250784999981988,None,166.38658708299045,166.38663408299908,None,166.38668041699566,166.3867170829908,None,,,,,,,,,,,4,6,0,1,2025-02-06_13h02.45.189,rtmindeye,2024.2.4,None,2025-02-06 13h03.01.541102 -0500
all_stimuli/MST_pairs1/pair_2_4_89.png,16,0,16,16,0,,,,0,0,0,6,1,"[9, 21, 31, 45, 56, 68, 69]",1,1,0.7356063740007812,0.28395816701231524,None,None,None,,,,,,,,,,,0,0,0,0,0,16,16,16,166.6516010829946,,,,,,,,,,,,,,,,,,,,,,166.38707958300074,166.3872427919996,166.64111808298912,166.6516010829946,166.6516010829946,166.6516010829946,166.6516010829946,169.64923312499013,169.64923312499013,170.39945499999158,1,1,0.7356063740007812,0.28395816701231524,None,170.39967583298858,170.39974883299146,None,170.3998142079945,170.39986120798858,None,,,,,,,,,,,4,6,0,1,2025-02-06_13h02.45.189,rtmindeye,2024.2.4,None,2025-02-06 13h03.01.541102 -0500
all_stimuli/shared1000_notspecial/notspecial_26127.png,17,0,17,17,0,,,,0,0,0,6,1,"[9, 21, 31, 45, 56, 68, 69]",1,1,0.6074419990036404,0.3419644999958109,None,None,None,,,,,,,,,,,0,0,0,0,0,17,17,17,170.58670854198863,,,,,,,,,,,,,,,,,,,,,,170.40046287499717,170.40066541699343,170.58156854199478,170.58670854198863,170.58670854198863,170.58670854198863,170.58670854198863,173.58316570799798,173.58316570799798,174.40275470798952,1,1,0.6074419990036404,0.3419644999958109,None,174.40295891699498,174.40301041699422,None,174.40307049998955,174.4031134169927,None,,,,,,,,,,,4,6,0,1,2025-02-06_13h02.45.189,rtmindeye,2024.2.4,None,2025-02-06 13h03.01.541102 -0500
all_stimuli/shared1000_notspecial/notspecial_20223.png,18,0,18,18,0,,,,0,0,0,6,1,"[9, 21, 31, 45, 56, 68, 69]",1,1,0.8021400409925263,0.4499677919957321,None,None,None,,,,,,,,,,,0,0,0,0,0,18,18,18,174.56606404199556,,,,,,,,,,,,,,,,,,,,,,174.4035350829945,174.40375037500053,174.5599128749891,174.56606404199556,174.56606404199556,174.56606404199556,174.56606404199556,177.56668929199805,177.56668929199805,178.41627408299246,1,1,0.8021400409925263,0.4499677919957321,None,178.41654108298826,178.4166458749969,None,178.41672579199076,178.41684608299693,None,,,,,,,,,,,4,6,0,1,2025-02-06_13h02.45.189,rtmindeye,2024.2.4,None,2025-02-06 13h03.01.541102 -0500
all_stimuli/special515/special_62015.jpg,19,0,19,19,0,,,,1,0,0,6,1,"[9, 21, 31, 45, 56, 68, 69]",2,1,0.9545592070062412,0.4470387089968426,None,None,None,,,,,,,,,,,0,0,0,0,0,19,19,19,178.52663308299088,,,,,,,,,,,,,,,,,,,,,,178.4174739579903,178.4177399170003,178.51585474998865,178.52663308299088,178.52663308299088,178.52663308299088,178.52663308299088,181.52049895799428,181.52049895799428,182.42041758299456,2,1,0.9545592070062412,0.4470387089968426,None,182.42059791699285,182.42064862498955,None,182.42069774999982,182.4207359169959,None,,,,,,,,,,,4,6,0,1,2025-02-06_13h02.45.189,rtmindeye,2024.2.4,None,2025-02-06 13h03.01.541102 -0500
all_stimuli/special515/special_10244.jpg,20,0,20,20,0,,,,0,0,0,6,1,"[9, 21, 31, 45, 56, 68, 69]",1,1,0.8858568750001723,0.4559850829973584,None,None,None,,,,,,,,,,,0,0,0,0,0,20,20,20,182.54040537499532,,,,,,,,,,,,,,,,,,,,,,182.42117566699744,182.4213877919974,182.5360003329988,182.54040537499532,182.54040537499532,182.54040537499532,182.54040537499532,185.53639758299687,185.53639758299687,186.43272216699552,1,1,0.8858568750001723,0.4559850829973584,None,186.43295308300003,186.43301858298946,None,186.4330842079944,186.4331360419892,None,,,,,,,,,,,4,6,0,1,2025-02-06_13h02.45.189,rtmindeye,2024.2.4,None,2025-02-06 13h03.01.541102 -0500
blank.jpg,21,1,21,21,0,,,,0,0,0,6,1,"[9, 21, 31, 45, 56, 68, 69]",None,0,,,None,None,None,,,,,,,,,,,0,0,0,0,0,21,21,21,186.53095145800035,,,,,,,,,,,,,,,,,,,,,,186.43370495799172,186.43390299999737,186.52560541700223,186.53095145800035,186.53095145800035,186.53095145800035,186.53095145800035,189.5195414579939,189.5195414579939,190.44265516698943,None,0,,,None,190.4427746250003,190.44281579199014,None,190.44285145799222,190.4428765420016,None,,,,,,,,,,,4,6,0,1,2025-02-06_13h02.45.189,rtmindeye,2024.2.4,None,2025-02-06 13h03.01.541102 -0500
all_stimuli/special515/special_28524.jpg,22,0,22,22,0,,,,0,0,0,6,1,"[9, 21, 31, 45, 56, 68, 69]",1,1,1.082277541005169,0.3139196669944795,None,None,None,,,,,,,,,,,0,0,0,0,0,22,22,22,190.55996537499595,,,,,,,,,,,,,,,,,,,,,,190.44321366699296,190.4433677,190.55251741698885,190.55996537499595,190.55996537499595,190.55996537499595,190.55996537499595,193.55275929199706,193.55275929199706,194.44930849999946,1,1,1.082277541005169,0.3139196669944795,None,194.44950449999305,194.44959841699165,None,194.44968549998885,194.4497361669928,None,,,,,,,,,,,4,6,0,1,2025-02-06_13h02.45.189,rtmindeye,2024.2.4,None,2025-02-06 13h03.01.541102 -0500
all_stimuli/special515/special_30430.jpg,23,0,23,23,0,,,,0,0,0,6,1,"[9, 21, 31, 45, 56, 68, 69]",1,1,0.8292026659910334,0.30793204200745095,None,None,None,,,,,,,,,,,0,0,0,0,0,23,23,23,194.59608133300208,,,,,,,,,,,,,,,,,,,,,,194.45023079199018,194.45042708299297,194.5921725419903,194.59608133300208,194.59608133300208,194.59608133300208,194.59608133300208,197.58661050000228,197.58661050000228,198.45398983299674,1,1,0.8292026659910334,0.30793204200745095,None,198.45415241699084,198.4541982919909,None,198.4542572079954,198.45429104199866,None,,,,,,,,,,,4,6,0,1,2025-02-06_13h02.45.189,rtmindeye,2024.2.4,None,2025-02-06 13h03.01.541102 -0500
all_stimuli/MST_pairs1/pair_10_14_33.png,24,0,24,24,0,,,,0,0,0,6,1,"[9, 21, 31, 45, 56, 68, 69]",1,1,0.7153228320094058,0.3359950839949306,None,None,None,,,,,,,,,,,0,0,0,0,0,24,24,24,198.69296458299505,,,,,,,,,,,,,,,,,,,,,,198.45467266699416,198.4548879169888,198.68857704199036,198.69296458299505,198.69296458299505,198.69296458299505,198.69296458299505,201.68669204199978,201.68669204199978,202.46621174999746,1,1,0.7153228320094058,0.3359950839949306,None,202.46630691699102,202.4663392079965,None,202.4663858749991,202.4664106249984,None,,,,,,,,,,,4,6,0,1,2025-02-06_13h02.45.189,rtmindeye,2024.2.4,None,2025-02-06 13h03.01.541102 -0500
all_stimuli/shared1000_notspecial/notspecial_10907.png,25,0,25,25,0,,,,0,0,0,6,1,"[9, 21, 31, 45, 56, 68, 69]",1,1,0.6967571659915848,0.3290145420032786,None,None,None,,,,,,,,,,,0,0,0,0,0,25,25,25,202.63649404198804,,,,,,,,,,,,,,,,,,,,,,202.4666838,202.46677454200108,202.6320427499886,202.63649404198804,202.63649404198804,202.63649404198804,202.63649404198804,205.63250712498848,205.63250712498848,206.4707647079922,1,1,0.6967571659915848,0.3290145420032786,None,206.47093974999734,206.47099029200035,None,206.47105049999664,206.47109058299975,None,,,,,,,,,,,4,6,0,1,2025-02-06_13h02.45.189,rtmindeye,2024.2.4,None,2025-02-06 13h03.01.541102 -0500
all_stimuli/special515/special_22587.jpg,26,0,26,26,0,,,,0,0,0,6,1,"[9, 21, 31, 45, 56, 68, 69]",1,1,0.7647526660002768,0.2859358329878887,None,None,None,,,,,,,,,,,0,0,0,0,0,26,26,26,206.58647674998792,,,,,,,,,,,,,,,,,,,,,,206.47149362499476,206.47169799999392,206.5813722919993,206.58647674998792,206.58647674998792,206.58647674998792,206.58647674998792,209.58279624998977,209.58279624998977,210.4826739,1,1,0.7647526660002768,0.2859358329878887,None,210.48288195799978,210.48297462498886,None,210.4830513749912,210.48310016699543,None,,,,,,,,,,,4,6,0,1,2025-02-06_13h02.45.189,rtmindeye,2024.2.4,None,2025-02-06 13h03.01.541102 -0500
all_stimuli/special515/special_3687.jpg,27,0,27,27,0,,,,0,0,0,6,1,"[9, 21, 31, 45, 56, 68, 69]",1,1,0.6390302500076359,0.7469987910008058,None,None,None,,,,,,,,,,,0,0,0,0,0,27,27,27,210.61826295799983,,,,,,,,,,,,,,,,,,,,,,210.48359516699566,210.4837697079929,210.61438037500193,210.61826295799983,210.61826295799983,210.61826295799983,210.61826295799983,213.61594024999067,213.61594024999067,214.48438208299922,1,1,0.6390302500076359,0.7469987910008058,None,214.48450812499505,214.4845473329915,None,214.48458670800028,214.4846176669962,None,,,,,,,,,,,4,6,0,1,2025-02-06_13h02.45.189,rtmindeye,2024.2.4,None,2025-02-06 13h03.01.541102 -0500
all_stimuli/shared1000_notspecial/notspecial_58164.png,28,0,28,28,0,,,,0,0,0,6,1,"[9, 21, 31, 45, 56, 68, 69]",1,1,0.5679861250100657,0.22998083299899008,None,None,None,,,,,,,,,,,0,0,0,0,0,28,28,28,214.67923820800206,,,,,,,,,,,,,,,,,,,,,,214.48492387498845,214.4850317919918,214.67438050000055,214.67923820800206,214.67923820800206,214.67923820800206,214.67923820800206,217.66891804199258,217.66891804199258,218.4853207499982,1,1,0.5679861250100657,0.22998083299899008,None,218.48550070798956,218.48555595798825,None,218.48560145800002,218.48564329199144,None,,,,,,,,,,,4,6,0,1,2025-02-06_13h02.45.189,rtmindeye,2024.2.4,None,2025-02-06 13h03.01.541102 -0500
all_stimuli/special515/special_38494.jpg,29,0,29,29,0,,,,0,0,0,6,1,"[9, 21, 31, 45, 56, 68, 69]",1,1,0.756210583,0.33500866599206347,None,None,None,,,,,,,,,,,0,0,0,0,0,29,29,29,218.59598495799582,,,,,,,,,,,,,,,,,,,,,,218.48604095799965,218.48620062498958,218.5926927499968,218.59598495799582,218.59598495799582,218.59598495799582,218.59598495799582,221.58566266699927,221.58566266699927,222.48682999999437,1,1,0.756210583,0.33500866599206347,None,222.48703170799126,222.4870877499925,None,222.48715912499756,222.48720849999518,None,,,,,,,,,,,4,6,0,1,2025-02-06_13h02.45.189,rtmindeye,2024.2.4,None,2025-02-06 13h03.01.541102 -0500
all_stimuli/MST_pairs1/pair_12_16_22.png,30,0,30,30,0,,,,0,0,0,6,1,"[9, 21, 31, 45, 56, 68, 69]",1,1,0.7523209579958348,1.3129739170108223,None,None,None,,,,,,,,,,,0,0,0,0,0,30,30,30,222.66889295799774,,,,,,,,,,,,,,,,,,,,,,222.48767658299766,222.48792479198892,222.6654535419948,222.66889295799774,222.66889295799774,222.66889295799774,222.66889295799774,225.66557083299267,225.66557083299267,226.49915983299434,1,1,0.7523209579958348,1.3129739170108223,None,226.49950220799656,226.49970349999785,None,226.49984112499806,226.49994324998988,None,,,,,,,,,,,4,6,0,1,2025-02-06_13h02.45.189,rtmindeye,2024.2.4,None,2025-02-06 13h03.01.541102 -0500
blank.jpg,31,1,31,31,0,,,,0,0,0,6,1,"[9, 21, 31, 45, 56, 68, 69]",None,0,,,None,None,None,,,,,,,,,,,0,0,0,0,0,31,31,31,226.59400516698952,,,,,,,,,,,,,,,,,,,,,,226.50069633299427,226.50097483299032,226.59033341699978,226.59400516698952,226.59400516698952,226.59400516698952,226.59400516698952,229.58481120799843,229.58481120799843,230.5033312079904,None,0,,,None,230.5034751669882,230.50352808299067,None,230.50358624999353,230.50363341699995,None,,,,,,,,,,,4,6,0,1,2025-02-06_13h02.45.189,rtmindeye,2024.2.4,None,2025-02-06 13h03.01.541102 -0500
all_stimuli/special515/special_66489.jpg,32,0,32,32,0,,,,0,0,0,6,1,"[9, 21, 31, 45, 56, 68, 69]",1,1,1.1486893749970477,0.5099992500036024,None,None,None,,,,,,,,,,,0,0,0,0,0,32,32,32,230.70355154199933,,,,,,,,,,,,,,,,,,,,,,230.50402733299416,230.50419091699587,230.70013537499472,230.70355154199933,230.70355154199933,230.70355154199933,230.70355154199933,233.69927008300147,233.69927008300147,234.51609966700198,1,1,1.1486893749970477,0.5099992500036024,None,234.51633066700015,234.5164063330012,None,234.51648620799824,234.5165483749879,None,,,,,,,,,,,4,6,0,1,2025-02-06_13h02.45.189,rtmindeye,2024.2.4,None,2025-02-06 13h03.01.541102 -0500
all_stimuli/MST_pairs1/pair_28_nsd_547_1_cocoid_60932.png,33,0,33,33,0,,,,0,0,0,6,1,"[9, 21, 31, 45, 56, 68, 69]",1,1,0.9164557079930091,0.3089834999991581,None,None,None,,,,,,,,,,,0,0,0,0,0,33,33,33,234.7548344169918,,,,,,,,,,,,,,,,,,,,,,234.51711400000204,234.5173492920003,234.75143324999954,234.7548344169918,234.7548344169918,234.7548344169918,234.7548344169918,237.7519412499969,237.7519412499969,238.51864387499518,1,1,0.9164557079930091,0.3089834999991581,None,238.51881895799306,238.51887149999675,None,238.51892466699064,238.51897004200146,None,,,,,,,,,,,4,6,0,1,2025-02-06_13h02.45.189,rtmindeye,2024.2.4,None,2025-02-06 13h03.01.541102 -0500
all_stimuli/shared1000_notspecial/notspecial_46002.png,34,0,34,34,0,,,,0,0,0,6,1,"[9, 21, 31, 45, 56, 68, 69]",1,1,2.0009545829962008,0.5329931250016671,None,None,None,,,,,,,,,,,0,0,0,0,0,34,34,34,238.71029387498857,,,,,,,,,,,,,,,,,,,,,,238.51934687499306,238.51949174999027,238.70694191700022,238.71029387498857,238.71029387498857,238.71029387498857,238.71029387498857,241.70143066698802,241.70143066698802,242.5199356249941,1,1,2.0009545829962008,0.5329931250016671,None,242.52015133299574,242.52022649999708,None,242.5202999579924,242.52035745799367,None,,,,,,,,,,,4,6,0,1,2025-02-06_13h02.45.189,rtmindeye,2024.2.4,None,2025-02-06 13h03.01.541102 -0500
all_stimuli/special515/special_30632.jpg,35,0,35,35,0,,,,0,0,0,6,1,"[9, 21, 31, 45, 56, 68, 69]",1,1,1.4813134989963146,0.4410124590067426,None,None,None,,,,,,,,,,,0,0,0,0,0,35,35,35,242.65992974999244,,,,,,,,,,,,,,,,,,,,,,242.52091920799285,242.52112108300207,242.6566515829909,242.65992974999244,242.65992974999244,242.65992974999244,242.65992974999244,245.65211262500088,245.65211262500088,246.53254783299053,1,1,1.4813134989963146,0.4410124590067426,None,246.53282404199126,246.53300995800237,None,246.53320433299814,246.53329879199737,None,,,,,,,,,,,4,6,0,1,2025-02-06_13h02.45.189,rtmindeye,2024.2.4,None,2025-02-06 13h03.01.541102 -0500
all_stimuli/special515/special_31936.jpg,36,0,36,36,0,,,,0,0,0,6,1,"[9, 21, 31, 45, 56, 68, 69]",1,1,0.8592702070018277,0.7160209169960581,None,None,None,,,,,,,,,,,0,0,0,0,0,36,36,36,246.66895362499054,,,,,,,,,,,,,,,,,,,,,,246.53402558299422,246.53435554199677,246.66534174999106,246.66895362499054,246.66895362499054,246.66895362499054,246.66895362499054,249.66561333299614,249.66561333299614,250.5352394169895,1,1,0.8592702070018277,0.7160209169960581,None,250.53539395799453,250.5354418749921,None,250.53549912499147,250.5355373749917,None,,,,,,,,,,,4,6,0,1,2025-02-06_13h02.45.189,rtmindeye,2024.2.4,None,2025-02-06 13h03.01.541102 -0500
all_stimuli/MST_pairs1/pair_8_12_56.png,37,0,37,37,0,,,,0,0,0,6,1,"[9, 21, 31, 45, 56, 68, 69]",1,1,1.0323827910033287,0.9080323749949457,None,None,None,,,,,,,,,,,0,0,0,0,0,37,37,37,250.7078523,,,,,,,,,,,,,,,,,,,,,,250.53591829199286,250.53607608299353,250.7043811249896,250.7078523,250.7078523,250.7078523,250.7078523,253.70222483298858,253.70222483298858,254.5371703,1,1,1.0323827910033287,0.9080323749949457,None,254.53733395799645,254.53738654199697,None,254.53745524999977,254.53749766699912,None,,,,,,,,,,,4,6,0,1,2025-02-06_13h02.45.189,rtmindeye,2024.2.4,None,2025-02-06 13h03.01.541102 -0500
all_stimuli/special515/special_19074.jpg,38,0,38,38,0,,,,0,0,0,6,1,"[9, 21, 31, 45, 56, 68, 69]",1,1,2.2582411660114303,None,None,None,None,,,,,,,,,,,0,0,0,0,0,38,38,38,254.65105008298997,,,,,,,,,,,,,,,,,,,,,,254.53792379199876,254.5380828329944,254.64768695799285,254.65105008298997,254.65105008298997,254.65105008298997,254.65105008298997,257.6488694169966,257.6488694169966,258.5486816670018,1,1,2.2582411660114303,None,None,258.54885325000214,258.54890650000016,None,258.5489741249912,258.54902012499224,None,,,,,,,,,,,4,6,0,1,2025-02-06_13h02.45.189,rtmindeye,2024.2.4,None,2025-02-06 13h03.01.541102 -0500
all_stimuli/shared1000_notspecial/notspecial_42648.png,39,0,39,39,0,,,,0,0,0,6,1,"[9, 21, 31, 45, 56, 68, 69]",2,0,1.1674282500025583,0.9550106250098906,None,None,None,,,,,,,,,,,0,0,0,0,0,39,39,39,258.72180679198937,,,,,,,,,,,,,,,,,,,,,,258.5494911249989,258.5496671669971,258.7182870830002,258.72180679198937,258.72180679198937,258.72180679198937,258.72180679198937,261.72005224999157,261.72005224999157,262.55283220799174,2,0,1.1674282500025583,0.9550106250098906,None,262.5529956669925,262.5530480419984,None,262.5531059579953,262.5531482919905,None,,,,,,,,,,,4,6,0,1,2025-02-06_13h02.45.189,rtmindeye,2024.2.4,None,2025-02-06 13h03.01.541102 -0500
all_stimuli/MST_pairs1/pair_12_16_22.png,40,0,40,40,0,,,,1,0,0,6,1,"[9, 21, 31, 45, 56, 68, 69]",2,1,1.1469670410006074,1.3700143339956412,None,None,None,,,,,,,,,,,0,0,0,0,0,40,40,40,262.71037116699154,,,,,,,,,,,,,,,,,,,,,,262.5535532919894,262.55372245798935,262.70792962500127,262.71037116699154,262.71037116699154,262.71037116699154,262.71037116699154,265.7024119169946,265.7024119169946,266.56599208299303,2,1,1.1469670410006074,1.3700143339956412,None,266.5663527500001,266.56657870799245,None,266.5667013749917,266.56678929198824,None,,,,,,,,,,,4,6,0,1,2025-02-06_13h02.45.189,rtmindeye,2024.2.4,None,2025-02-06 13h03.01.541102 -0500
all_stimuli/shared1000_notspecial/notspecial_3951.png,41,0,41,41,0,,,,0,0,0,6,1,"[9, 21, 31, 45, 56, 68, 69]",1,1,0.9454953329986893,1.021982582999044,None,None,None,,,,,,,,,,,0,0,0,0,0,41,41,41,266.7517918329977,,,,,,,,,,,,,,,,,,,,,,266.56753995799227,266.56785729200055,266.74830937499064,266.7517918329977,266.7517918329977,266.7517918329977,266.7517918329977,269.74899016699055,269.74899016699055,270.5688161,1,1,0.9454953329986893,1.021982582999044,None,270.5689768750017,270.5690228329913,None,270.5690745419997,270.5691109170002,None,,,,,,,,,,,4,6,0,1,2025-02-06_13h02.45.189,rtmindeye,2024.2.4,None,2025-02-06 13h03.01.541102 -0500
all_stimuli/MST_pairs1/pair_12_16_78.png,42,0,42,42,0,,,,0,0,0,6,1,"[9, 21, 31, 45, 56, 68, 69]",1,1,1.1904057909996482,1.2679633749939967,None,None,None,,,,,,,,,,,0,0,0,0,0,42,42,42,270.76390733299195,,,,,,,,,,,,,,,,,,,,,,270.56947387498803,270.5696265419974,270.7602757,270.76390733299195,270.76390733299195,270.76390733299195,270.76390733299195,273.7534630829905,273.7534630829905,274.57004641699314,1,1,1.1904057909996482,1.2679633749939967,None,274.5702115000022,274.5702651669999,None,274.5703171669884,274.57036462498945,None,,,,,,,,,,,4,6,0,1,2025-02-06_13h02.45.189,rtmindeye,2024.2.4,None,2025-02-06 13h03.01.541102 -0500
all_stimuli/special515/special_11952.jpg,43,0,43,43,0,,,,0,0,0,6,1,"[9, 21, 31, 45, 56, 68, 69]",1,1,1.3084464160056086,0.8679831249901326,None,None,None,,,,,,,,,,,0,0,0,0,0,43,43,43,274.7068428749917,,,,,,,,,,,,,,,,,,,,,,274.5707794579939,274.57095737499185,274.7034144169884,274.7068428749917,274.7068428749917,274.7068428749917,274.7068428749917,277.70314037500066,277.70314037500066,278.58207020799455,1,1,1.3084464160056086,0.8679831249901326,None,278.5822384,278.5822919170023,None,278.58234699998866,278.5824001250003,None,,,,,,,,,,,4,6,0,1,2025-02-06_13h02.45.189,rtmindeye,2024.2.4,None,2025-02-06 13h03.01.541102 -0500
all_stimuli/MST_pairs1/pair_14_18_22.png,44,0,44,44,0,,,,0,0,0,6,1,"[9, 21, 31, 45, 56, 68, 69]",1,1,1.2401900830009254,0.6259945409983629,None,None,None,,,,,,,,,,,0,0,0,0,0,44,44,44,278.7831174999883,,,,,,,,,,,,,,,,,,,,,,278.5828542,278.58303287500166,278.77959762499086,278.7831174999883,278.7831174999883,278.7831174999883,278.7831174999883,281.7823458329949,281.7823458329949,282.5859038329945,1,1,1.2401900830009254,0.6259945409983629,None,282.5860654579883,282.58611662499607,None,282.58616345799237,282.5862005419913,None,,,,,,,,,,,4,6,0,1,2025-02-06_13h02.45.189,rtmindeye,2024.2.4,None,2025-02-06 13h03.01.541102 -0500
blank.jpg,45,1,45,45,0,,,,0,0,0,6,1,"[9, 21, 31, 45, 56, 68, 69]",None,0,,,None,None,None,,,,,,,,,,,0,0,0,0,0,45,45,45,282.6608503749885,,,,,,,,,,,,,,,,,,,,,,282.5865742499882,282.5867296249926,282.65708166699915,282.6608503749885,282.6608503749885,282.6608503749885,282.6608503749885,285.6529755419906,285.6529755419906,286.5993420829909,None,0,,,None,286.59967570799927,286.5998799169902,None,286.5999954579893,286.60008233299595,None,,,,,,,,,,,4,6,0,1,2025-02-06_13h02.45.189,rtmindeye,2024.2.4,None,2025-02-06 13h03.01.541102 -0500
all_stimuli/MST_pairs1/pair_16_20_56.png,46,0,46,46,0,,,,0,0,0,6,1,"[9, 21, 31, 45, 56, 68, 69]",1,1,1.0630252909904812,0.36499066700343974,None,None,None,,,,,,,,,,,0,0,0,0,0,46,46,46,286.78934216700145,,,,,,,,,,,,,,,,,,,,,,286.6008133,286.6011160420021,286.7859115829924,286.78934216700145,286.78934216700145,286.78934216700145,286.78934216700145,289.78562870799215,289.78562870799215,290.60317616700195,1,1,1.0630252909904812,0.36499066700343974,None,290.6033403749898,290.603398,None,290.60344974999316,290.6034960419929,None,,,,,,,,,,,4,6,0,1,2025-02-06_13h02.45.189,rtmindeye,2024.2.4,None,2025-02-06 13h03.01.541102 -0500
all_stimuli/special515/special_8933.jpg,47,0,47,47,0,,,,0,0,0,6,1,"[9, 21, 31, 45, 56, 68, 69]",1,1,1.1445353330054786,0.46102045799489133,None,None,None,,,,,,,,,,,0,0,0,0,0,47,47,47,290.76173929199285,,,,,,,,,,,,,,,,,,,,,,290.60390924999956,290.6040822079958,290.7579605419887,290.76173929199285,290.76173929199285,290.76173929199285,290.76173929199285,293.7525317499967,293.7525317499967,294.6156379169988,1,1,1.1445353330054786,0.46102045799489133,None,294.61587241699453,294.61595066699374,None,294.616078,294.61616341699846,None,,,,,,,,,,,4,6,0,1,2025-02-06_13h02.45.189,rtmindeye,2024.2.4,None,2025-02-06 13h03.01.541102 -0500
all_stimuli/MST_pairs1/pair_16_20_56.png,48,0,48,48,0,,,,1,0,0,6,1,"[9, 21, 31, 45, 56, 68, 69]",2,1,1.485728999003186,0.6139998339931481,None,None,None,,,,,,,,,,,0,0,0,0,0,48,48,48,294.7545827499998,,,,,,,,,,,,,,,,,,,,,,294.6167439580022,294.61692191699694,294.7511860419909,294.7545827499998,294.7545827499998,294.7545827499998,294.7545827499998,297.7521270419966,297.7521270419966,298.61901333299465,2,1,1.485728999003186,0.6139998339931481,None,298.61915433299146,298.6191962919984,None,298.6192374169914,298.6192699999956,None,,,,,,,,,,,4,6,0,1,2025-02-06_13h02.45.189,rtmindeye,2024.2.4,None,2025-02-06 13h03.01.541102 -0500
all_stimuli/special515/special_5034.jpg,49,0,49,49,0,,,,0,0,0,6,1,"[9, 21, 31, 45, 56, 68, 69]",1,1,1.268189374008216,0.39699716700124554,None,None,None,,,,,,,,,,,0,0,0,0,0,49,49,49,298.72213154198835,,,,,,,,,,,,,,,,,,,,,,298.6196172919881,298.61975237500155,298.7186706249922,298.72213154198835,298.72213154198835,298.72213154198835,298.72213154198835,301.7189631,301.7189631,302.62070324999513,1,1,1.268189374008216,0.39699716700124554,None,302.6208958329953,302.6209584999888,None,302.6210177,302.62106154199864,None,,,,,,,,,,,4,6,0,1,2025-02-06_13h02.45.189,rtmindeye,2024.2.4,None,2025-02-06 13h03.01.541102 -0500
all_stimuli/MST_pairs1/pair_16_20_0.png,50,0,50,50,0,,,,0,0,0,6,1,"[9, 21, 31, 45, 56, 68, 69]",1,1,1.8787711659970228,0.3829944169992814,None,None,None,,,,,,,,,,,0,0,0,0,0,50,50,50,302.8115751250007,,,,,,,,,,,,,,,,,,,,,,302.62150462499994,302.62166995799635,302.8079284999985,302.8115751250007,302.8115751250007,302.8115751250007,302.8115751250007,305.8024848329951,305.8024848329951,306.6327735829982,1,1,1.8787711659970228,0.3829944169992814,None,306.63322079199133,306.6333351669891,None,306.6334368749958,306.63351758298813,None,,,,,,,,,,,4,6,0,1,2025-02-06_13h02.45.189,rtmindeye,2024.2.4,None,2025-02-06 13h03.01.541102 -0500
all_stimuli/MST_pairs1/pair_46_w_pool2.jpg,51,0,51,51,0,,,,0,0,0,6,1,"[9, 21, 31, 45, 56, 68, 69]",1,1,0.9238019569893368,0.33698937500594184,None,None,None,,,,,,,,,,,0,0,0,0,0,51,51,51,306.74264437500096,,,,,,,,,,,,,,,,,,,,,,306.63427941699047,306.63457129200106,306.74058679200243,306.74264437500096,306.74264437500096,306.74264437500096,306.74264437500096,309.73510949999036,309.73510949999036,310.6362254580017,1,1,0.9238019569893368,0.33698937500594184,None,310.63639541699376,310.6364621249959,None,310.63651983300224,310.63656191699556,None,,,,,,,,,,,4,6,0,1,2025-02-06_13h02.45.189,rtmindeye,2024.2.4,None,2025-02-06 13h03.01.541102 -0500
all_stimuli/special515/special_62228.jpg,52,0,52,52,0,,,,0,0,0,6,1,"[9, 21, 31, 45, 56, 68, 69]",1,1,0.7865679579990683,0.3509911660075886,None,None,None,,,,,,,,,,,0,0,0,0,0,52,52,52,310.7737831669947,,,,,,,,,,,,,,,,,,,,,,310.6370079999906,310.63716324999405,310.77046612498816,310.7737831669947,310.7737831669947,310.7737831669947,310.7737831669947,313.7683592,313.7683592,314.6496230420016,1,1,0.7865679579990683,0.3509911660075886,None,314.64998220799316,314.6501415829989,None,314.65023624998867,314.65030258298793,None,,,,,,,,,,,4,6,0,1,2025-02-06_13h02.45.189,rtmindeye,2024.2.4,None,2025-02-06 13h03.01.541102 -0500
all_stimuli/MST_pairs1/pair_40_w_escalator2.jpg,53,0,53,53,0,,,,0,0,0,6,1,"[9, 21, 31, 45, 56, 68, 69]",1,1,0.7215282079996541,0.3009877080039587,None,None,None,,,,,,,,,,,0,0,0,0,0,53,53,53,314.7718595829938,,,,,,,,,,,,,,,,,,,,,,314.6508477499883,314.65107125000213,314.7684130830021,314.7718595829938,314.7718595829938,314.7718595829938,314.7718595829938,317.76820462499745,317.76820462499745,318.65346516699356,1,1,0.7215282079996541,0.3009877080039587,None,318.65363762500056,318.6536894579913,None,318.6537500830018,318.6537921669951,None,,,,,,,,,,,4,6,0,1,2025-02-06_13h02.45.189,rtmindeye,2024.2.4,None,2025-02-06 13h03.01.541102 -0500
all_stimuli/MST_pairs1/pair_20_nsd_41_2_cocoid_63715.png,54,0,54,54,0,,,,0,0,0,6,1,"[9, 21, 31, 45, 56, 68, 69]",1,1,2.190237500006333,0.5049876249977387,None,None,None,,,,,,,,,,,0,0,0,0,0,54,54,54,318.8990657079994,,,,,,,,,,,,,,,,,,,,,,318.6542117,318.6543739579938,318.8950764579931,318.8990657079994,318.8990657079994,318.8990657079994,318.8990657079994,321.885682,321.885682,322.6656671669916,1,1,2.190237500006333,0.5049876249977387,None,322.66588041700015,322.6660102499882,None,322.6661057500023,322.6662136669911,None,,,,,,,,,,,4,6,0,1,2025-02-06_13h02.45.189,rtmindeye,2024.2.4,None,2025-02-06 13h03.01.541102 -0500
all_stimuli/shared1000_notspecial/notspecial_22155.png,55,0,55,55,0,,,,0,0,0,6,1,"[9, 21, 31, 45, 56, 68, 69]",1,1,0.6404924569942523,0.3950022089993581,None,None,None,,,,,,,,,,,0,0,0,0,0,55,55,55,322.8498786249984,,,,,,,,,,,,,,,,,,,,,,322.6667492080014,322.6669669999974,322.8463938329951,322.8498786249984,322.8498786249984,322.8498786249984,322.8498786249984,325.8363118749985,325.8363118749985,326.66904149999027,1,1,0.6404924569942523,0.3950022089993581,None,326.6691882079904,326.66923479198886,None,326.6692797919968,326.66932691699185,None,,,,,,,,,,,4,6,0,1,2025-02-06_13h02.45.189,rtmindeye,2024.2.4,None,2025-02-06 13h03.01.541102 -0500
blank.jpg,56,1,56,56,0,,,,0,0,0,6,1,"[9, 21, 31, 45, 56, 68, 69]",None,0,,,None,None,None,,,,,,,,,,,0,0,0,0,0,56,56,56,326.80456541699823,,,,,,,,,,,,,,,,,,,,,,326.6697105,326.66985445799946,326.80097650000243,326.80456541699823,326.80456541699823,326.80456541699823,326.80456541699823,329.8016984579881,329.8016984579881,330.6830209999898,None,0,,,None,330.6833880829945,330.68346620799275,None,330.6835367,330.6836046669923,None,,,,,,,,,,,4,6,0,1,2025-02-06_13h02.45.189,rtmindeye,2024.2.4,None,2025-02-06 13h03.01.541102 -0500
all_stimuli/special515/special_11617.jpg,57,0,57,57,0,,,,0,0,0,6,1,"[9, 21, 31, 45, 56, 68, 69]",1,1,0.9817694160010433,0.24797579100413714,None,None,None,,,,,,,,,,,0,0,0,0,0,57,57,57,330.81567683299363,,,,,,,,,,,,,,,,,,,,,,330.68414512499294,330.68436445799307,330.8124351250008,330.81567683299363,330.81567683299363,330.81567683299363,330.81567683299363,333.8029678749881,333.8029678749881,334.6878804579901,1,1,0.9817694160010433,0.24797579100413714,None,334.6880557080003,334.68810637498973,None,334.68816837499617,334.68820499999856,None,,,,,,,,,,,4,6,0,1,2025-02-06_13h02.45.189,rtmindeye,2024.2.4,None,2025-02-06 13h03.01.541102 -0500
all_stimuli/MST_pairs1/pair_14_18_22.png,58,0,58,58,0,,,,1,0,0,6,1,"[9, 21, 31, 45, 56, 68, 69]",2,1,1.5852847490023123,0.38305908399343025,None,None,None,,,,,,,,,,,0,0,0,0,0,58,58,58,334.80120670799806,,,,,,,,,,,,,,,,,,,,,,334.6886235419952,334.6888175829954,334.7975926,334.80120670799806,334.80120670799806,334.80120670799806,334.80120670799806,337.7993967499933,337.7993967499933,338.6994058749988,2,1,1.5852847490023123,0.38305908399343025,None,338.6995844579942,338.69964645800064,None,338.6996986669983,338.6997352079925,None,,,,,,,,,,,4,6,0,1,2025-02-06_13h02.45.189,rtmindeye,2024.2.4,None,2025-02-06 13h03.01.541102 -0500
all_stimuli/shared1000_notspecial/notspecial_63081.png,59,0,59,59,0,,,,0,0,0,6,1,"[9, 21, 31, 45, 56, 68, 69]",1,1,1.8463018740003463,0.2979340419988148,None,None,None,,,,,,,,,,,0,0,0,0,0,59,59,59,338.88216304199887,,,,,,,,,,,,,,,,,,,,,,338.70017516698863,338.7003478330007,338.87623191699095,338.88216304199887,338.88216304199887,338.88216304199887,338.88216304199887,341.87031320799724,341.87031320799724,342.7037335829955,1,1,1.8463018740003463,0.2979340419988148,None,342.7039130829944,342.70396729199274,None,342.7040120419988,342.70404583300115,None,,,,,,,,,,,4,6,0,1,2025-02-06_13h02.45.189,rtmindeye,2024.2.4,None,2025-02-06 13h03.01.541102 -0500
all_stimuli/MST_pairs1/pair_42_w_icerink2.jpg,60,0,60,60,0,,,,0,0,0,6,1,"[9, 21, 31, 45, 56, 68, 69]",1,1,0.779984583,0.2389772919996176,None,None,None,,,,,,,,,,,0,0,0,0,0,60,60,60,342.8135399999883,,,,,,,,,,,,,,,,,,,,,,342.7044342500012,342.70463266699517,342.80870850000065,342.8135399999883,342.8135399999883,342.8135399999883,342.8135399999883,345.8033129169926,345.8033129169926,346.7163587919931,1,1,0.779984583,0.2389772919996176,None,346.7166071249958,346.7166949999955,None,346.7167679580016,346.71681333299784,None,,,,,,,,,,,4,6,0,1,2025-02-06_13h02.45.189,rtmindeye,2024.2.4,None,2025-02-06 13h03.01.541102 -0500
all_stimuli/MST_pairs1/pair_46_w_pool1.jpg,61,0,61,61,0,,,,0,0,0,6,1,"[9, 21, 31, 45, 56, 68, 69]",2,0,1.2030212079989724,0.5010001250047935,None,None,None,,,,,,,,,,,0,0,0,0,0,61,61,61,346.8503223329899,,,,,,,,,,,,,,,,,,,,,,346.7173593329935,346.71755049999047,346.8446474579978,346.8503223329899,346.8503223329899,346.8503223329899,346.8503223329899,349.8378789999988,349.8378789999988,350.71963870798936,2,0,1.2030212079989724,0.5010001250047935,None,350.71981850000157,350.7198776669975,None,350.71992595799384,350.71996333300194,None,,,,,,,,,,,4,6,0,1,2025-02-06_13h02.45.189,rtmindeye,2024.2.4,None,2025-02-06 13h03.01.541102 -0500
all_stimuli/special515/special_40840.jpg,62,0,62,62,0,,,,0,0,0,6,1,"[9, 21, 31, 45, 56, 68, 69]",1,1,1.2035174990014639,0.42002979200333357,None,None,None,,,,,,,,,,,0,0,0,0,0,62,62,62,350.8629122499988,,,,,,,,,,,,,,,,,,,,,,350.72039454198966,350.7206152919971,350.85737845799304,350.8629122499988,350.8629122499988,350.8629122499988,350.8629122499988,353.8675959579996,353.8675959579996,354.73309679199883,1,1,1.2035174990014639,0.42002979200333357,None,354.73336183300125,354.7334465000022,None,354.7335684169957,354.7336321249895,None,,,,,,,,,,,4,6,0,1,2025-02-06_13h02.45.189,rtmindeye,2024.2.4,None,2025-02-06 13h03.01.541102 -0500
all_stimuli/special515/special_29837.jpg,63,0,63,63,0,,,,0,0,0,6,1,"[9, 21, 31, 45, 56, 68, 69]",1,1,1.7377770410093945,0.2750066249864176,None,None,None,,,,,,,,,,,0,0,0,0,0,63,63,63,354.84779779199744,,,,,,,,,,,,,,,,,,,,,,354.73428045799665,354.73451541698887,354.8443001,354.84779779199744,354.84779779199744,354.84779779199744,354.84779779199744,357.8365534170007,357.8365534170007,358.73620583298907,1,1,1.7377770410093945,0.2750066249864176,None,358.73643987499236,358.73649970800034,None,358.73656729199865,358.73662162499386,None,,,,,,,,,,,4,6,0,1,2025-02-06_13h02.45.189,rtmindeye,2024.2.4,None,2025-02-06 13h03.01.541102 -0500
all_stimuli/shared1000_notspecial/notspecial_4768.png,64,0,64,64,0,,,,0,0,0,6,1,"[9, 21, 31, 45, 56, 68, 69]",1,1,1.0474767490086379,0.41602799999236595,None,None,None,,,,,,,,,,,0,0,0,0,0,64,64,64,358.9820051669958,,,,,,,,,,,,,,,,,,,,,,358.73721049999585,358.73746316699544,358.9765064999956,358.9820051669958,358.9820051669958,358.9820051669958,358.9820051669958,361.9698242919985,361.9698242919985,362.7498719169962,1,1,1.0474767490086379,0.41602799999236595,None,362.75014399999054,362.75026437499037,None,362.75035470799776,362.7504227499885,None,,,,,,,,,,,4,6,0,1,2025-02-06_13h02.45.189,rtmindeye,2024.2.4,None,2025-02-06 13h03.01.541102 -0500
all_stimuli/MST_pairs1/pair_20_nsd_41_1_cocoid_15472.png,65,0,65,65,0,,,,0,0,0,6,1,"[9, 21, 31, 45, 56, 68, 69]",1,1,2.4706403739983216,None,None,None,None,,,,,,,,,,,0,0,0,0,0,65,65,65,362.9798496250005,,,,,,,,,,,,,,,,,,,,,,362.75113187498937,362.7514008750004,362.9718492,362.9798496250005,362.9798496250005,362.9798496250005,362.9798496250005,365.9682559169887,365.9682559169887,366.7538618,1,1,2.4706403739983216,None,None,366.75402183299593,366.7540748749889,None,366.7541210420022,366.75415920799423,None,,,,,,,,,,,4,6,0,1,2025-02-06_13h02.45.189,rtmindeye,2024.2.4,None,2025-02-06 13h03.01.541102 -0500
all_stimuli/shared1000_notspecial/notspecial_53157.png,66,0,66,66,0,,,,0,0,0,6,1,"[9, 21, 31, 45, 56, 68, 69]",1,1,2.1032454159867484,0.4010244580131257,None,None,None,,,,,,,,,,,0,0,0,0,0,66,66,66,366.9241705000022,,,,,,,,,,,,,,,,,,,,,,366.75455866700213,366.7547461669892,366.91882087499835,366.9241705000022,366.9241705000022,366.9241705000022,366.9241705000022,369.92133504198864,369.92133504198864,370.76642504199117,1,1,2.1032454159867484,0.4010244580131257,None,370.7666561669903,370.76672895799857,None,370.76679366698954,370.7668372499902,None,,,,,,,,,,,4,6,0,1,2025-02-06_13h02.45.189,rtmindeye,2024.2.4,None,2025-02-06 13h03.01.541102 -0500
all_stimuli/special515/special_38641.jpg,67,0,67,67,0,,,,1,0,0,6,1,"[9, 21, 31, 45, 56, 68, 69]",2,1,1.2094455829937942,0.5080042500048876,None,None,None,,,,,,,,,,,0,0,0,0,0,67,67,67,370.87299925000116,,,,,,,,,,,,,,,,,,,,,,370.7673933749902,370.7675955829909,370.8675342919887,370.87299925000116,370.87299925000116,370.87299925000116,370.87299925000116,373.8696766249923,373.8696766249923,374.7706716249959,2,1,1.2094455829937942,0.5080042500048876,None,374.7708547499933,374.7709032499988,None,374.77095929200004,374.7709990829899,None,,,,,,,,,,,4,6,0,1,2025-02-06_13h02.45.189,rtmindeye,2024.2.4,None,2025-02-06 13h03.01.541102 -0500
blank.jpg,68,1,68,68,0,,,,0,0,0,6,1,"[9, 21, 31, 45, 56, 68, 69]",None,0,,,None,None,None,,,,,,,,,,,0,0,0,0,0,68,68,68,374.8565045419964,,,,,,,,,,,,,,,,,,,,,,374.7714411670022,374.7716639579885,374.85109445799026,374.8565045419964,374.8565045419964,374.8565045419964,374.8565045419964,377.85429491699324,377.85429491699324,378.7844949999999,None,0,,,None,378.7845725829975,378.78459504200146,None,378.7846169169934,378.78463137499057,None,,,,,,,,,,,4,6,0,1,2025-02-06_13h02.45.189,rtmindeye,2024.2.4,None,2025-02-06 13h03.01.541102 -0500
blank.jpg,69,1,69,69,0,,,,0,1,0,6,0,"[9, 21, 31, 45, 56, 68, 69]",None,0,,,None,1,equal,17.79198166599963,None,21.289181083004223,None,,,,,,,0,0,0,0,0,69,69,69,378.8468035419937,,,,,,,,,,,,,,,,,,,,,,378.7848076,378.7848729999969,378.84172424999997,378.8468035419937,378.8468035419937,378.8468035419937,378.8468035419937,381.8372942080023,381.8372942080023,382.7863432919985,None,0,,,None,382.8048282499949,400.60370191698894,1,400.6038058749982,421.91924412499066,equal,382.8086344579933,382.8086344579933,17.79198166599963,None,400.6154679579922,400.6154679579922,21.289181083004223,None,,,4,6,0,1,2025-02-06_13h02.45.189,rtmindeye,2024.2.4,None,2025-02-06 13h03.01.541102 -0500
,,,0,0,0,,,,,,,,,,,,,,,,,,,,,,,,,,,0,0,0,0,,,,,,,,,,,,,,,,,,,,,,,,,,,,,,,,,,,,,,,,,,,,,,,,,,,,,,,,,,4,6,0,1,2025-02-06_13h02.45.189,rtmindeye,2024.2.4,None,2025-02-06 13h03.01.541102 -0500
all_stimuli/special515/special_71450.jpg,0,0,0,0,0,,,,0,0,1,6,1,"[9, 21, 31, 45, 56, 68, 69]",1,1,0.9895745829999214,0.3370097500010161,None,None,None,,,,,,,,,,,1,0,1,0,0,0,0,0,422.26099945799797,,,,,,,,,,,,,,,,,,,,,,422.07789620799304,422.0782648329914,422.2552579579933,422.26099945799797,422.26099945799797,422.26099945799797,422.26099945799797,425.2530302919913,425.2530302919913,426.08287412500067,1,1,0.9895745829999214,0.3370097500010161,None,426.08319429199037,426.0833461250004,None,426.0835326249944,426.0836383749993,None,,,,,,,,,,,4,6,0,1,2025-02-06_13h02.45.189,rtmindeye,2024.2.4,None,2025-02-06 13h03.01.541102 -0500
all_stimuli/special515/special_38246.jpg,1,0,1,1,0,,,,0,0,1,6,1,"[9, 21, 31, 45, 56, 68, 69]",1,1,0.7524090410006465,0.2060365420038579,None,None,None,,,,,,,,,,,1,0,1,0,0,1,1,1,426.2020760000014,,,,,,,,,,,,,,,,,,,,,,426.0844074170018,426.0846879999881,426.1975658750016,426.2020760000014,426.2020760000014,426.2020760000014,426.2020760000014,429.19926824999857,429.19926824999857,430.0854658,1,1,0.7524090410006465,0.2060365420038579,None,430.0856313330005,430.08568962498975,None,430.0857355,430.08578091699746,None,,,,,,,,,,,4,6,0,1,2025-02-06_13h02.45.189,rtmindeye,2024.2.4,None,2025-02-06 13h03.01.541102 -0500
all_stimuli/special515/special_10046.jpg,2,0,2,2,0,,,,0,0,1,6,1,"[9, 21, 31, 45, 56, 68, 69]",1,1,0.692842541,0.37804883399803657,None,None,None,,,,,,,,,,,1,0,1,0,0,2,2,2,430.2126443,,,,,,,,,,,,,,,,,,,,,,430.0861835830001,430.08633337500214,430.2091066669964,430.2126443,430.2126443,430.2126443,430.2126443,433.20330529200146,433.20330529200146,434.0992776669882,1,1,0.692842541,0.37804883399803657,None,434.09955191699555,434.0996189169964,None,434.09967537499324,434.09973229200114,None,,,,,,,,,,,4,6,0,1,2025-02-06_13h02.45.189,rtmindeye,2024.2.4,None,2025-02-06 13h03.01.541102 -0500
all_stimuli/MST_pairs1/pair_38_w_arch2.jpg,3,0,3,3,0,,,,0,0,1,6,1,"[9, 21, 31, 45, 56, 68, 69]",1,1,0.6571198320016265,0.3269979169999715,None,None,None,,,,,,,,,,,1,0,1,0,0,3,3,3,434.2283904,,,,,,,,,,,,,,,,,,,,,,434.1001941669965,434.10036320799554,434.22482462499465,434.2283904,434.2283904,434.2283904,434.2283904,437.2190526249906,437.2190526249906,438.1026728329889,1,1,0.6571198320016265,0.3269979169999715,None,438.10283016700123,438.1028798749903,None,438.10292554199987,438.10296116699465,None,,,,,,,,,,,4,6,0,1,2025-02-06_13h02.45.189,rtmindeye,2024.2.4,None,2025-02-06 13h03.01.541102 -0500
all_stimuli/special515/special_30395.jpg,4,0,4,4,0,,,,0,0,1,6,1,"[9, 21, 31, 45, 56, 68, 69]",1,1,0.8198102080059471,0.5279659579973668,None,None,None,,,,,,,,,,,1,0,1,0,0,4,4,4,438.2127827919903,,,,,,,,,,,,,,,,,,,,,,438.1033314,438.10346749999735,438.20948545799183,438.2127827919903,438.2127827919903,438.2127827919903,438.2127827919903,441.20326924999245,441.20326924999245,442.1040112920018,1,1,0.8198102080059471,0.5279659579973668,None,442.1041634,442.10420733298815,None,442.10424899999634,442.10428149999643,None,,,,,,,,,,,4,6,0,1,2025-02-06_13h02.45.189,rtmindeye,2024.2.4,None,2025-02-06 13h03.01.541102 -0500
all_stimuli/special515/special_38494.jpg,5,0,5,5,0,,,,1,0,1,6,1,"[9, 21, 31, 45, 56, 68, 69]",2,1,1.419126498993137,0.5579914170084521,None,None,None,,,,,,,,,,,1,0,1,0,0,5,5,5,442.1954168749944,,,,,,,,,,,,,,,,,,,,,,442.10461958299857,442.1047713329899,442.19190354199964,442.1954168749944,442.1954168749944,442.1954168749944,442.1954168749944,445.18675970799814,445.18675970799814,446.1164605,2,1,1.419126498993137,0.5579914170084521,None,446.1166847919958,446.1167690829898,None,446.11686075000034,446.11691787499876,None,,,,,,,,,,,4,6,0,1,2025-02-06_13h02.45.189,rtmindeye,2024.2.4,None,2025-02-06 13h03.01.541102 -0500
all_stimuli/MST_pairs1/pair_28_nsd_547_1_cocoid_60932.png,6,0,6,6,0,,,,1,0,1,6,1,"[9, 21, 31, 45, 56, 68, 69]",1,0,0.8981177910027327,0.6189990419952665,None,None,None,,,,,,,,,,,1,0,1,0,0,6,6,6,446.20352062500024,,,,,,,,,,,,,,,,,,,,,,446.11757170798955,446.11780445800105,446.20150399999693,446.20352062500024,446.20352062500024,446.20352062500024,446.20352062500024,449.1991370829928,449.1991370829928,450.12003487499896,1,0,0.8981177910027327,0.6189990419952665,None,450.1201972080016,450.1202564999985,None,450.1203122079896,450.1203605829942,None,,,,,,,,,,,4,6,0,1,2025-02-06_13h02.45.189,rtmindeye,2024.2.4,None,2025-02-06 13h03.01.541102 -0500
all_stimuli/special515/special_61133.jpg,7,0,7,7,0,,,,0,0,1,6,1,"[9, 21, 31, 45, 56, 68, 69]",1,1,0.9089002499968046,0.32297745799587574,None,None,None,,,,,,,,,,,1,0,1,0,0,7,7,7,450.2536726249964,,,,,,,,,,,,,,,,,,,,,,450.1207937500003,450.12096333299996,450.25032879199716,450.2536726249964,450.2536726249964,450.2536726249964,450.2536726249964,453.2522524579981,453.2522524579981,454.13293795799837,1,1,0.9089002499968046,0.32297745799587574,None,454.1331637080002,454.1332395419886,None,454.1333153329906,454.1334390419943,None,,,,,,,,,,,4,6,0,1,2025-02-06_13h02.45.189,rtmindeye,2024.2.4,None,2025-02-06 13h03.01.541102 -0500
all_stimuli/shared1000_notspecial/notspecial_16635.png,8,0,8,8,0,,,,0,0,1,6,1,"[9, 21, 31, 45, 56, 68, 69]",1,1,0.7264948749943869,0.3330192080029519,None,None,None,,,,,,,,,,,1,0,1,0,0,8,8,8,454.3920658749994,,,,,,,,,,,,,,,,,,,,,,454.1340752919932,454.1342822919978,454.3885608,454.3920658749994,454.3920658749994,454.3920658749994,454.3920658749994,457.3857631,457.3857631,458.13705504199606,1,1,0.7264948749943869,0.3330192080029519,None,458.13721987498866,458.13727766698867,None,458.1373341669969,458.13738529199327,None,,,,,,,,,,,4,6,0,1,2025-02-06_13h02.45.189,rtmindeye,2024.2.4,None,2025-02-06 13h03.01.541102 -0500
blank.jpg,9,1,9,9,0,,,,0,0,1,6,1,"[9, 21, 31, 45, 56, 68, 69]",None,0,,,None,None,None,,,,,,,,,,,1,0,1,0,0,9,9,9,458.2096255419892,,,,,,,,,,,,,,,,,,,,,,458.13780837500235,458.1379745000013,458.2061144170002,458.2096255419892,458.2096255419892,458.2096255419892,458.2096255419892,461.2030322079954,461.2030322079954,462.15014708299714,None,0,,,None,462.1504062919994,462.1505125419935,None,462.1506154999952,462.1506935829966,None,,,,,,,,,,,4,6,0,1,2025-02-06_13h02.45.189,rtmindeye,2024.2.4,None,2025-02-06 13h03.01.541102 -0500
all_stimuli/MST_pairs1/pair_18_nsd_6_1_cocoid_13417.png,10,0,10,10,0,,,,0,0,1,6,1,"[9, 21, 31, 45, 56, 68, 69]",1,1,0.9923923320020549,0.2770040000032168,None,None,None,,,,,,,,,,,1,0,1,0,0,10,10,10,462.3631919170002,,,,,,,,,,,,,,,,,,,,,,462.1514097920008,462.15171466699394,462.35975904199586,462.3631919170002,462.3631919170002,462.3631919170002,462.3631919170002,465.3525891249883,465.3525891249883,466.15210366700194,1,1,0.9923923320020549,0.2770040000032168,None,466.15224920799665,466.15229620799073,None,466.1523525419907,466.1523935419973,None,,,,,,,,,,,4,6,0,1,2025-02-06_13h02.45.189,rtmindeye,2024.2.4,None,2025-02-06 13h03.01.541102 -0500
all_stimuli/shared1000_notspecial/notspecial_21703.png,11,0,11,11,0,,,,0,0,1,6,1,"[9, 21, 31, 45, 56, 68, 69]",1,1,0.7033108320028987,0.30603741700178944,None,None,None,,,,,,,,,,,1,0,1,0,0,11,11,11,466.3352535000013,,,,,,,,,,,,,,,,,,,,,,466.1527716249984,466.15293024999846,466.3317272080021,466.3352535000013,466.3352535000013,466.3352535000013,466.3352535000013,469.3323746249953,469.3323746249953,470.16575704199204,1,1,0.7033108320028987,0.30603741700178944,None,470.1659343749925,470.1659957499942,None,470.1660644169897,470.1661077919998,None,,,,,,,,,,,4,6,0,1,2025-02-06_13h02.45.189,rtmindeye,2024.2.4,None,2025-02-06 13h03.01.541102 -0500
all_stimuli/special515/special_24530.jpg,12,0,12,12,0,,,,0,0,1,6,1,"[9, 21, 31, 45, 56, 68, 69]",1,1,0.9939202910027234,0.2740321659948677,None,None,None,,,,,,,,,,,1,0,1,0,0,12,12,12,470.2986572,,,,,,,,,,,,,,,,,,,,,,470.166659,470.16682541699265,470.29536891699536,470.2986572,470.2986572,470.2986572,470.2986572,473.28672008299327,473.28672008299327,474.17029529200227,1,1,0.9939202910027234,0.2740321659948677,None,474.1704542919906,474.17051291700045,None,474.17057491699234,474.1706164999923,None,,,,,,,,,,,4,6,0,1,2025-02-06_13h02.45.189,rtmindeye,2024.2.4,None,2025-02-06 13h03.01.541102 -0500
all_stimuli/shared1000_notspecial/notspecial_6222.png,13,0,13,13,0,,,,0,0,1,6,1,"[9, 21, 31, 45, 56, 68, 69]",1,1,0.7343364160042256,0.3880047090060543,None,None,None,,,,,,,,,,,1,0,1,0,0,13,13,13,474.3322628,,,,,,,,,,,,,,,,,,,,,,474.1710445829958,474.1712030829949,474.3288317080005,474.3322628,474.3322628,474.3322628,474.3322628,477.3198978750006,477.3198978750006,478.18258366698865,1,1,0.7343364160042256,0.3880047090060543,None,478.1828049169999,478.1829625419923,None,478.1830645829905,478.1831930420012,None,,,,,,,,,,,4,6,0,1,2025-02-06_13h02.45.189,rtmindeye,2024.2.4,None,2025-02-06 13h03.01.541102 -0500
all_stimuli/MST_pairs1/pair_44_w_log_cabin2.jpg,14,0,14,14,0,,,,0,0,1,6,1,"[9, 21, 31, 45, 56, 68, 69]",1,1,0.7364074579963926,0.33000808299402706,None,None,None,,,,,,,,,,,1,0,1,0,0,14,14,14,478.3162027079961,,,,,,,,,,,,,,,,,,,,,,478.1837359170022,478.1839519,478.31181883299723,478.3162027079961,478.3162027079961,478.3162027079961,478.3162027079961,481.3027693329932,481.3027693329932,482.18632024999533,1,1,0.7364074579963926,0.33000808299402706,None,482.1864791669941,482.18654699999024,None,482.18660458299564,482.1866513749992,None,,,,,,,,,,,4,6,0,1,2025-02-06_13h02.45.189,rtmindeye,2024.2.4,None,2025-02-06 13h03.01.541102 -0500
all_stimuli/special515/special_28068.jpg,15,0,15,15,0,,,,0,0,1,6,1,"[9, 21, 31, 45, 56, 68, 69]",1,1,0.8385117910074769,0.2240286250016652,None,None,None,,,,,,,,,,,1,0,1,0,0,15,15,15,482.2991466669919,,,,,,,,,,,,,,,,,,,,,,482.1870612079947,482.18722799999523,482.29576166698826,482.2991466669919,482.2991466669919,482.2991466669919,482.2991466669919,485.2866651249933,485.2866651249933,486.1991229580017,1,1,0.8385117910074769,0.2240286250016652,None,486.19930937499157,486.1993656249979,None,486.19944195800053,486.19951579198823,None,,,,,,,,,,,4,6,0,1,2025-02-06_13h02.45.189,rtmindeye,2024.2.4,None,2025-02-06 13h03.01.541102 -0500
all_stimuli/shared1000_notspecial/notspecial_60978.png,16,0,16,16,0,,,,0,0,1,6,1,"[9, 21, 31, 45, 56, 68, 69]",1,1,0.626906207,0.25701095900149085,None,None,None,,,,,,,,,,,1,0,1,0,0,16,16,16,486.4567753750016,,,,,,,,,,,,,,,,,,,,,,486.2000464169978,486.2002192499931,486.44968287499796,486.4567753750016,486.4567753750016,486.4567753750016,486.4567753750016,489.4518777499907,489.4518777499907,490.2033203,1,1,0.626906207,0.25701095900149085,None,490.2035159,490.2035843749909,None,490.2036448329891,490.20368687500013,None,,,,,,,,,,,4,6,0,1,2025-02-06_13h02.45.189,rtmindeye,2024.2.4,None,2025-02-06 13h03.01.541102 -0500
all_stimuli/MST_pairs1/pair_2_4_22.png,17,0,17,17,0,,,,0,0,1,6,1,"[9, 21, 31, 45, 56, 68, 69]",1,1,1.0553317079902627,0.4449216659995727,None,None,None,,,,,,,,,,,1,0,1,0,0,17,17,17,490.37133445798827,,,,,,,,,,,,,,,,,,,,,,490.2041616249917,490.2043307080021,490.36717795798904,490.37133445798827,490.37133445798827,490.37133445798827,490.37133445798827,493.3696316249989,493.3696316249989,494.21571541699814,1,1,1.0553317079902627,0.4449216659995727,None,494.21585445800156,494.2158962079993,None,494.2159384999977,494.21597658300016,None,,,,,,,,,,,4,6,0,1,2025-02-06_13h02.45.189,rtmindeye,2024.2.4,None,2025-02-06 13h03.01.541102 -0500
all_stimuli/shared1000_notspecial/notspecial_46160.png,18,0,18,18,0,,,,0,0,1,6,1,"[9, 21, 31, 45, 56, 68, 69]",1,1,0.8510051240009489,0.31398737500421703,None,None,None,,,,,,,,,,,1,0,1,0,0,18,18,18,494.3616812919936,,,,,,,,,,,,,,,,,,,,,,494.2163785,494.2165349579882,494.3582726250024,494.3616812919936,494.3616812919936,494.3616812919936,494.3616812919936,497.35235091698996,497.35235091698996,498.2186910419987,1,1,0.8510051240009489,0.31398737500421703,None,498.21885358299187,498.2188992500014,None,498.21893845799787,498.2189678329887,None,,,,,,,,,,,4,6,0,1,2025-02-06_13h02.45.189,rtmindeye,2024.2.4,None,2025-02-06 13h03.01.541102 -0500
all_stimuli/special515/special_64880.jpg,19,0,19,19,0,,,,0,0,1,6,1,"[9, 21, 31, 45, 56, 68, 69]",1,1,0.8533051240083296,0.3109996669954853,None,None,None,,,,,,,,,,,1,0,1,0,0,19,19,19,498.34533545799786,,,,,,,,,,,,,,,,,,,,,,498.2193042500003,498.21943604199623,498.3419435830001,498.34533545799786,498.34533545799786,498.34533545799786,498.34533545799786,501.33581020799465,501.33581020799465,502.2329163329996,1,1,0.8533051240083296,0.3109996669954853,None,502.2332224999991,502.23332949999894,None,502.2334036669927,502.23346166699775,None,,,,,,,,,,,4,6,0,1,2025-02-06_13h02.45.189,rtmindeye,2024.2.4,None,2025-02-06 13h03.01.541102 -0500
all_stimuli/MST_pairs1/pair_36_nsd_949_1_cocoid_43196.png,20,0,20,20,0,,,,0,0,1,6,1,"[9, 21, 31, 45, 56, 68, 69]",1,1,0.9481575819954742,0.27303204200870823,None,None,None,,,,,,,,,,,1,0,1,0,0,20,20,20,502.4265754169901,,,,,,,,,,,,,,,,,,,,,,502.2339948750014,502.23422791699704,502.42454424999596,502.4265754169901,502.4265754169901,502.4265754169901,502.4265754169901,505.4191686,505.4191686,506.2367220419983,1,1,0.9481575819954742,0.27303204200870823,None,506.23690162500134,506.2369602499966,None,506.23702058299386,506.2370618330024,None,,,,,,,,,,,4,6,0,1,2025-02-06_13h02.45.189,rtmindeye,2024.2.4,None,2025-02-06 13h03.01.541102 -0500
blank.jpg,21,1,21,21,0,,,,0,0,1,6,1,"[9, 21, 31, 45, 56, 68, 69]",None,0,,,None,None,None,,,,,,,,,,,1,0,1,0,0,21,21,21,506.32868741700076,,,,,,,,,,,,,,,,,,,,,,506.2375068330002,506.23766654200153,506.3243481249956,506.32868741700076,506.32868741700076,506.32868741700076,506.32868741700076,509.3191163750016,509.3191163750016,510.2490432499908,None,0,,,None,510.2491699999955,510.2492127500009,None,510.2492544580018,510.2492861669889,None,,,,,,,,,,,4,6,0,1,2025-02-06_13h02.45.189,rtmindeye,2024.2.4,None,2025-02-06 13h03.01.541102 -0500
all_stimuli/special515/special_30632.jpg,22,0,22,22,0,,,,1,0,1,6,1,"[9, 21, 31, 45, 56, 68, 69]",2,1,1.254601791,0.5830188749969238,None,None,None,,,,,,,,,,,1,0,1,0,0,22,22,22,510.3500426669925,,,,,,,,,,,,,,,,,,,,,,510.2496371669986,510.24976854199485,510.3465898329887,510.3500426669925,510.3500426669925,510.3500426669925,510.3500426669925,513.3362666249886,513.3362666249886,514.2504007919924,2,1,1.254601791,0.5830188749969238,None,514.2506780830008,514.2507454169972,None,514.2508011669997,514.2508418329962,None,,,,,,,,,,,4,6,0,1,2025-02-06_13h02.45.189,rtmindeye,2024.2.4,None,2025-02-06 13h03.01.541102 -0500
all_stimuli/MST_pairs1/pair_20_nsd_41_2_cocoid_63715.png,23,0,23,23,0,,,,1,0,1,6,1,"[9, 21, 31, 45, 56, 68, 69]",2,1,0.9643914989865152,0.34500120900338516,None,None,None,,,,,,,,,,,1,0,1,0,0,23,23,23,514.3673667080002,,,,,,,,,,,,,,,,,,,,,,514.2512805000006,514.2514788749977,514.3634782500012,514.3673667080002,514.3673667080002,514.3673667080002,514.3673667080002,517.3662424579961,517.3662424579961,518.2542247,2,1,0.9643914989865152,0.34500120900338516,None,518.2544058,518.2544719169964,None,518.2545217079896,518.2545609579975,None,,,,,,,,,,,4,6,0,1,2025-02-06_13h02.45.189,rtmindeye,2024.2.4,None,2025-02-06 13h03.01.541102 -0500
all_stimuli/MST_pairs1/pair_22_nsd_115_2_cocoid_65194.png,24,0,24,24,0,,,,0,0,1,6,1,"[9, 21, 31, 45, 56, 68, 69]",1,1,1.0894087909982773,0.3199356670083944,None,None,None,,,,,,,,,,,1,0,1,0,0,24,24,24,518.5503710829944,,,,,,,,,,,,,,,,,,,,,,518.2550162499974,518.2552212919982,518.5454106249963,518.5503710829944,518.5503710829944,518.5503710829944,518.5503710829944,521.5372275419941,521.5372275419941,522.2665275420004,1,1,1.0894087909982773,0.3199356670083944,None,522.2667087500013,522.2667664170003,None,522.2668238329934,522.2669071249984,None,,,,,,,,,,,4,6,0,1,2025-02-06_13h02.45.189,rtmindeye,2024.2.4,None,2025-02-06 13h03.01.541102 -0500
all_stimuli/shared1000_notspecial/notspecial_26292.png,25,0,25,25,0,,,,0,0,1,6,1,"[9, 21, 31, 45, 56, 68, 69]",1,1,0.6712529159995029,0.25600333300826605,None,None,None,,,,,,,,,,,1,0,1,0,0,25,25,25,522.4504712079943,,,,,,,,,,,,,,,,,,,,,,522.2675495419971,522.2677724169916,522.4395465830021,522.4504712079943,522.4504712079943,522.4504712079943,522.4504712079943,525.4496707919898,525.4496707919898,526.2707336669991,1,1,0.6712529159995029,0.25600333300826605,None,526.2709334999963,526.270984,None,526.2710337919998,526.2710674169939,None,,,,,,,,,,,4,6,0,1,2025-02-06_13h02.45.189,rtmindeye,2024.2.4,None,2025-02-06 13h03.01.541102 -0500
all_stimuli/special515/special_6489.jpg,26,0,26,26,0,,,,1,0,1,6,1,"[9, 21, 31, 45, 56, 68, 69]",2,1,1.0698617080051918,0.3769976250041509,None,None,None,,,,,,,,,,,1,0,1,0,0,26,26,26,526.3748639580008,,,,,,,,,,,,,,,,,,,,,,526.2714952499955,526.2716786,526.3689105419908,526.3748639580008,526.3748639580008,526.3748639580008,526.3748639580008,529.3699526669952,529.3699526669952,530.2832863329968,2,1,1.0698617080051918,0.3769976250041509,None,530.2835079,530.2835707079939,None,530.2836420419917,530.2836890829931,None,,,,,,,,,,,4,6,0,1,2025-02-06_13h02.45.189,rtmindeye,2024.2.4,None,2025-02-06 13h03.01.541102 -0500
all_stimuli/special515/special_55678.jpg,27,0,27,27,0,,,,0,0,1,6,1,"[9, 21, 31, 45, 56, 68, 69]",1,1,2.1949973330047214,0.1949722080025822,None,None,None,,,,,,,,,,,1,0,1,0,0,27,27,27,530.3957258329901,,,,,,,,,,,,,,,,,,,,,,530.2842359999922,530.2844407499942,530.3900675829937,530.3957258329901,530.3957258329901,530.3957258329901,530.3957258329901,533.3878642499913,533.3878642499913,534.2866623329901,1,1,2.1949973330047214,0.1949722080025822,None,534.2868240419921,534.2868752919894,None,534.2869201669964,534.2869531670003,None,,,,,,,,,,,4,6,0,1,2025-02-06_13h02.45.189,rtmindeye,2024.2.4,None,2025-02-06 13h03.01.541102 -0500
all_stimuli/special515/special_40909.jpg,28,0,28,28,0,,,,0,0,1,6,1,"[9, 21, 31, 45, 56, 68, 69]",1,1,1.196271082997555,0.23905849999573547,None,None,None,,,,,,,,,,,1,0,1,0,0,28,28,28,534.4243968329974,,,,,,,,,,,,,,,,,,,,,,534.2873561250017,534.2875494999898,534.4152401669999,534.4243968329974,534.4243968329974,534.4243968329974,534.4243968329974,537.4278634999937,537.4278634999937,538.2877108749963,1,1,1.196271082997555,0.23905849999573547,None,538.2878820829937,538.2879336670012,None,538.2879837499931,538.2880217919883,None,,,,,,,,,,,4,6,0,1,2025-02-06_13h02.45.189,rtmindeye,2024.2.4,None,2025-02-06 13h03.01.541102 -0500
all_stimuli/special515/special_70360.jpg,29,0,29,29,0,,,,0,0,1,6,1,"[9, 21, 31, 45, 56, 68, 69]",1,1,0.8902234579873038,0.28702425000665244,None,None,None,,,,,,,,,,,1,0,1,0,0,29,29,29,538.4014654,,,,,,,,,,,,,,,,,,,,,,538.2884663329896,538.2887148329901,538.3957977499958,538.4014654,538.4014654,538.4014654,538.4014654,541.3997449169983,541.3997449169983,542.3000841249886,1,1,0.8902234579873038,0.28702425000665244,None,542.3003023,542.3003478749888,None,542.3004253,542.3005309579894,None,,,,,,,,,,,4,6,0,1,2025-02-06_13h02.45.189,rtmindeye,2024.2.4,None,2025-02-06 13h03.01.541102 -0500
all_stimuli/MST_pairs1/pair_42_w_icerink1.jpg,30,0,30,30,0,,,,0,0,1,6,1,"[9, 21, 31, 45, 56, 68, 69]",2,0,2.089711290987907,None,None,None,None,,,,,,,,,,,1,0,1,0,0,30,30,30,542.4350253329903,,,,,,,,,,,,,,,,,,,,,,542.3012671,542.3015070419933,542.4299787079945,542.4350253329903,542.4350253329903,542.4350253329903,542.4350253329903,545.4330281250004,545.4330281250004,546.3032021249965,2,0,2.089711290987907,None,None,546.3033707499999,546.3034226,None,546.3034682079888,546.3035223749903,None,,,,,,,,,,,4,6,0,1,2025-02-06_13h02.45.189,rtmindeye,2024.2.4,None,2025-02-06 13h03.01.541102 -0500
blank.jpg,31,1,31,31,0,,,,0,0,1,6,1,"[9, 21, 31, 45, 56, 68, 69]",None,0,,,None,None,None,,,,,,,,,,,1,0,1,0,0,31,31,31,546.3847119999991,,,,,,,,,,,,,,,,,,,,,,546.3039582499914,546.3041657499998,546.3792764169921,546.3847119999991,546.3847119999991,546.3847119999991,546.3847119999991,549.3829991,549.3829991,550.3049736669927,None,0,,,None,550.3051305830013,550.3051787919976,None,550.3052242080012,550.3052572500019,None,,,,,,,,,,,4,6,0,1,2025-02-06_13h02.45.189,rtmindeye,2024.2.4,None,2025-02-06 13h03.01.541102 -0500
all_stimuli/special515/special_30430.jpg,32,0,32,32,0,,,,1,0,1,6,1,"[9, 21, 31, 45, 56, 68, 69]",2,1,2.7520668740035035,None,['2'],None,None,,,,,[3.077991957004997],[0.15404312500322703],,,,,1,0,1,0,0,32,32,32,550.4897868330008,,,,,,,,,,,,,,,,,,,,,,550.3056437499908,550.3058547,550.4862266669952,550.4897868330008,550.4897868330008,550.4897868330008,550.4897868330008,553.4867392500018,553.4867392500018,554.3166275419935,2,1,2.7520668740035035,None,['2'],554.3169175829971,554.3169921249937,None,554.3170482919959,554.3170872499904,None,,,,,,,,,[3.077991957004997],[0.15404312500322703],4,6,0,1,2025-02-06_13h02.45.189,rtmindeye,2024.2.4,None,2025-02-06 13h03.01.541102 -0500
all_stimuli/shared1000_notspecial/notspecial_43746.png,33,0,33,33,0,,,,0,0,1,6,1,"[9, 21, 31, 45, 56, 68, 69]",1,1,1.018364040995948,0.2989481670083478,None,None,None,,,,,,,,,,,1,0,1,0,0,33,33,33,554.4953240829927,,,,,,,,,,,,,,,,,,,,,,554.3175681669964,554.3177482079918,554.4889854999929,554.4953240829927,554.4953240829927,554.4953240829927,554.4953240829927,557.4866946249967,557.4866946249967,558.3199294579972,1,1,1.018364040995948,0.2989481670083478,None,558.3201341669919,558.3201905000024,None,558.3202459999884,558.3202810829971,None,,,,,,,,,,,4,6,0,1,2025-02-06_13h02.45.189,rtmindeye,2024.2.4,None,2025-02-06 13h03.01.541102 -0500
all_stimuli/MST_pairs1/pair_34_nsd_875_1_cocoid_67762.png,34,0,34,34,0,,,,0,0,1,6,1,"[9, 21, 31, 45, 56, 68, 69]",1,1,1.1626779579964932,0.18096279200108256,None,None,None,,,,,,,,,,,1,0,1,0,0,34,34,34,558.5561585419928,,,,,,,,,,,,,,,,,,,,,,558.3206573,558.3208887079963,558.5478423329914,558.5561585419928,558.5561585419928,558.5561585419928,558.5561585419928,561.5535423330002,561.5535423330002,562.3214688329899,1,1,1.1626779579964932,0.18096279200108256,None,562.3216611669923,562.3217192500015,None,562.3217668329889,562.3218099,None,,,,,,,,,,,4,6,0,1,2025-02-06_13h02.45.189,rtmindeye,2024.2.4,None,2025-02-06 13h03.01.541102 -0500
all_stimuli/MST_pairs1/pair_12_16_78.png,35,0,35,35,0,,,,1,0,1,6,1,"[9, 21, 31, 45, 56, 68, 69]",1,0,1.0658330410078634,0.2560512909985846,None,None,None,,,,,,,,,,,1,0,1,0,0,35,35,35,562.4219486249931,,,,,,,,,,,,,,,,,,,,,,562.3222236669972,562.3224121,562.4181269169931,562.4219486249931,562.4219486249931,562.4219486249931,562.4219486249931,565.4199200419971,565.4199200419971,566.3334072500002,1,0,1.0658330410078634,0.2560512909985846,None,566.3336253750022,566.3336839999974,None,566.3337449999963,566.3337975829927,None,,,,,,,,,,,4,6,0,1,2025-02-06_13h02.45.189,rtmindeye,2024.2.4,None,2025-02-06 13h03.01.541102 -0500
all_stimuli/special515/special_4249.jpg,36,0,36,36,0,,,,1,0,1,6,1,"[9, 21, 31, 45, 56, 68, 69]",2,1,1.3063391239993507,0.7369452499988256,None,None,None,,,,,,,,,,,1,0,1,0,0,36,36,36,566.4184827919962,,,,,,,,,,,,,,,,,,,,,,566.3342211669951,566.3344017919881,566.4135418749938,566.4184827919962,566.4184827919962,566.4184827919962,566.4184827919962,569.4163354,569.4163354,570.3366663329944,2,1,1.3063391239993507,0.7369452499988256,None,570.3368445829983,570.3368942079978,None,570.3369426249992,570.3369889579917,None,,,,,,,,,,,4,6,0,1,2025-02-06_13h02.45.189,rtmindeye,2024.2.4,None,2025-02-06 13h03.01.541102 -0500
all_stimuli/MST_pairs1/pair_42_w_icerink2.jpg,37,0,37,37,0,,,,1,0,1,6,1,"[9, 21, 31, 45, 56, 68, 69]",2,1,1.5349802499986254,0.9659541250002803,None,None,None,,,,,,,,,,,1,0,1,0,0,37,37,37,570.4448532919923,,,,,,,,,,,,,,,,,,,,,,570.3374097079941,570.3375999169948,570.4344289169967,570.4448532919923,570.4448532919923,570.4448532919923,570.4448532919923,573.4325191249955,573.4325191249955,574.3500560829998,2,1,1.5349802499986254,0.9659541250002803,None,574.3503188329923,574.3504655419965,None,574.3505823,574.3506990419992,None,,,,,,,,,,,4,6,0,1,2025-02-06_13h02.45.189,rtmindeye,2024.2.4,None,2025-02-06 13h03.01.541102 -0500
all_stimuli/shared1000_notspecial/notspecial_70038.png,38,0,38,38,0,,,,0,0,1,6,1,"[9, 21, 31, 45, 56, 68, 69]",1,1,2.3794744569895556,0.5220728340063943,None,None,None,,,,,,,,,,,1,0,1,0,0,38,38,38,574.5092153750011,,,,,,,,,,,,,,,,,,,,,,574.3513724169898,574.3516709579999,574.5036806249991,574.5092153750011,574.5092153750011,574.5092153750011,574.5092153750011,577.5042801249947,577.5042801249947,578.3532465419994,1,1,2.3794744569895556,0.5220728340063943,None,578.3534575,578.3535162499902,None,578.3535722919914,578.3536147080013,None,,,,,,,,,,,4,6,0,1,2025-02-06_13h02.45.189,rtmindeye,2024.2.4,None,2025-02-06 13h03.01.541102 -0500
all_stimuli/special515/special_53155.jpg,39,0,39,39,0,,,,0,0,1,6,1,"[9, 21, 31, 45, 56, 68, 69]",1,1,0.9104815820028307,1.5709436670003925,None,None,None,,,,,,,,,,,1,0,1,0,0,39,39,39,578.4843604170019,,,,,,,,,,,,,,,,,,,,,,578.3540864,578.3543396669993,578.4792198749929,578.4843604170019,578.4843604170019,578.4843604170019,578.4843604170019,581.4824446669954,581.4824446669954,582.3661837919935,1,1,0.9104815820028307,1.5709436670003925,None,582.3663959169935,582.3665144169936,None,582.3666074169887,582.3667385419976,None,,,,,,,,,,,4,6,0,1,2025-02-06_13h02.45.189,rtmindeye,2024.2.4,None,2025-02-06 13h03.01.541102 -0500
all_stimuli/special515/special_24530.jpg,40,0,40,40,0,,,,1,0,1,6,1,"[9, 21, 31, 45, 56, 68, 69]",2,1,1.2237617490027333,0.8900079169980017,None,None,None,,,,,,,,,,,1,0,1,0,0,40,40,40,582.5300587079983,,,,,,,,,,,,,,,,,,,,,,582.3672857499914,582.3675032499887,582.5232058749971,582.5300587079983,582.5300587079983,582.5300587079983,582.5300587079983,585.5194406669907,585.5194406669907,586.3701094999997,2,1,1.2237617490027333,0.8900079169980017,None,586.3702935420006,586.3703525419987,None,586.3704127,586.3704535829893,None,,,,,,,,,,,4,6,0,1,2025-02-06_13h02.45.189,rtmindeye,2024.2.4,None,2025-02-06 13h03.01.541102 -0500
all_stimuli/special515/special_32232.jpg,41,0,41,41,0,,,,0,0,1,6,1,"[9, 21, 31, 45, 56, 68, 69]",1,1,0.9117958319984609,0.3329528339963872,None,None,None,,,,,,,,,,,1,0,1,0,0,41,41,41,586.5020064169948,,,,,,,,,,,,,,,,,,,,,,586.370911,586.3710964170023,586.4985091249982,586.5020064169948,586.5020064169948,586.5020064169948,586.5020064169948,589.4994399999996,589.4994399999996,590.3830263749987,1,1,0.9117958319984609,0.3329528339963872,None,590.3833705829893,590.3835164579941,None,590.3836742499989,590.3837644,None,,,,,,,,,,,4,6,0,1,2025-02-06_13h02.45.189,rtmindeye,2024.2.4,None,2025-02-06 13h03.01.541102 -0500
all_stimuli/special515/special_41814.jpg,42,0,42,42,0,,,,0,0,1,6,1,"[9, 21, 31, 45, 56, 68, 69]",1,1,0.8284137079899665,0.28401566699903924,None,None,None,,,,,,,,,,,1,0,1,0,0,42,42,42,590.4903997499932,,,,,,,,,,,,,,,,,,,,,,590.3845277499931,590.3848280419916,590.4869828329975,590.4903997499932,590.4903997499932,590.4903997499932,590.4903997499932,593.4869476250024,593.4869476250024,594.3872189999965,1,1,0.8284137079899665,0.28401566699903924,None,594.3873887079972,594.3874724579946,None,594.3875273750018,594.3875647919922,None,,,,,,,,,,,4,6,0,1,2025-02-06_13h02.45.189,rtmindeye,2024.2.4,None,2025-02-06 13h03.01.541102 -0500
all_stimuli/shared1000_notspecial/notspecial_23883.png,43,0,43,43,0,,,,0,0,1,6,1,"[9, 21, 31, 45, 56, 68, 69]",1,1,0.6486894990084693,0.34702254200237803,None,None,None,,,,,,,,,,,1,0,1,0,0,43,43,43,594.5561427499924,,,,,,,,,,,,,,,,,,,,,,594.3880012079899,594.3882137079927,594.5490010829963,594.5561427499924,594.5561427499924,594.5561427499924,594.5561427499924,597.5522301669989,597.5522301669989,598.3994028,1,1,0.6486894990084693,0.34702254200237803,None,598.3996318749996,598.3997151249932,None,598.3997929999896,598.3998488329962,None,,,,,,,,,,,4,6,0,1,2025-02-06_13h02.45.189,rtmindeye,2024.2.4,None,2025-02-06 13h03.01.541102 -0500
all_stimuli/shared1000_notspecial/notspecial_4436.png,44,0,44,44,0,,,,0,0,1,6,1,"[9, 21, 31, 45, 56, 68, 69]",1,1,0.7760454579984071,0.35202608299732674,None,None,None,,,,,,,,,,,1,0,1,0,0,44,44,44,598.5437127920013,,,,,,,,,,,,,,,,,,,,,,598.4004383749998,598.4006461669924,598.5397731669946,598.5437127920013,598.5437127920013,598.5437127920013,598.5437127920013,601.5362676669902,601.5362676669902,602.4028557080019,1,1,0.7760454579984071,0.35202608299732674,None,602.4030457920016,602.4031003749988,None,602.4031569169892,602.4031977,None,,,,,,,,,,,4,6,0,1,2025-02-06_13h02.45.189,rtmindeye,2024.2.4,None,2025-02-06 13h03.01.541102 -0500
blank.jpg,45,1,45,45,0,,,,0,0,1,6,1,"[9, 21, 31, 45, 56, 68, 69]",None,0,,,None,None,None,,,,,,,,,,,1,0,1,0,0,45,45,45,602.4952538749931,,,,,,,,,,,,,,,,,,,,,,602.4036170420004,602.4037912,602.4916581,602.4952538749931,602.4952538749931,602.4952538749931,602.4952538749931,605.4859542920021,605.4859542920021,606.4163975419942,None,0,,,None,606.4166892499925,606.4168589170004,None,606.4169911669887,606.4170908329979,None,,,,,,,,,,,4,6,0,1,2025-02-06_13h02.45.189,rtmindeye,2024.2.4,None,2025-02-06 13h03.01.541102 -0500
all_stimuli/special515/special_61133.jpg,46,0,46,46,0,,,,1,0,1,6,1,"[9, 21, 31, 45, 56, 68, 69]",2,1,0.8714989160071127,0.4480031249986496,None,None,None,,,,,,,,,,,1,0,1,0,0,46,46,46,606.5033647919918,,,,,,,,,,,,,,,,,,,,,,606.4178532499936,606.4196075419895,606.4977675830014,606.5033647919918,606.5033647919918,606.5033647919918,606.5033647919918,609.4992547079892,609.4992547079892,610.4331001669925,2,1,0.8714989160071127,0.4480031249986496,None,610.4334013329935,610.4335832,None,610.4337359579949,610.4338403329893,None,,,,,,,,,,,4,6,0,1,2025-02-06_13h02.45.189,rtmindeye,2024.2.4,None,2025-02-06 13h03.01.541102 -0500
all_stimuli/MST_pairs1/pair_24_nsd_158_2_cocoid_3673.png,47,0,47,47,0,,,,0,0,1,6,1,"[9, 21, 31, 45, 56, 68, 69]",2,0,1.4692421660001855,0.5570034999982454,None,None,None,,,,,,,,,,,1,0,1,0,0,47,47,47,610.6846054999914,,,,,,,,,,,,,,,,,,,,,,610.4346132079954,610.4349306669901,610.6813387079892,610.6846054999914,610.6846054999914,610.6846054999914,610.6846054999914,613.6828202499892,613.6828202499892,614.4357564169914,2,0,1.4692421660001855,0.5570034999982454,None,614.4359414169885,614.4359936669935,None,614.4360506669909,614.4360859579901,None,,,,,,,,,,,4,6,0,1,2025-02-06_13h02.45.189,rtmindeye,2024.2.4,None,2025-02-06 13h03.01.541102 -0500
all_stimuli/MST_pairs1/pair_34_nsd_875_2_cocoid_72398.png,48,0,48,48,0,,,,0,0,1,6,1,"[9, 21, 31, 45, 56, 68, 69]",2,0,1.3830686250003055,0.3619845829962287,None,None,None,,,,,,,,,,,1,0,1,0,0,48,48,48,614.7277873330022,,,,,,,,,,,,,,,,,,,,,,614.4364981669933,614.4366583749943,614.7250797500019,614.7277873330022,614.7277873330022,614.7277873330022,614.7277873330022,617.7197841250018,617.7197841250018,618.4497941669979,2,0,1.3830686250003055,0.3619845829962287,None,618.4499505829881,618.4499970420002,None,618.4500416669907,618.4500735420006,None,,,,,,,,,,,4,6,0,1,2025-02-06_13h02.45.189,rtmindeye,2024.2.4,None,2025-02-06 13h03.01.541102 -0500
all_stimuli/shared1000_notspecial/notspecial_51965.png,49,0,49,49,0,,,,0,0,1,6,1,"[9, 21, 31, 45, 56, 68, 69]",1,1,1.5974897080013761,0.5349885000032373,None,None,None,,,,,,,,,,,1,0,1,0,0,49,49,49,618.6113134999905,,,,,,,,,,,,,,,,,,,,,,618.4504327079921,618.4505625829916,618.6078297919885,618.6113134999905,618.6113134999905,618.6113134999905,618.6113134999905,621.6032580829924,621.6032580829924,622.4535705829912,1,1,1.5974897080013761,0.5349885000032373,None,622.4537298,622.4537856249954,None,622.4538427499938,622.4538882079942,None,,,,,,,,,,,4,6,0,1,2025-02-06_13h02.45.189,rtmindeye,2024.2.4,None,2025-02-06 13h03.01.541102 -0500
all_stimuli/MST_pairs1/pair_30_nsd_676_1_cocoid_48729.png,50,0,50,50,0,,,,0,0,1,6,1,"[9, 21, 31, 45, 56, 68, 69]",1,1,0.7375981660006801,0.3899335419991985,None,None,None,,,,,,,,,,,1,0,1,0,0,50,50,50,622.6772061,,,,,,,,,,,,,,,,,,,,,,622.4543177500018,622.4544688749884,622.6739450000023,622.6772061,622.6772061,622.6772061,622.6772061,625.6687919999968,625.6687919999968,626.4661803749914,1,1,0.7375981660006801,0.3899335419991985,None,626.4664096249908,626.4665017919906,None,626.4665774579917,626.4666329999891,None,,,,,,,,,,,4,6,0,1,2025-02-06_13h02.45.189,rtmindeye,2024.2.4,None,2025-02-06 13h03.01.541102 -0500
all_stimuli/shared1000_notspecial/notspecial_52328.png,51,0,51,51,0,,,,0,0,1,6,1,"[9, 21, 31, 45, 56, 68, 69]",1,1,1.1159136249916628,0.3259934580128174,None,None,None,,,,,,,,,,,1,0,1,0,0,51,51,51,626.6349321669986,,,,,,,,,,,,,,,,,,,,,,626.4672029999929,626.4674194169929,626.6314927,626.6349321669986,626.6349321669986,626.6349321669986,626.6349321669986,629.6328924,629.6328924,630.4691669579915,1,1,1.1159136249916628,0.3259934580128174,None,630.4693418329989,630.4694002079923,None,630.4694582079974,630.4694989999989,None,,,,,,,,,,,4,6,0,1,2025-02-06_13h02.45.189,rtmindeye,2024.2.4,None,2025-02-06 13h03.01.541102 -0500
all_stimuli/MST_pairs1/pair_4_6_44.png,52,0,52,52,0,,,,0,0,1,6,1,"[9, 21, 31, 45, 56, 68, 69]",1,1,1.026732833,0.5860165410122136,None,None,None,,,,,,,,,,,1,0,1,0,0,52,52,52,630.6390749580023,,,,,,,,,,,,,,,,,,,,,,630.4699223749922,630.4700900829921,630.6355241249985,630.6390749580023,630.6390749580023,630.6390749580023,630.6390749580023,633.6358452,633.6358452,634.4827833750023,1,1,1.026732833,0.5860165410122136,None,634.4829893329879,634.4830670829979,None,634.4831529999938,634.4832092919969,None,,,,,,,,,,,4,6,0,1,2025-02-06_13h02.45.189,rtmindeye,2024.2.4,None,2025-02-06 13h03.01.541102 -0500
all_stimuli/MST_pairs1/pair_48_w_runway1.jpg,53,0,53,53,0,,,,0,0,1,6,1,"[9, 21, 31, 45, 56, 68, 69]",1,1,0.7122532909997972,0.5399748749914579,None,None,None,,,,,,,,,,,1,0,1,0,0,53,53,53,634.5905754169944,,,,,,,,,,,,,,,,,,,,,,634.4838329999911,634.4840451249911,634.587149,634.5905754169944,634.5905754169944,634.5905754169944,634.5905754169944,637.5860503329895,637.5860503329895,638.4856932919938,1,1,0.7122532909997972,0.5399748749914579,None,638.4858392919996,638.4858815829939,None,638.4859231250011,638.4859652500018,None,,,,,,,,,,,4,6,0,1,2025-02-06_13h02.45.189,rtmindeye,2024.2.4,None,2025-02-06 13h03.01.541102 -0500
all_stimuli/special515/special_40840.jpg,54,0,54,54,0,,,,1,0,1,6,1,"[9, 21, 31, 45, 56, 68, 69]",1,0,0.7297887910099234,0.3559888750023674,None,None,None,,,,,,,,,,,1,0,1,0,0,54,54,54,638.5900477499963,,,,,,,,,,,,,,,,,,,,,,638.4863045419916,638.4864412499883,638.5868065,638.5900477499963,638.5900477499963,638.5900477499963,638.5900477499963,641.5870361249981,641.5870361249981,642.4868162919884,1,0,0.7297887910099234,0.3559888750023674,None,642.4870991249918,642.4872091669968,None,642.4873212,642.4874,None,,,,,,,,,,,4,6,0,1,2025-02-06_13h02.45.189,rtmindeye,2024.2.4,None,2025-02-06 13h03.01.541102 -0500
all_stimuli/shared1000_notspecial/notspecial_12487.png,55,0,55,55,0,,,,0,0,1,6,1,"[9, 21, 31, 45, 56, 68, 69]",1,1,0.9281619989924366,0.33996845899673644,None,None,None,,,,,,,,,,,1,0,1,0,0,55,55,55,642.6236722499889,,,,,,,,,,,,,,,,,,,,,,642.4881230419996,642.4883866669988,642.6200326249964,642.6236722499889,642.6236722499889,642.6236722499889,642.6236722499889,645.6192472080002,645.6192472080002,646.4997423749883,1,1,0.9281619989924366,0.33996845899673644,None,646.5000234999898,646.5001499169884,None,646.5002563329908,646.5004159579985,None,,,,,,,,,,,4,6,0,1,2025-02-06_13h02.45.189,rtmindeye,2024.2.4,None,2025-02-06 13h03.01.541102 -0500
blank.jpg,56,1,56,56,0,,,,0,0,1,6,1,"[9, 21, 31, 45, 56, 68, 69]",None,0,,,None,None,None,,,,,,,,,,,1,0,1,0,0,56,56,56,646.6303684579907,,,,,,,,,,,,,,,,,,,,,,646.5011702499905,646.5014714579884,646.6268859169941,646.6303684579907,646.6303684579907,646.6303684579907,646.6303684579907,649.6200862080004,649.6200862080004,650.5038722079917,None,0,,,None,650.5040155419993,650.5040692499897,None,650.5041322499892,650.5041734169936,None,,,,,,,,,,,4,6,0,1,2025-02-06_13h02.45.189,rtmindeye,2024.2.4,None,2025-02-06 13h03.01.541102 -0500
all_stimuli/MST_pairs1/pair_16_20_0.png,57,0,57,57,0,,,,1,0,1,6,1,"[9, 21, 31, 45, 56, 68, 69]",2,1,1.5379016660008347,0.5939944999990985,None,None,None,,,,,,,,,,,1,0,1,0,0,57,57,57,650.6349071250006,,,,,,,,,,,,,,,,,,,,,,650.5045895419898,650.5047520829976,650.6304343749944,650.6349071250006,650.6349071250006,650.6349071250006,650.6349071250006,653.6333501670015,653.6333501670015,654.5161857499916,2,1,1.5379016660008347,0.5939944999990985,None,654.5163929580012,654.5164772079879,None,654.5165509579965,654.5166057919996,None,,,,,,,,,,,4,6,0,1,2025-02-06_13h02.45.189,rtmindeye,2024.2.4,None,2025-02-06 13h03.01.541102 -0500
all_stimuli/shared1000_notspecial/notspecial_12685.png,58,0,58,58,0,,,,0,0,1,6,1,"[9, 21, 31, 45, 56, 68, 69]",1,1,0.8207989579968853,0.42598733300110325,None,None,None,,,,,,,,,,,1,0,1,0,0,58,58,58,654.6660514999967,,,,,,,,,,,,,,,,,,,,,,654.5171209,654.5172855830024,654.6623404580023,654.6660514999967,654.6660514999967,654.6660514999967,654.6660514999967,657.6529826,657.6529826,658.5189164999902,1,1,0.8207989579968853,0.42598733300110325,None,658.5191034579912,658.5191630420013,None,658.5192212919937,658.5192632079998,None,,,,,,,,,,,4,6,0,1,2025-02-06_13h02.45.189,rtmindeye,2024.2.4,None,2025-02-06 13h03.01.541102 -0500
all_stimuli/MST_pairs1/pair_36_nsd_949_2_cocoid_60031.png,59,0,59,59,0,,,,0,0,1,6,1,"[9, 21, 31, 45, 56, 68, 69]",2,0,1.754165249003563,0.36601149999478366,None,None,None,,,,,,,,,,,1,0,1,0,0,59,59,59,658.7297568749927,,,,,,,,,,,,,,,,,,,,,,658.5196944,658.5198740420019,658.7267095829884,658.7297568749927,658.7297568749927,658.7297568749927,658.7297568749927,661.7193693750014,661.7193693750014,662.5212099579949,2,0,1.754165249003563,0.36601149999478366,None,662.5213796249882,662.5214323330001,None,662.5214895829995,662.5215304579906,None,,,,,,,,,,,4,6,0,1,2025-02-06_13h02.45.189,rtmindeye,2024.2.4,None,2025-02-06 13h03.01.541102 -0500
all_stimuli/shared1000_notspecial/notspecial_34068.png,60,0,60,60,0,,,,0,0,1,6,1,"[9, 21, 31, 45, 56, 68, 69]",1,1,1.1291023749945452,0.4970260410045739,None,None,None,,,,,,,,,,,1,0,1,0,0,60,60,60,662.6648331,,,,,,,,,,,,,,,,,,,,,,662.5219701669994,662.5221627079882,662.6619647920015,662.6648331,662.6648331,662.6648331,662.6648331,665.6529391249933,665.6529391249933,666.533065,1,1,1.1291023749945452,0.4970260410045739,None,666.5333556249971,666.5335028,None,666.5335957079951,666.5336588749924,None,,,,,,,,,,,4,6,0,1,2025-02-06_13h02.45.189,rtmindeye,2024.2.4,None,2025-02-06 13h03.01.541102 -0500
all_stimuli/special515/special_11159.jpg,61,0,61,61,0,,,,0,0,1,6,1,"[9, 21, 31, 45, 56, 68, 69]",1,1,1.6352469160046894,0.4389807080005994,None,None,None,,,,,,,,,,,1,0,1,0,0,61,61,61,666.6726544580015,,,,,,,,,,,,,,,,,,,,,,666.5341980419907,666.5344428,666.6693070420006,666.6726544580015,666.6726544580015,666.6726544580015,666.6726544580015,669.6694347500015,669.6694347500015,670.5373906250024,1,1,1.6352469160046894,0.4389807080005994,None,670.5375625000015,670.5376156669954,None,670.5376680829941,670.5377184999961,None,,,,,,,,,,,4,6,0,1,2025-02-06_13h02.45.189,rtmindeye,2024.2.4,None,2025-02-06 13h03.01.541102 -0500
all_stimuli/MST_pairs1/pair_34_nsd_875_2_cocoid_72398.png,62,0,62,62,0,,,,1,0,1,6,1,"[9, 21, 31, 45, 56, 68, 69]",2,1,1.5570904580090428,0.34900033299345523,None,None,None,,,,,,,,,,,1,0,1,0,0,62,62,62,670.6439105829922,,,,,,,,,,,,,,,,,,,,,,670.5381443,670.5383140829945,670.6420147499884,670.6439105829922,670.6439105829922,670.6439105829922,670.6439105829922,673.6360632079886,673.6360632079886,674.5500653749914,2,1,1.5570904580090428,0.34900033299345523,None,674.5505294579925,674.5506484999933,None,674.5507552079944,674.5508355419879,None,,,,,,,,,,,4,6,0,1,2025-02-06_13h02.45.189,rtmindeye,2024.2.4,None,2025-02-06 13h03.01.541102 -0500
all_stimuli/special515/special_67742.jpg,63,0,63,63,0,,,,0,0,1,6,1,"[9, 21, 31, 45, 56, 68, 69]",1,1,2.032997540998622,0.5300737920042593,None,None,None,,,,,,,,,,,1,0,1,0,0,63,63,63,674.6929655419954,,,,,,,,,,,,,,,,,,,,,,674.5516244169994,674.5520558749995,674.6895276249998,674.6929655419954,674.6929655419954,674.6929655419954,674.6929655419954,677.6876000420016,677.6876000420016,678.5538170419895,1,1,2.032997540998622,0.5300737920042593,None,678.5539895830007,678.5540424169885,None,678.5541001249949,678.5541461669927,None,,,,,,,,,,,4,6,0,1,2025-02-06_13h02.45.189,rtmindeye,2024.2.4,None,2025-02-06 13h03.01.541102 -0500
all_stimuli/MST_pairs1/pair_48_w_runway2.jpg,64,0,64,64,0,,,,0,0,1,6,1,"[9, 21, 31, 45, 56, 68, 69]",2,0,1.960371457011206,0.3750106249935925,None,None,None,,,,,,,,,,,1,0,1,0,0,64,64,64,678.7266043749987,,,,,,,,,,,,,,,,,,,,,,678.5545751669997,678.5547486669966,678.7231755419925,678.7266043749987,678.7266043749987,678.7266043749987,678.7266043749987,681.7198336250003,681.7198336250003,682.5664093329979,2,0,1.960371457011206,0.3750106249935925,None,682.5666982,682.5668401669973,None,682.5669254579989,682.5669849999977,None,,,,,,,,,,,4,6,0,1,2025-02-06_13h02.45.189,rtmindeye,2024.2.4,None,2025-02-06 13h03.01.541102 -0500
all_stimuli/MST_pairs1/pair_40_w_escalator1.jpg,65,0,65,65,0,,,,0,0,1,6,1,"[9, 21, 31, 45, 56, 68, 69]",1,1,1.4482391659985296,0.35901949999970384,None,None,None,,,,,,,,,,,1,0,1,0,0,65,65,65,682.7236535419943,,,,,,,,,,,,,,,,,,,,,,682.5675153329939,682.5677537500014,682.7200568749977,682.7236535419943,682.7236535419943,682.7236535419943,682.7236535419943,685.7195827079995,685.7195827079995,686.5703596,1,1,1.4482391659985296,0.35901949999970384,None,686.5705772079964,686.5706473749888,None,686.5707324579998,686.5707973329991,None,,,,,,,,,,,4,6,0,1,2025-02-06_13h02.45.189,rtmindeye,2024.2.4,None,2025-02-06 13h03.01.541102 -0500
all_stimuli/special515/special_62228.jpg,66,0,66,66,0,,,,1,0,1,6,1,"[9, 21, 31, 45, 56, 68, 69]",2,1,1.1521232489903923,0.44504475001303945,None,None,None,,,,,,,,,,,1,0,1,0,0,66,66,66,686.6468678329984,,,,,,,,,,,,,,,,,,,,,,686.5713206,686.5715352080006,686.6436079999985,686.6468678329984,686.6468678329984,686.6468678329984,686.6468678329984,689.6367583329993,689.6367583329993,690.5831809999945,2,1,1.1521232489903923,0.44504475001303945,None,690.5834536670009,690.5835837920022,None,690.5836839999974,690.5838536669908,None,,,,,,,,,,,4,6,0,1,2025-02-06_13h02.45.189,rtmindeye,2024.2.4,None,2025-02-06 13h03.01.541102 -0500
all_stimuli/MST_pairs1/pair_26_nsd_483_2_cocoid_8054.png,67,0,67,67,0,,,,0,0,1,6,1,"[9, 21, 31, 45, 56, 68, 69]",1,1,1.2192707909998717,0.38702258400735445,None,None,None,,,,,,,,,,,1,0,1,0,0,67,67,67,690.8197485830024,,,,,,,,,,,,,,,,,,,,,,690.5846177499916,690.5849469579989,690.8173995419929,690.8197485830024,690.8197485830024,690.8197485830024,690.8197485830024,693.8165025420021,693.8165025420021,694.5873826249881,1,1,1.2192707909998717,0.38702258400735445,None,694.5875630419905,694.5876153329882,None,694.5876672079903,694.5877074169985,None,,,,,,,,,,,4,6,0,1,2025-02-06_13h02.45.189,rtmindeye,2024.2.4,None,2025-02-06 13h03.01.541102 -0500
blank.jpg,68,1,68,68,0,,,,0,0,1,6,1,"[9, 21, 31, 45, 56, 68, 69]",None,0,,,None,None,None,,,,,,,,,,,1,0,1,0,0,68,68,68,694.6823529579997,,,,,,,,,,,,,,,,,,,,,,694.5881094999932,694.5882727499993,694.6788980419951,694.6823529579997,694.6823529579997,694.6823529579997,694.6823529579997,697.6694450829964,697.6694450829964,698.5886518329935,None,0,,,None,698.5888102079916,698.5888875419914,None,698.5889373329992,698.5889729170012,None,,,,,,,,,,,4,6,0,1,2025-02-06_13h02.45.189,rtmindeye,2024.2.4,None,2025-02-06 13h03.01.541102 -0500
blank.jpg,69,1,69,69,0,,,,0,1,1,6,0,"[9, 21, 31, 45, 56, 68, 69]",None,0,,,None,2,equal,18.025467250001384,None,22.516221165991738,None,,,,,,,1,0,1,0,0,69,69,69,698.6344286,,,,,,,,,,,,,,,,,,,,,,698.5893679579895,698.5895576670009,698.6288562499976,698.6344286,698.6344286,698.6344286,698.6344286,701.6333472499973,701.6333472499973,702.6000250419893,None,0,,,None,702.6145988329954,720.6524779579922,2,720.6527692919917,743.1855996249942,equal,702.6177255,702.6177255,18.025467250001384,None,720.6620053329971,720.6620053329971,22.516221165991738,None,,,4,6,0,1,2025-02-06_13h02.45.189,rtmindeye,2024.2.4,None,2025-02-06 13h03.01.541102 -0500
,,,1,0,1,,,,,,,,,,,,,,,,,,,,,,,,,,,1,0,1,0,,,,,,,,,,,,,,,,,,,,,,,,,,,,,,,,,,,,,,,,,,,,,,,,,,,,,,,,,,4,6,0,1,2025-02-06_13h02.45.189,rtmindeye,2024.2.4,None,2025-02-06 13h03.01.541102 -0500
all_stimuli/shared1000_notspecial/notspecial_19672.png,0,0,0,0,0,,,,0,0,2,6,1,"[9, 21, 31, 45, 56, 68, 69]",1,1,1.8607659989938838,1.0450009589985712,None,None,None,,,,,,,,,,,2,0,2,0,0,0,0,0,743.5732847079926,,,,,,,,,,,,,,,,,,,,,,743.3686041670007,743.3694727919938,743.5655900419952,743.5732847079926,743.5732847079926,743.5732847079926,743.5732847079926,746.5689134999993,746.5689134999993,747.3701287079894,2,0,1.8607659989938838,1.0450009589985712,None,747.3702967919962,747.3703532499931,None,747.3704093749984,747.3704608749977,None,,,,,,,,,,,4,6,0,1,2025-02-06_13h02.45.189,rtmindeye,2024.2.4,None,2025-02-06 13h03.01.541102 -0500
all_stimuli/special515/special_55526.jpg,1,0,1,1,0,,,,0,0,2,6,1,"[9, 21, 31, 45, 56, 68, 69]",1,1,1.0466109160042834,0.7480048750003334,None,None,None,,,,,,,,,,,2,0,2,0,0,1,1,1,747.5134037499956,,,,,,,,,,,,,,,,,,,,,,747.3708951669978,747.3711056249886,747.5079590419919,747.5134037499956,747.5134037499956,747.5134037499956,747.5134037499956,750.5045124169992,750.5045124169992,751.3835992079985,2,0,1.0466109160042834,0.7480048750003334,None,751.3838492079958,751.3839586,None,751.3840332499967,751.3840884579986,None,,,,,,,,,,,4,6,0,1,2025-02-06_13h02.45.189,rtmindeye,2024.2.4,None,2025-02-06 13h03.01.541102 -0500
all_stimuli/MST_pairs1/pair_22_nsd_115_1_cocoid_8171.png,2,0,2,2,0,,,,0,0,2,6,1,"[9, 21, 31, 45, 56, 68, 69]",1,1,1.0211489990033442,0.236977417,None,None,None,,,,,,,,,,,2,0,2,0,0,2,2,2,751.6459446669905,,,,,,,,,,,,,,,,,,,,,,751.3846392499981,751.3848368329927,751.6422443329939,751.6459446669905,751.6459446669905,751.6459446669905,751.6459446669905,754.6356956249947,754.6356956249947,755.3861957499903,2,0,1.0211489990033442,0.236977417,None,755.3863319999946,755.3863741249952,None,755.3864202080003,755.3864621249959,None,,,,,,,,,,,4,6,0,1,2025-02-06_13h02.45.189,rtmindeye,2024.2.4,None,2025-02-06 13h03.01.541102 -0500
all_stimuli/special515/special_13613.jpg,3,0,3,3,0,,,,1,0,2,6,1,"[9, 21, 31, 45, 56, 68, 69]",2,1,,,['3'],None,None,,,,,[1.617136250002659],[0.5790158750023693],,,,,2,0,2,0,0,3,3,3,755.4979167499987,,,,,,,,,,,,,,,,,,,,,,755.3868030829908,755.3869530829979,755.4945092080015,755.4979167499987,755.4979167499987,755.4979167499987,755.4979167499987,758.4859141,758.4859141,759.3874287919898,None,0,,,['3'],759.3876509169932,759.3877079999947,None,759.3877644999884,759.3878057499969,None,,,,,,,,,[1.617136250002659],[0.5790158750023693],4,6,0,1,2025-02-06_13h02.45.189,rtmindeye,2024.2.4,None,2025-02-06 13h03.01.541102 -0500
all_stimuli/shared1000_notspecial/notspecial_28487.png,4,0,4,4,0,,,,0,0,2,6,1,"[9, 21, 31, 45, 56, 68, 69]",1,1,1.2459163739986252,0.24300558300456032,None,None,None,,,,,,,,,,,2,0,2,0,0,4,4,4,759.5491036669991,,,,,,,,,,,,,,,,,,,,,,759.3882228329894,759.3883776,759.5455317079904,759.5491036669991,759.5491036669991,759.5491036669991,759.5491036669991,762.5357478749938,762.5357478749938,763.3998597079917,2,0,1.2459163739986252,0.24300558300456032,None,763.4001308329898,763.4002419169992,None,763.4003145000024,763.4003715419967,None,,,,,,,,,,,4,6,0,1,2025-02-06_13h02.45.189,rtmindeye,2024.2.4,None,2025-02-06 13h03.01.541102 -0500
all_stimuli/special515/special_28524.jpg,5,0,5,5,0,,,,1,0,2,6,1,"[9, 21, 31, 45, 56, 68, 69]",2,1,,,['3'],None,None,,,,,[1.5753597489965614],[0.4140263340086676],,,,,2,0,2,0,0,5,5,5,763.4787182,,,,,,,,,,,,,,,,,,,,,,763.4010975419951,763.4014114169986,763.4745872079948,763.4787182,763.4787182,763.4787182,763.4787182,766.4698084580014,766.4698084580014,767.4030917919881,None,0,,,['3'],767.4032959579927,767.4033435000019,None,767.4033886249963,767.4034289999981,None,,,,,,,,,[1.5753597489965614],[0.4140263340086676],4,6,0,1,2025-02-06_13h02.45.189,rtmindeye,2024.2.4,None,2025-02-06 13h03.01.541102 -0500
all_stimuli/MST_pairs1/pair_44_w_log_cabin1.jpg,6,0,6,6,0,,,,0,0,2,6,1,"[9, 21, 31, 45, 56, 68, 69]",1,1,1.469328665989451,0.4849981250008568,None,None,None,,,,,,,,,,,2,0,2,0,0,6,6,6,767.5317162499996,,,,,,,,,,,,,,,,,,,,,,767.4038080419996,767.4039502079977,767.5281852920016,767.5317162499996,767.5317162499996,767.5317162499996,767.5317162499996,770.5196881250013,770.5196881250013,771.4170714579959,2,0,1.469328665989451,0.4849981250008568,None,771.4176279999956,771.4177351249964,None,771.4178366,771.4179284580023,None,,,,,,,,,,,4,6,0,1,2025-02-06_13h02.45.189,rtmindeye,2024.2.4,None,2025-02-06 13h03.01.541102 -0500
all_stimuli/special515/special_71241.jpg,7,0,7,7,0,,,,0,0,2,6,1,"[9, 21, 31, 45, 56, 68, 69]",1,1,0.9695283740002196,0.32601041700399946,None,None,None,,,,,,,,,,,2,0,2,0,0,7,7,7,771.5255607079889,,,,,,,,,,,,,,,,,,,,,,771.4186801249889,771.4189873329888,771.5222809580009,771.5255607079889,771.5255607079889,771.5255607079889,771.5255607079889,774.5207348749973,774.5207348749973,775.4211065,2,0,0.9695283740002196,0.32601041700399946,None,775.4212823330017,775.4213361669972,None,775.4213884579949,775.4214287499926,None,,,,,,,,,,,4,6,0,1,2025-02-06_13h02.45.189,rtmindeye,2024.2.4,None,2025-02-06 13h03.01.541102 -0500
all_stimuli/special515/special_68842.jpg,8,0,8,8,0,,,,0,0,2,6,1,"[9, 21, 31, 45, 56, 68, 69]",1,1,0.9213482489867602,0.38399966701399535,None,None,None,,,,,,,,,,,2,0,2,0,0,8,8,8,775.6136397919909,,,,,,,,,,,,,,,,,,,,,,775.4218445829902,775.4220234999957,775.6099708330003,775.6136397919909,775.6136397919909,775.6136397919909,775.6136397919909,778.6043412079889,778.6043412079889,779.4333100829972,2,0,0.9213482489867602,0.38399966701399535,None,779.4335212919977,779.4335733329935,None,779.4336215419899,779.4336547499988,None,,,,,,,,,,,4,6,0,1,2025-02-06_13h02.45.189,rtmindeye,2024.2.4,None,2025-02-06 13h03.01.541102 -0500
