current_image,trial_index,is_blank_trial,thisN,thisTrialN,thisRepN,press_if_repeat_2.keys,press_if_repeat_2.corr,all_keys_pressed_2.keys,is_repeat,is_new_run,run_num,sess_num,is_not_last_trial,all_blanks_list,press_if_repeat.keys,press_if_repeat.corr,press_if_repeat.rt,press_if_repeat.duration,all_keys_pressed.keys,key_resp_5.keys,key_resp_4.keys,key_resp_5.rt,key_resp_5.duration,key_resp_4.rt,key_resp_4.duration,practice.thisRepN,practice.thisTrialN,practice.thisN,practice.thisIndex,loop_runs.thisRepN,loop_runs.thisTrialN,loop_runs.thisN,loop_runs.thisIndex,loop_all_images.thisRepN,loop_all_images.thisTrialN,loop_all_images.thisN,loop_all_images.thisIndex,thisRow.t,notes,set_up.started,set_up.stopped,practice_continue.started,practice_continue.stopped,key_resp_6.keys,practice_trial.started,practice_trial.stopped,practice.press_if_repeat_2.keys,practice.press_if_repeat_2.corr,practice.all_keys_pressed_2.keys,testing_continue.started,testing_continue.stopped,key_resp_7.keys,waiting_fmri.started,key_resp_2.started,text_3.started,waiting_fmri.stopped,key_resp_2.keys,key_resp_2.rt,key_resp_2.duration,set_skips_and_correct_key.started,set_skips_and_correct_key.stopped,trial.started,image.started,press_if_repeat.started,polygon.started,all_keys_pressed.started,image.stopped,press_if_repeat.stopped,trial.stopped,loop_all_images.press_if_repeat.keys,loop_all_images.press_if_repeat.corr,loop_all_images.press_if_repeat.rt,loop_all_images.press_if_repeat.duration,loop_all_images.all_keys_pressed.keys,run_wait2_2.started,run_wait2_2.stopped,loop_all_images.key_resp_5.keys,waiting_fmri_2.started,waiting_fmri_2.stopped,loop_all_images.key_resp_4.keys,polygon.stopped,all_keys_pressed.stopped,key_resp_5.started,text_5.started,loop_all_images.key_resp_5.rt,loop_all_images.key_resp_5.duration,key_resp_4.started,text_4.started,loop_all_images.key_resp_4.rt,loop_all_images.key_resp_4.duration,participant,session (1 2 or 3),starting_run,skip_practice,date,expName,psychopyVersion,frameRate,expStart,
,,,,,,,,,,,,,,,,,,,,,,,,,,,,,,,,,,,,,,,,0.001664099982008338,0.0017383000813424587,,,,,,,,,,,,,,,,,,,,,,,,,,,,,,,,,,,,,,,,,,,,,,,,,,5,6,0,1,2025-04-17_11h07.37.015,rtmindeye,2024.2.4,60.06272951688982,2025-04-17 11h11.13.931195 -0400,
,,,,,,,,,,,,,,,,,,,,,,,,,,,,,,,,,,,,,,,,,,0.006025900132954121,0.006053999997675419,None,,,,,,,,,,,,,,,,,,,,,,,,,,,,,,,,,,,,,,,,,,,,,,,5,6,0,1,2025-04-17_11h07.37.015,rtmindeye,2024.2.4,60.06272951688982,2025-04-17 11h11.13.931195 -0400,
practice_images/w_kitchen2.jpg,0,0,0,0,0,None,0,None,,,,,,,,,,,,,,,,,,0,0,0,0,,,,,,,,,0.18061279994435608,,,,,,,0.03970180009491742,0.03974410006776452,None,0,None,,,,,,,,,,,,,,,,,,,,,,,,,,,,,,,,,,,,,,,,,,5,6,0,1,2025-04-17_11h07.37.015,rtmindeye,2024.2.4,60.06272951688982,2025-04-17 11h11.13.931195 -0400,
practice_images/w_boardwalk2.jpg,1,0,1,1,0,None,0,None,,,,,,,,,,,,,,,,,,0,1,1,1,,,,,,,,,0.18061279994435608,,,,,,,0.05153180006891489,0.051566499983891845,None,0,None,,,,,,,,,,,,,,,,,,,,,,,,,,,,,,,,,,,,,,,,,,5,6,0,1,2025-04-17_11h07.37.015,rtmindeye,2024.2.4,60.06272951688982,2025-04-17 11h11.13.931195 -0400,
practice_images/w_monument2.jpg,2,0,2,2,0,None,0,None,,,,,,,,,,,,,,,,,,0,2,2,2,,,,,,,,,0.18061279994435608,,,,,,,0.06368080014362931,0.06371610006317496,None,0,None,,,,,,,,,,,,,,,,,,,,,,,,,,,,,,,,,,,,,,,,,,5,6,0,1,2025-04-17_11h07.37.015,rtmindeye,2024.2.4,60.06272951688982,2025-04-17 11h11.13.931195 -0400,
practice_images/w_auditorium2.jpg,3,0,3,3,0,None,0,None,,,,,,,,,,,,,,,,,,0,3,3,3,,,,,,,,,0.18061279994435608,,,,,,,0.08523269998840988,0.08526740013621747,None,0,None,,,,,,,,,,,,,,,,,,,,,,,,,,,,,,,,,,,,,,,,,,5,6,0,1,2025-04-17_11h07.37.015,rtmindeye,2024.2.4,60.06272951688982,2025-04-17 11h11.13.931195 -0400,
practice_images/w_kitchen2.jpg,4,0,4,4,0,None,0,None,,,,,,,,,,,,,,,,,,0,4,4,4,,,,,,,,,0.18061279994435608,,,,,,,0.08975609997287393,0.08978960011154413,None,0,None,,,,,,,,,,,,,,,,,,,,,,,,,,,,,,,,,,,,,,,,,,5,6,0,1,2025-04-17_11h07.37.015,rtmindeye,2024.2.4,60.06272951688982,2025-04-17 11h11.13.931195 -0400,
practice_images/w_auditorium1.jpg,5,0,5,5,0,None,0,None,,,,,,,,,,,,,,,,,,0,5,5,5,,,,,,,,,0.18061279994435608,,,,,,,0.11673730006441474,0.11677820002660155,None,0,None,,,,,,,,,,,,,,,,,,,,,,,,,,,,,,,,,,,,,,,,,,5,6,0,1,2025-04-17_11h07.37.015,rtmindeye,2024.2.4,60.06272951688982,2025-04-17 11h11.13.931195 -0400,
practice_images/w_bedroom2.jpg,6,0,6,6,0,None,0,None,,,,,,,,,,,,,,,,,,0,6,6,6,,,,,,,,,0.18061279994435608,,,,,,,0.1277944000903517,0.12782720010727644,None,0,None,,,,,,,,,,,,,,,,,,,,,,,,,,,,,,,,,,,,,,,,,,5,6,0,1,2025-04-17_11h07.37.015,rtmindeye,2024.2.4,60.06272951688982,2025-04-17 11h11.13.931195 -0400,
practice_images/w_kitchen1.jpg,7,0,7,7,0,None,0,None,,,,,,,,,,,,,,,,,,0,7,7,7,,,,,,,,,0.18061279994435608,,,,,,,0.1394313001073897,0.13947109994478524,None,0,None,,,,,,,,,,,,,,,,,,,,,,,,,,,,,,,,,,,,,,,,,,5,6,0,1,2025-04-17_11h07.37.015,rtmindeye,2024.2.4,60.06272951688982,2025-04-17 11h11.13.931195 -0400,
practice_images/w_bedroom1.jpg,8,0,8,8,0,None,0,None,,,,,,,,,,,,,,,,,,0,8,8,8,,,,,,,,,0.18061279994435608,,,,,,,0.16767250001430511,0.16772300004959106,None,0,None,,,,,,,,,,,,,,,,,,,,,,,,,,,,,,,,,,,,,,,,,,5,6,0,1,2025-04-17_11h07.37.015,rtmindeye,2024.2.4,60.06272951688982,2025-04-17 11h11.13.931195 -0400,
practice_images/w_monument2.jpg,9,0,9,9,0,None,0,None,,,,,,,,,,,,,,,,,,0,9,9,9,,,,,,,,,0.18061279994435608,,,,,,,0.17232100013643503,0.17236920003779233,None,0,None,,,,,,,,,,,,,,,,,,,,,,,,,,,,,,,,,,,,,,,,,,5,6,0,1,2025-04-17_11h07.37.015,rtmindeye,2024.2.4,60.06272951688982,2025-04-17 11h11.13.931195 -0400,
,,,,,,,,,,,,,,,,,,,,,,,,,,,,,,,,,,,,,,,,,,,,,,,,,,0.17825340013951063,0.17827900010161102,None,,,,,,,,,,,,,,,,,,,,,,,,,,,,,,,,,,,,,,,5,6,0,1,2025-04-17_11h07.37.015,rtmindeye,2024.2.4,60.06272951688982,2025-04-17 11h11.13.931195 -0400,
,,,,,,,,,,,,,,,,,,,,,,,,,,,,,,,,,,,,,,,,,,,,,,,,,,,,,0.17830249993130565,0.18061279994435608,0.18061279994435608,111.15361810009927,equal,110.95568450004794,None,,,,,,,,,,,,,,,,,,,,,,,,,,,,,,,,5,6,0,1,2025-04-17_11h07.37.015,rtmindeye,2024.2.4,60.06272951688982,2025-04-17 11h11.13.931195 -0400,
all_stimuli/special515/special_13613.jpg,0,0,0,0,0,,,,0,0,0,6,1,"[9, 21, 31, 45, 56, 68, 69]",1,1,1.217052899999544,0.2078466999810189,None,None,None,,,,,,,,,0,0,0,0,0,0,0,0,111.20222710003145,,,,,,,,,,,,,,,,,,,,,,111.18236230011098,111.18246149993502,111.19835110008717,111.20222710003145,111.20222710003145,111.20222710003145,111.20222710003145,114.20856690010987,114.20856690010987,115.19218969997019,1,1,1.217052899999544,0.2078466999810189,None,115.19226170005277,115.1922844001092,None,115.19230780005455,115.19232590007596,None,,,,,,,,,,,5,6,0,1,2025-04-17_11h07.37.015,rtmindeye,2024.2.4,60.06272951688982,2025-04-17 11h11.13.931195 -0400,
all_stimuli/shared1000_notspecial/notspecial_31049.png,1,0,1,1,0,,,,0,0,0,6,1,"[9, 21, 31, 45, 56, 68, 69]",1,1,0.8521756001282483,0.18200579984113574,None,None,None,,,,,,,,,0,0,0,0,0,1,1,1,115.23404529993422,,,,,,,,,,,,,,,,,,,,,,115.19248070009053,115.19252420007251,115.2323400999885,115.23404529993422,115.23404529993422,115.23404529993422,115.23404529993422,118.24181400006637,118.24181400006637,119.20854420005344,1,1,0.8521756001282483,0.18200579984113574,None,119.20861410000362,119.20863420004025,None,119.20865739998408,119.20867490000091,None,,,,,,,,,,,5,6,0,1,2025-04-17_11h07.37.015,rtmindeye,2024.2.4,60.06272951688982,2025-04-17 11h11.13.931195 -0400,
all_stimuli/special515/special_28096.jpg,2,0,2,2,0,,,,0,0,0,6,1,"[9, 21, 31, 45, 56, 68, 69]",1,1,0.7632516999728978,0.17276609991677105,None,None,None,,,,,,,,,0,0,0,0,0,2,2,2,119.22613300010562,,,,,,,,,,,,,,,,,,,,,,119.20882609998807,119.20887139998376,119.22324590012431,119.22613300010562,119.22613300010562,119.22613300010562,119.22613300010562,122.22533029993065,122.22533029993065,123.20874159992673,1,1,0.7632516999728978,0.17276609991677105,None,123.20880599995144,123.20882540009916,None,123.20884900004603,123.2088685000781,None,123.28714450006373,123.28714450006373,,,,,,,,,5,6,0,1,2025-04-17_11h07.37.015,rtmindeye,2024.2.4,60.06272951688982,2025-04-17 11h11.13.931195 -0400,
all_stimuli/shared1000_notspecial/notspecial_68471.png,3,0,3,3,0,,,,0,0,0,6,1,"[9, 21, 31, 45, 56, 68, 69]",1,1,1.0371220000088215,0.19294059998355806,None,None,None,,,,,,,,,0,0,0,0,0,3,3,3,123.28714450006373,,,,,,,,,,,,,,,,,,,,,,123.20901639992371,123.20905459998176,123.28337590000592,123.28714450006373,123.28714450006373,123.28714450006373,123.28714450006373,126.29182859999128,126.29182859999128,127.22520609991625,1,1,1.0371220000088215,0.19294059998355806,None,127.22527660010383,127.22529710014351,None,127.22532050008886,127.22533820010722,None,,,,,,,,,,,5,6,0,1,2025-04-17_11h07.37.015,rtmindeye,2024.2.4,60.06272951688982,2025-04-17 11h11.13.931195 -0400,
all_stimuli/special515/special_15506.jpg,4,0,4,4,0,,,,0,0,0,6,1,"[9, 21, 31, 45, 56, 68, 69]",1,1,0.8468917000573128,0.2160775000229478,None,None,None,,,,,,,,,0,0,0,0,0,4,4,4,127.24235710012726,,,,,,,,,,,,,,,,,,,,,,127.2254945000168,127.225538500119,127.24056169996038,127.24235710012726,127.24235710012726,127.24235710012726,127.24235710012726,130.24184189992957,130.24184189992957,131.22531810007058,1,1,0.8468917000573128,0.2160775000229478,None,131.22538279998116,131.22540230001323,None,131.22542580007575,131.2254429999739,None,131.54422900010832,131.54422900010832,,,,,,,,,5,6,0,1,2025-04-17_11h07.37.015,rtmindeye,2024.2.4,60.06272951688982,2025-04-17 11h11.13.931195 -0400,
all_stimuli/MST_pairs1/pair_24_nsd_158_1_cocoid_2285.png,5,0,5,5,0,,,,0,0,0,6,1,"[9, 21, 31, 45, 56, 68, 69]",1,1,0.8690005000680685,0.22896820004098117,None,None,None,,,,,,,,,0,0,0,0,0,5,5,5,131.54422900010832,,,,,,,,,,,,,,,,,,,,,,131.22559239994735,131.22563040000387,131.54016930004582,131.54422900010832,131.54422900010832,131.54422900010832,131.54422900010832,134.55832850001752,134.55832850001752,135.2419219999574,1,1,0.8690005000680685,0.22896820004098117,None,135.24199130013585,135.24201170005836,None,135.24203550000675,135.2420530000236,None,,,,,,,,,,,5,6,0,1,2025-04-17_11h07.37.015,rtmindeye,2024.2.4,60.06272951688982,2025-04-17 11h11.13.931195 -0400,
all_stimuli/MST_pairs1/pair_10_14_89.png,6,0,6,6,0,,,,0,0,0,6,1,"[9, 21, 31, 45, 56, 68, 69]",1,1,0.945869900053367,0.3142635999247432,None,None,None,,,,,,,,,0,0,0,0,0,6,6,6,135.26228619995527,,,,,,,,,,,,,,,,,,,,,,135.24220520001836,135.24224990000948,135.26049540005624,135.26228619995527,135.26228619995527,135.26228619995527,135.26228619995527,138.27516150008887,138.27516150008887,139.25857970002107,1,1,0.945869900053367,0.3142635999247432,None,139.2586491999682,139.2586741000414,None,139.25869869999588,139.2587162000127,None,,,,,,,,,,,5,6,0,1,2025-04-17_11h07.37.015,rtmindeye,2024.2.4,60.06272951688982,2025-04-17 11h11.13.931195 -0400,
all_stimuli/special515/special_62015.jpg,7,0,7,7,0,,,,0,0,0,6,1,"[9, 21, 31, 45, 56, 68, 69]",1,1,0.6939612999558449,0.19183510006405413,None,None,None,,,,,,,,,0,0,0,0,0,7,7,7,139.27539240010083,,,,,,,,,,,,,,,,,,,,,,139.25887240003794,139.2589168001432,139.27223620004952,139.27539240010083,139.27539240010083,139.27539240010083,139.27539240010083,142.27519810013473,142.27519810013473,143.2586344999727,1,1,0.6939612999558449,0.19183510006405413,None,143.2586992001161,143.258718600031,None,143.258741900092,143.2587592001073,None,143.29454810009338,143.29454810009338,,,,,,,,,5,6,0,1,2025-04-17_11h07.37.015,rtmindeye,2024.2.4,60.06272951688982,2025-04-17 11h11.13.931195 -0400,
all_stimuli/special515/special_47687.jpg,8,0,8,8,0,,,,0,0,0,6,1,"[9, 21, 31, 45, 56, 68, 69]",1,1,0.7378324000164866,0.2127503000665456,None,None,None,,,,,,,,,0,0,0,0,0,8,8,8,143.29454810009338,,,,,,,,,,,,,,,,,,,,,,143.25890929996967,143.25894780014642,143.292447200045,143.29454810009338,143.29454810009338,143.29454810009338,143.29454810009338,146.30867519997992,146.30867519997992,147.27530899993144,1,1,0.7378324000164866,0.2127503000665456,None,147.27538130013272,147.27540139993653,None,147.27542510000058,147.27544200001284,None,,,,,,,,,,,5,6,0,1,2025-04-17_11h07.37.015,rtmindeye,2024.2.4,60.06272951688982,2025-04-17 11h11.13.931195 -0400,
blank.jpg,9,1,9,9,0,,,,0,0,0,6,1,"[9, 21, 31, 45, 56, 68, 69]",None,0,,,None,None,None,,,,,,,,,0,0,0,0,0,9,9,9,147.2934810000006,,,,,,,,,,,,,,,,,,,,,,147.27559900004417,147.2756495999638,147.29158580000512,147.2934810000006,147.2934810000006,147.2934810000006,147.2934810000006,150.30869540013373,150.30869540013373,151.2918891001027,None,0,,,None,151.29195360001177,151.29197439993732,None,151.29199800011702,151.2920156000182,None,,,,,,,,,,,5,6,0,1,2025-04-17_11h07.37.015,rtmindeye,2024.2.4,60.06272951688982,2025-04-17 11h11.13.931195 -0400,
all_stimuli/special515/special_4249.jpg,10,0,10,10,0,,,,0,0,0,6,1,"[9, 21, 31, 45, 56, 68, 69]",1,1,0.7174512001220137,0.2180476998910308,None,None,None,,,,,,,,,0,0,0,0,0,10,10,10,151.30868860008195,,,,,,,,,,,,,,,,,,,,,,151.29216840001754,151.29221270000562,151.30497639998794,151.30868860008195,151.30868860008195,151.30868860008195,151.30868860008195,154.3084929001052,154.3084929001052,155.29199360008352,1,1,0.7174512001220137,0.2180476998910308,None,155.29205900011584,155.29207889991812,None,155.29210299998522,155.292120099999,None,155.3086733999662,155.3086733999662,,,,,,,,,5,6,0,1,2025-04-17_11h07.37.015,rtmindeye,2024.2.4,60.06272951688982,2025-04-17 11h11.13.931195 -0400,
all_stimuli/special515/special_54361.jpg,11,0,11,11,0,,,,0,0,0,6,1,"[9, 21, 31, 45, 56, 68, 69]",1,1,0.8715606001205742,0.21201939997263253,None,None,None,,,,,,,,,0,0,0,0,0,11,11,11,155.3086733999662,,,,,,,,,,,,,,,,,,,,,,155.29227000009269,155.29230799991637,155.3048992000986,155.3086733999662,155.3086733999662,155.3086733999662,155.3086733999662,158.30865209992044,158.30865209992044,159.2920141001232,1,1,0.8715606001205742,0.21201939997263253,None,159.2920786999166,159.29209850006737,None,159.29212150000967,159.29213850013912,None,159.30983679997735,159.30983679997735,,,,,,,,,5,6,0,1,2025-04-17_11h07.37.015,rtmindeye,2024.2.4,60.06272951688982,2025-04-17 11h11.13.931195 -0400,
all_stimuli/special515/special_6489.jpg,12,0,12,12,0,,,,0,0,0,6,1,"[9, 21, 31, 45, 56, 68, 69]",1,1,0.8784545999951661,0.19396120007149875,None,None,None,,,,,,,,,0,0,0,0,0,12,12,12,159.30983679997735,,,,,,,,,,,,,,,,,,,,,,159.29228590009734,159.29232360003516,159.30812750011683,159.30983679997735,159.30983679997735,159.30983679997735,159.30983679997735,162.32516200002283,162.32516200002283,163.30849480000325,1,1,0.8784545999951661,0.19396120007149875,None,163.30856500007212,163.3085855001118,None,163.3086093000602,163.3086266000755,None,,,,,,,,,,,5,6,0,1,2025-04-17_11h07.37.015,rtmindeye,2024.2.4,60.06272951688982,2025-04-17 11h11.13.931195 -0400,
all_stimuli/special515/special_38641.jpg,13,0,13,13,0,,,,0,0,0,6,1,"[9, 21, 31, 45, 56, 68, 69]",1,1,0.8873191999737173,0.38200780004262924,None,None,None,,,,,,,,,0,0,0,0,0,13,13,13,163.34285459993407,,,,,,,,,,,,,,,,,,,,,,163.30878380010836,163.30882819998078,163.34097709995694,163.34285459993407,163.34285459993407,163.34285459993407,163.34285459993407,166.35822269995697,166.35822269995697,167.32525320001878,1,1,0.8873191999737173,0.38200780004262924,None,167.32532420009375,167.32534470013343,None,167.32536850008182,167.32538589998148,None,,,,,,,,,,,5,6,0,1,2025-04-17_11h07.37.015,rtmindeye,2024.2.4,60.06272951688982,2025-04-17 11h11.13.931195 -0400,
all_stimuli/shared1000_notspecial/notspecial_67168.png,14,0,14,14,0,,,,0,0,0,6,1,"[9, 21, 31, 45, 56, 68, 69]",1,1,0.6965136001817882,0.16318139992654324,None,None,None,,,,,,,,,0,0,0,0,0,14,14,14,167.34374890010804,,,,,,,,,,,,,,,,,,,,,,167.32554230000824,167.3255865999963,167.34204300004058,167.34374890010804,167.34374890010804,167.34374890010804,167.34374890010804,170.3585920999758,170.3585920999758,171.34200399997644,1,1,0.6965136001817882,0.16318139992654324,None,171.34207340003923,171.34209330007434,None,171.34211750002578,171.34213549993,None,,,,,,,,,,,5,6,0,1,2025-04-17_11h07.37.015,rtmindeye,2024.2.4,60.06272951688982,2025-04-17 11h11.13.931195 -0400,
all_stimuli/shared1000_notspecial/notspecial_59079.png,15,0,15,15,0,,,,0,0,0,6,1,"[9, 21, 31, 45, 56, 68, 69]",1,1,0.8234949000179768,0.1801507999189198,None,None,None,,,,,,,,,0,0,0,0,0,15,15,15,171.36962529993616,,,,,,,,,,,,,,,,,,,,,,171.34228649991564,171.34233060013503,171.3679997001309,171.36962529993616,171.36962529993616,171.36962529993616,171.36962529993616,174.3756220000796,174.3756220000796,175.35870400001295,1,1,0.8234949000179768,0.1801507999189198,None,175.35877500008792,175.3587952000089,None,175.35881879995577,175.3588362999726,None,,,,,,,,,,,5,6,0,1,2025-04-17_11h07.37.015,rtmindeye,2024.2.4,60.06272951688982,2025-04-17 11h11.13.931195 -0400,
all_stimuli/MST_pairs1/pair_2_4_89.png,16,0,16,16,0,,,,0,0,0,6,1,"[9, 21, 31, 45, 56, 68, 69]",1,1,0.7742486000061035,0.18999770004302263,None,None,None,,,,,,,,,0,0,0,0,0,16,16,16,175.37701499997638,,,,,,,,,,,,,,,,,,,,,,175.35899169999175,175.35903850011528,175.37531549995765,175.37701499997638,175.37701499997638,175.37701499997638,175.37701499997638,178.3920533999335,178.3920533999335,179.37553820014,1,1,0.7742486000061035,0.18999770004302263,None,179.37561099999584,179.37563119991682,None,179.37565489998087,179.37567210011184,None,,,,,,,,,,,5,6,0,1,2025-04-17_11h07.37.015,rtmindeye,2024.2.4,60.06272951688982,2025-04-17 11h11.13.931195 -0400,
all_stimuli/shared1000_notspecial/notspecial_26127.png,17,0,17,17,0,,,,0,0,0,6,1,"[9, 21, 31, 45, 56, 68, 69]",1,1,0.7286752997897565,0.20292130019515753,None,None,None,,,,,,,,,0,0,0,0,0,17,17,17,179.40359480003826,,,,,,,,,,,,,,,,,,,,,,179.37582860002294,179.37587460014038,179.4019860001281,179.40359480003826,179.40359480003826,179.40359480003826,179.40359480003826,182.40869130007923,182.40869130007923,183.39189149998128,1,1,0.7286752997897565,0.20292130019515753,None,183.39196170005016,183.39198200008832,None,183.39200600003824,183.39202399994247,None,,,,,,,,,,,5,6,0,1,2025-04-17_11h07.37.015,rtmindeye,2024.2.4,60.06272951688982,2025-04-17 11h11.13.931195 -0400,
all_stimuli/shared1000_notspecial/notspecial_20223.png,18,0,18,18,0,,,,0,0,0,6,1,"[9, 21, 31, 45, 56, 68, 69]",1,1,0.7378187000285834,0.24787530000321567,None,None,None,,,,,,,,,0,0,0,0,0,18,18,18,183.4334406000562,,,,,,,,,,,,,,,,,,,,,,183.3921924000606,183.39223630004562,183.43183659994975,183.4334406000562,183.4334406000562,183.4334406000562,183.4334406000562,186.44197740009986,186.44197740009986,187.4087831999641,1,1,0.7378187000285834,0.24787530000321567,None,187.4088532999158,187.40887379995547,None,187.4088983000256,187.4089162000455,None,,,,,,,,,,,5,6,0,1,2025-04-17_11h07.37.015,rtmindeye,2024.2.4,60.06272951688982,2025-04-17 11h11.13.931195 -0400,
all_stimuli/special515/special_62015.jpg,19,0,19,19,0,,,,1,0,0,6,1,"[9, 21, 31, 45, 56, 68, 69]",2,1,0.7818926000036299,0.27090909983962774,None,None,None,,,,,,,,,0,0,0,0,0,19,19,19,187.42535239993595,,,,,,,,,,,,,,,,,,,,,,187.40907160006464,187.40911550004967,187.42037199996412,187.42535239993595,187.42535239993595,187.42535239993595,187.42535239993595,190.42554130009376,190.42554130009376,191.40867580007762,2,1,0.7818926000036299,0.27090909983962774,None,191.40874009998515,191.4087597001344,None,191.40878390008584,191.40880140010267,None,191.42499400000088,191.42499400000088,,,,,,,,,5,6,0,1,2025-04-17_11h07.37.015,rtmindeye,2024.2.4,60.06272951688982,2025-04-17 11h11.13.931195 -0400,
all_stimuli/special515/special_10244.jpg,20,0,20,20,0,,,,0,0,0,6,1,"[9, 21, 31, 45, 56, 68, 69]",1,1,1.1623932998627424,0.20085850008763373,None,None,None,,,,,,,,,0,0,0,0,0,20,20,20,191.42499400000088,,,,,,,,,,,,,,,,,,,,,,191.40895080007613,191.40898940013722,191.42281399993226,191.42499400000088,191.42499400000088,191.42499400000088,191.42499400000088,194.4249712000601,194.4249712000601,195.40855509997346,1,1,1.1623932998627424,0.20085850008763373,None,195.40862719994038,195.40864749997854,None,195.4086726999376,195.40869039995596,None,196.36624360014684,196.36624360014684,,,,,,,,,5,6,0,1,2025-04-17_11h07.37.015,rtmindeye,2024.2.4,60.06272951688982,2025-04-17 11h11.13.931195 -0400,
blank.jpg,21,1,21,21,0,,,,0,0,0,6,1,"[9, 21, 31, 45, 56, 68, 69]",None,0,,,None,None,None,,,,,,,,,0,0,0,0,0,21,21,21,196.36624360014684,,,,,,,,,,,,,,,,,,,,,,195.4088495001197,195.40889049996622,196.3627095001284,196.36624360014684,196.36624360014684,196.36624360014684,196.36624360014684,199.37527370010503,199.37527370010503,199.42532319994643,None,0,,,None,199.42538619996049,199.42540600011125,None,199.4254294000566,199.4254465000704,None,,,,,,,,,,,5,6,0,1,2025-04-17_11h07.37.015,rtmindeye,2024.2.4,60.06272951688982,2025-04-17 11h11.13.931195 -0400,
all_stimuli/special515/special_28524.jpg,22,0,22,22,0,,,,0,0,0,6,1,"[9, 21, 31, 45, 56, 68, 69]",1,1,1.3659664001315832,0.3658090999815613,None,None,None,,,,,,,,,0,0,0,0,0,22,22,22,199.45748830004595,,,,,,,,,,,,,,,,,,,,,,199.4255937000271,199.42563720000908,199.4551832000725,199.45748830004595,199.45748830004595,199.45748830004595,199.45748830004595,202.45864060008898,202.45864060008898,203.44182340009138,1,1,1.3659664001315832,0.3658090999815613,None,203.4418955000583,203.44191629998386,None,203.44194089993834,203.44195830007084,None,,,,,,,,,,,5,6,0,1,2025-04-17_11h07.37.015,rtmindeye,2024.2.4,60.06272951688982,2025-04-17 11h11.13.931195 -0400,
all_stimuli/special515/special_30430.jpg,23,0,23,23,0,,,,0,0,0,6,1,"[9, 21, 31, 45, 56, 68, 69]",1,1,0.8958405000157654,0.2738785999827087,None,None,None,,,,,,,,,0,0,0,0,0,23,23,23,203.45845340006053,,,,,,,,,,,,,,,,,,,,,,203.44211610010825,203.4421620001085,203.45654159993865,203.45845340006053,203.45845340006053,203.45845340006053,203.45845340006053,206.4587662999984,206.4587662999984,207.44191740010865,1,1,0.8958405000157654,0.2738785999827087,None,207.44198130001314,207.44200089992955,None,207.44202470011078,207.44204160012305,None,207.46191260009073,207.46191260009073,,,,,,,,,5,6,0,1,2025-04-17_11h07.37.015,rtmindeye,2024.2.4,60.06272951688982,2025-04-17 11h11.13.931195 -0400,
all_stimuli/MST_pairs1/pair_10_14_33.png,24,0,24,24,0,,,,0,0,0,6,1,"[9, 21, 31, 45, 56, 68, 69]",1,1,1.8274551001377404,0.24798649991862476,None,None,None,,,,,,,,,0,0,0,0,0,24,24,24,207.46191260009073,,,,,,,,,,,,,,,,,,,,,,207.44218669994734,207.44222490000539,207.46021350007504,207.46191260009073,207.46191260009073,207.46191260009073,207.46191260009073,210.47508320002817,210.47508320002817,211.4585715001449,1,1,1.8274551001377404,0.24798649991862476,None,211.45864220010117,211.45866270014085,None,211.45868630008772,211.4587034001015,None,,,,,,,,,,,5,6,0,1,2025-04-17_11h07.37.015,rtmindeye,2024.2.4,60.06272951688982,2025-04-17 11h11.13.931195 -0400,
all_stimuli/shared1000_notspecial/notspecial_10907.png,25,0,25,25,0,,,,0,0,0,6,1,"[9, 21, 31, 45, 56, 68, 69]",1,1,0.9874830001499504,0.19505749992094934,None,None,None,,,,,,,,,0,0,0,0,0,25,25,25,211.47571020014584,,,,,,,,,,,,,,,,,,,,,,211.45886010001414,211.45890359999612,211.47407010011375,211.47571020014584,211.47571020014584,211.47571020014584,211.47571020014584,214.4750795001164,214.4750795001164,215.45890909992158,1,1,0.9874830001499504,0.19505749992094934,None,215.45897420006804,215.45899410010315,None,215.45901770005003,215.4590346000623,None,215.4803754000459,215.4803754000459,,,,,,,,,5,6,0,1,2025-04-17_11h07.37.015,rtmindeye,2024.2.4,60.06272951688982,2025-04-17 11h11.13.931195 -0400,
all_stimuli/special515/special_22587.jpg,26,0,26,26,0,,,,0,0,0,6,1,"[9, 21, 31, 45, 56, 68, 69]",1,1,1.5190381999127567,0.23590350011363626,None,None,None,,,,,,,,,0,0,0,0,0,26,26,26,215.4803754000459,,,,,,,,,,,,,,,,,,,,,,215.45918869995512,215.45922800013795,215.4784393000882,215.4803754000459,215.4803754000459,215.4803754000459,215.4803754000459,218.49181729997508,218.49181729997508,219.4754906001035,1,1,1.5190381999127567,0.23590350011363626,None,219.47556010005064,219.47558069997467,None,219.4756048999261,219.47562299994752,None,,,,,,,,,,,5,6,0,1,2025-04-17_11h07.37.015,rtmindeye,2024.2.4,60.06272951688982,2025-04-17 11h11.13.931195 -0400,
all_stimuli/special515/special_3687.jpg,27,0,27,27,0,,,,0,0,0,6,1,"[9, 21, 31, 45, 56, 68, 69]",1,1,1.0840614000335336,0.3660018998198211,None,None,None,,,,,,,,,0,0,0,0,0,27,27,27,219.49209920014255,,,,,,,,,,,,,,,,,,,,,,219.4757777999621,219.4758224999532,219.49037629994564,219.49209920014255,219.49209920014255,219.49209920014255,219.49209920014255,222.49184009991586,222.49184009991586,223.47554369992577,1,1,1.0840614000335336,0.3660018998198211,None,223.47560820006765,223.4756275000982,None,223.47565110004507,223.47566789994016,None,223.49385700002313,223.49385700002313,,,,,,,,,5,6,0,1,2025-04-17_11h07.37.015,rtmindeye,2024.2.4,60.06272951688982,2025-04-17 11h11.13.931195 -0400,
all_stimuli/shared1000_notspecial/notspecial_58164.png,28,0,28,28,0,,,,0,0,0,6,1,"[9, 21, 31, 45, 56, 68, 69]",1,1,1.003343200078234,0.18813419993966818,None,None,None,,,,,,,,,0,0,0,0,0,28,28,28,223.49385700002313,,,,,,,,,,,,,,,,,,,,,,223.47581929992884,223.4758576999884,223.49193980009295,223.49385700002313,223.49385700002313,223.49385700002313,223.49385700002313,226.50853300001472,226.50853300001472,227.49192010005936,1,1,1.003343200078234,0.18813419993966818,None,227.49198950012214,227.49200970004313,None,227.49203320010565,227.49205050012097,None,,,,,,,,,,,5,6,0,1,2025-04-17_11h07.37.015,rtmindeye,2024.2.4,60.06272951688982,2025-04-17 11h11.13.931195 -0400,
all_stimuli/special515/special_38494.jpg,29,0,29,29,0,,,,0,0,0,6,1,"[9, 21, 31, 45, 56, 68, 69]",1,1,0.8005035000387579,0.23708510003052652,None,None,None,,,,,,,,,0,0,0,0,0,29,29,29,227.5085931001231,,,,,,,,,,,,,,,,,,,,,,227.49221060005948,227.4922545000445,227.50536750000902,227.5085931001231,227.5085931001231,227.5085931001231,227.5085931001231,230.50869120005518,230.50869120005518,231.4920372001361,1,1,0.8005035000387579,0.23708510003052652,None,231.49210070003755,231.49211960006505,None,231.49214340001345,231.49216060014442,None,231.51077760010958,231.51077760010958,,,,,,,,,5,6,0,1,2025-04-17_11h07.37.015,rtmindeye,2024.2.4,60.06272951688982,2025-04-17 11h11.13.931195 -0400,
all_stimuli/MST_pairs1/pair_12_16_22.png,30,0,30,30,0,,,,0,0,0,6,1,"[9, 21, 31, 45, 56, 68, 69]",1,1,0.8624652998987585,0.2529050000011921,None,None,None,,,,,,,,,0,0,0,0,0,30,30,30,231.51077760010958,,,,,,,,,,,,,,,,,,,,,,231.49230869999155,231.492350500077,231.5089539999608,231.51077760010958,231.51077760010958,231.51077760010958,231.51077760010958,234.5249229001347,234.5249229001347,235.50818130001426,1,1,0.8624652998987585,0.2529050000011921,None,235.5082521000877,235.50827190000564,None,235.50829520006664,235.508312900085,None,,,,,,,,,,,5,6,0,1,2025-04-17_11h07.37.015,rtmindeye,2024.2.4,60.06272951688982,2025-04-17 11h11.13.931195 -0400,
blank.jpg,31,1,31,31,0,,,,0,0,0,6,1,"[9, 21, 31, 45, 56, 68, 69]",None,0,,,None,None,None,,,,,,,,,0,0,0,0,0,31,31,31,235.52536590001546,,,,,,,,,,,,,,,,,,,,,,235.50846570008434,235.5085094999522,235.5157298000995,235.52536590001546,235.52536590001546,235.52536590001546,235.52536590001546,238.5251142999623,238.5251142999623,239.508772399975,None,0,,,None,239.508838100126,239.50885839993134,None,239.50888220011257,239.50889930012636,None,,,,,,,,,,,5,6,0,1,2025-04-17_11h07.37.015,rtmindeye,2024.2.4,60.06272951688982,2025-04-17 11h11.13.931195 -0400,
all_stimuli/special515/special_66489.jpg,32,0,32,32,0,,,,0,0,0,6,1,"[9, 21, 31, 45, 56, 68, 69]",1,1,0.810303500154987,0.23797070002183318,None,None,None,,,,,,,,,0,0,0,0,0,32,32,32,239.52791110007092,,,,,,,,,,,,,,,,,,,,,,239.50905120000243,239.50909529998899,239.52593210013583,239.52791110007092,239.52791110007092,239.52791110007092,239.52791110007092,242.54184920014814,242.54184920014814,243.52540499996394,1,1,0.810303500154987,0.23797070002183318,None,243.52547549991868,243.5254953999538,None,243.52551930001937,243.52553629991598,None,,,,,,,,,,,5,6,0,1,2025-04-17_11h07.37.015,rtmindeye,2024.2.4,60.06272951688982,2025-04-17 11h11.13.931195 -0400,
all_stimuli/MST_pairs1/pair_28_nsd_547_1_cocoid_60932.png,33,0,33,33,0,,,,0,0,0,6,1,"[9, 21, 31, 45, 56, 68, 69]",1,1,0.8484332000371069,0.23106350004673004,None,None,None,,,,,,,,,0,0,0,0,0,33,33,33,243.5577603999991,,,,,,,,,,,,,,,,,,,,,,243.5256882000249,243.52573559992015,243.55596030014567,243.5577603999991,243.5577603999991,243.5577603999991,243.5577603999991,246.55866290000267,246.55866290000267,247.5419566000346,1,1,0.8484332000371069,0.23106350004673004,None,247.54202680010349,247.54204710014164,None,247.54207030008547,247.5420874999836,None,,,,,,,,,,,5,6,0,1,2025-04-17_11h07.37.015,rtmindeye,2024.2.4,60.06272951688982,2025-04-17 11h11.13.931195 -0400,
all_stimuli/shared1000_notspecial/notspecial_46002.png,34,0,34,34,0,,,,0,0,0,6,1,"[9, 21, 31, 45, 56, 68, 69]",1,1,0.713528900174424,0.2440273999236524,None,None,None,,,,,,,,,0,0,0,0,0,34,34,34,247.5606682000216,,,,,,,,,,,,,,,,,,,,,,247.54224300011992,247.5422869999893,247.55901790014468,247.5606682000216,247.5606682000216,247.5606682000216,247.5606682000216,250.57519010012038,250.57519010012038,251.55874489992857,1,1,0.713528900174424,0.2440273999236524,None,251.55881690001115,251.55883789993823,None,251.55886320001446,251.5588815000374,None,,,,,,,,,,,5,6,0,1,2025-04-17_11h07.37.015,rtmindeye,2024.2.4,60.06272951688982,2025-04-17 11h11.13.931195 -0400,
all_stimuli/special515/special_30632.jpg,35,0,35,35,0,,,,0,0,0,6,1,"[9, 21, 31, 45, 56, 68, 69]",1,1,0.8650831000413746,0.2379006000701338,None,None,None,,,,,,,,,0,0,0,0,0,35,35,35,251.57521339994855,,,,,,,,,,,,,,,,,,,,,,251.55904319998808,251.55909040011466,251.57347430009395,251.57521339994855,251.57521339994855,251.57521339994855,251.57521339994855,254.57498940010555,254.57498940010555,255.55855019995943,1,1,0.8650831000413746,0.2379006000701338,None,255.55861619999632,255.5586359000299,None,255.55865940009244,255.5586767999921,None,255.57497850013897,255.57497850013897,,,,,,,,,5,6,0,1,2025-04-17_11h07.37.015,rtmindeye,2024.2.4,60.06272951688982,2025-04-17 11h11.13.931195 -0400,
all_stimuli/special515/special_31936.jpg,36,0,36,36,0,,,,0,0,0,6,1,"[9, 21, 31, 45, 56, 68, 69]",1,1,1.0222537000663579,0.2559881000779569,None,None,None,,,,,,,,,0,0,0,0,0,36,36,36,255.57497850013897,,,,,,,,,,,,,,,,,,,,,,255.55882879998535,255.55886680004187,255.5731536000967,255.57497850013897,255.57497850013897,255.57497850013897,255.57497850013897,258.57503930013627,258.57503930013627,259.55866169999354,1,1,1.0222537000663579,0.2559881000779569,None,259.5587255000137,259.55874729994684,None,259.558771800017,259.55878850002773,None,259.57929100003093,259.57929100003093,,,,,,,,,5,6,0,1,2025-04-17_11h07.37.015,rtmindeye,2024.2.4,60.06272951688982,2025-04-17 11h11.13.931195 -0400,
all_stimuli/MST_pairs1/pair_8_12_56.png,37,0,37,37,0,,,,0,0,0,6,1,"[9, 21, 31, 45, 56, 68, 69]",1,1,0.6591215999796987,0.22377579985186458,None,None,None,,,,,,,,,0,0,0,0,0,37,37,37,259.57929100003093,,,,,,,,,,,,,,,,,,,,,,259.5589387000073,259.55897710006684,259.5776058000047,259.57929100003093,259.57929100003093,259.57929100003093,259.57929100003093,262.59176520002075,262.59176520002075,263.57519809994847,1,1,0.6591215999796987,0.22377579985186458,None,263.5752681000158,263.5752882999368,None,263.5753125001211,263.57532960013486,None,,,,,,,,,,,5,6,0,1,2025-04-17_11h07.37.015,rtmindeye,2024.2.4,60.06272951688982,2025-04-17 11h11.13.931195 -0400,
all_stimuli/special515/special_19074.jpg,38,0,38,38,0,,,,0,0,0,6,1,"[9, 21, 31, 45, 56, 68, 69]",1,1,0.8065245999023318,0.16893830010667443,None,None,None,,,,,,,,,0,0,0,0,0,38,38,38,263.5917062999215,,,,,,,,,,,,,,,,,,,,,,263.5754966000095,263.57554069999605,263.5892006000504,263.5917062999215,263.5917062999215,263.5917062999215,263.5917062999215,266.59201980009675,266.59201980009675,267.5751084999647,1,1,0.8065245999023318,0.16893830010667443,None,267.5751736999955,267.5751937001478,None,267.57521790009923,267.575235000113,None,267.60508339991793,267.60508339991793,,,,,,,,,5,6,0,1,2025-04-17_11h07.37.015,rtmindeye,2024.2.4,60.06272951688982,2025-04-17 11h11.13.931195 -0400,
all_stimuli/shared1000_notspecial/notspecial_42648.png,39,0,39,39,0,,,,0,0,0,6,1,"[9, 21, 31, 45, 56, 68, 69]",1,1,0.9901056999806315,0.2460902000311762,None,None,None,,,,,,,,,0,0,0,0,0,39,39,39,267.60508339991793,,,,,,,,,,,,,,,,,,,,,,267.5753999000881,267.57543880003504,267.6035172000993,267.60508339991793,267.60508339991793,267.60508339991793,267.60508339991793,270.60853540012613,270.60853540012613,271.5918702001218,1,1,0.9901056999806315,0.2460902000311762,None,271.5919407000765,271.5919608999975,None,271.5919844999444,271.59200159995817,None,,,,,,,,,,,5,6,0,1,2025-04-17_11h07.37.015,rtmindeye,2024.2.4,60.06272951688982,2025-04-17 11h11.13.931195 -0400,
all_stimuli/MST_pairs1/pair_12_16_22.png,40,0,40,40,0,,,,1,0,0,6,1,"[9, 21, 31, 45, 56, 68, 69]",2,1,0.80893459985964,0.30185020016506314,None,None,None,,,,,,,,,0,0,0,0,0,40,40,40,271.6083681001328,,,,,,,,,,,,,,,,,,,,,,271.5921565000899,271.5922002000734,271.604460200062,271.6083681001328,271.6083681001328,271.6083681001328,271.6083681001328,274.6082494999282,274.6082494999282,275.591739699943,2,1,0.80893459985964,0.30185020016506314,None,275.5918050999753,275.59182470012456,None,275.591848900076,275.59186609997414,None,275.608109400142,275.608109400142,,,,,,,,,5,6,0,1,2025-04-17_11h07.37.015,rtmindeye,2024.2.4,60.06272951688982,2025-04-17 11h11.13.931195 -0400,
all_stimuli/shared1000_notspecial/notspecial_3951.png,41,0,41,41,0,,,,0,0,0,6,1,"[9, 21, 31, 45, 56, 68, 69]",1,1,0.9631602000445127,0.26001750002615154,None,None,None,,,,,,,,,0,0,0,0,0,41,41,41,275.608109400142,,,,,,,,,,,,,,,,,,,,,,275.59201609995216,275.5920543000102,275.6061708999332,275.608109400142,275.608109400142,275.608109400142,275.608109400142,278.60857019992545,278.60857019992545,279.591806899989,1,1,0.9631602000445127,0.26001750002615154,None,279.5918727000244,279.591892400058,None,279.5919170000125,279.5919340001419,None,279.60927610006183,279.60927610006183,,,,,,,,,5,6,0,1,2025-04-17_11h07.37.015,rtmindeye,2024.2.4,60.06272951688982,2025-04-17 11h11.13.931195 -0400,
all_stimuli/MST_pairs1/pair_12_16_78.png,42,0,42,42,0,,,,0,0,0,6,1,"[9, 21, 31, 45, 56, 68, 69]",1,1,1.2698909998871386,0.22305350005626678,None,None,None,,,,,,,,,0,0,0,0,0,42,42,42,279.60927610006183,,,,,,,,,,,,,,,,,,,,,,279.5920841000043,279.5921229000669,279.60762819997035,279.60927610006183,279.60927610006183,279.60927610006183,279.60927610006183,282.60850610001944,282.60850610001944,283.5918883001432,1,1,1.2698909998871386,0.22305350005626678,None,283.59195360005833,283.5919731000904,None,283.5919977000449,283.59201529994607,None,283.6081916000694,283.6081916000694,,,,,,,,,5,6,0,1,2025-04-17_11h07.37.015,rtmindeye,2024.2.4,60.06272951688982,2025-04-17 11h11.13.931195 -0400,
all_stimuli/special515/special_11952.jpg,43,0,43,43,0,,,,0,0,0,6,1,"[9, 21, 31, 45, 56, 68, 69]",1,1,0.8009276001248509,0.15204479987733066,None,None,None,,,,,,,,,0,0,0,0,0,43,43,43,283.6081916000694,,,,,,,,,,,,,,,,,,,,,,283.5921654999256,283.59220400010236,283.60608589998446,283.6081916000694,283.6081916000694,283.6081916000694,283.6081916000694,286.6085667000152,286.6085667000152,287.5920804999769,1,1,0.8009276001248509,0.15204479987733066,None,287.59214500011876,287.592164499918,None,287.59218819998205,287.59220529999584,None,287.609677700093,287.609677700093,,,,,,,,,5,6,0,1,2025-04-17_11h07.37.015,rtmindeye,2024.2.4,60.06272951688982,2025-04-17 11h11.13.931195 -0400,
all_stimuli/MST_pairs1/pair_14_18_22.png,44,0,44,44,0,,,,0,0,0,6,1,"[9, 21, 31, 45, 56, 68, 69]",1,1,1.4785758999641985,0.22087199985980988,None,None,None,,,,,,,,,0,0,0,0,0,44,44,44,287.609677700093,,,,,,,,,,,,,,,,,,,,,,287.5923560000956,287.5923979000654,287.6078809001483,287.609677700093,287.609677700093,287.609677700093,287.609677700093,290.6249224001076,290.6249224001076,291.60874069994316,1,1,1.4785758999641985,0.22087199985980988,None,291.60881010000594,291.60883069992997,None,291.60885479999706,291.60887220012955,None,,,,,,,,,,,5,6,0,1,2025-04-17_11h07.37.015,rtmindeye,2024.2.4,60.06272951688982,2025-04-17 11h11.13.931195 -0400,
blank.jpg,45,1,45,45,0,,,,0,0,0,6,1,"[9, 21, 31, 45, 56, 68, 69]",None,0,,,None,None,None,,,,,,,,,0,0,0,0,0,45,45,45,291.62536099995486,,,,,,,,,,,,,,,,,,,,,,291.6090270001441,291.6090713001322,291.61739349993877,291.62536099995486,291.62536099995486,291.62536099995486,291.62536099995486,294.62487960001454,294.62487960001454,295.60868540010415,None,0,,,None,295.6087442000862,295.60876400000416,None,295.60878790006973,295.60880509996787,None,295.64499940001406,295.64499940001406,,,,,,,,,5,6,0,1,2025-04-17_11h07.37.015,rtmindeye,2024.2.4,60.06272951688982,2025-04-17 11h11.13.931195 -0400,
all_stimuli/MST_pairs1/pair_16_20_56.png,46,0,46,46,0,,,,0,0,0,6,1,"[9, 21, 31, 45, 56, 68, 69]",1,1,0.8071771999821067,0.24308530008420348,None,None,None,,,,,,,,,0,0,0,0,0,46,46,46,295.64499940001406,,,,,,,,,,,,,,,,,,,,,,295.6089507001452,295.60899189999327,295.64310170011595,295.64499940001406,295.64499940001406,295.64499940001406,295.64499940001406,298.6586597999558,298.6586597999558,299.62517610006034,1,1,0.8071771999821067,0.24308530008420348,None,299.6252453001216,299.6252655000426,None,299.625289299991,299.6253067001235,None,,,,,,,,,,,5,6,0,1,2025-04-17_11h07.37.015,rtmindeye,2024.2.4,60.06272951688982,2025-04-17 11h11.13.931195 -0400,
all_stimuli/special515/special_8933.jpg,47,0,47,47,0,,,,0,0,0,6,1,"[9, 21, 31, 45, 56, 68, 69]",1,1,0.6573618999682367,0.265025099972263,None,None,None,,,,,,,,,0,0,0,0,0,47,47,47,299.6448538999539,,,,,,,,,,,,,,,,,,,,,,299.62546609994024,299.62550999992527,299.6429304999765,299.6448538999539,299.6448538999539,299.6448538999539,299.6448538999539,302.6583457000088,302.6583457000088,303.6418439000845,1,1,0.6573618999682367,0.265025099972263,None,303.64191429992206,303.64193530008197,None,303.64195920014754,303.6419804999605,None,,,,,,,,,,,5,6,0,1,2025-04-17_11h07.37.015,rtmindeye,2024.2.4,60.06272951688982,2025-04-17 11h11.13.931195 -0400,
all_stimuli/MST_pairs1/pair_16_20_56.png,48,0,48,48,0,,,,1,0,0,6,1,"[9, 21, 31, 45, 56, 68, 69]",2,1,0.8076772999484092,0.266924399882555,None,None,None,,,,,,,,,0,0,0,0,0,48,48,48,303.6585457001347,,,,,,,,,,,,,,,,,,,,,,303.64213429996744,303.6421781000681,303.6504419001285,303.6585457001347,303.6585457001347,303.6585457001347,303.6585457001347,306.6583724000957,306.6583724000957,307.64187419996597,2,1,0.8076772999484092,0.266924399882555,None,307.64193839998916,307.64195860014297,None,307.6419826000929,307.6419995999895,None,307.6716176001355,307.6716176001355,,,,,,,,,5,6,0,1,2025-04-17_11h07.37.015,rtmindeye,2024.2.4,60.06272951688982,2025-04-17 11h11.13.931195 -0400,
all_stimuli/special515/special_5034.jpg,49,0,49,49,0,,,,0,0,0,6,1,"[9, 21, 31, 45, 56, 68, 69]",1,1,0.6926064998842776,0.22787069994956255,None,None,None,,,,,,,,,0,0,0,0,0,49,49,49,307.6716176001355,,,,,,,,,,,,,,,,,,,,,,307.6421473000664,307.64218530012295,307.669421199942,307.6716176001355,307.6716176001355,307.6716176001355,307.6716176001355,310.67526879999787,310.67526879999787,311.65835930011235,1,1,0.6926064998842776,0.22787069994956255,None,311.65842760005035,311.658447700087,None,311.6584709000308,311.6584880000446,None,,,,,,,,,,,5,6,0,1,2025-04-17_11h07.37.015,rtmindeye,2024.2.4,60.06272951688982,2025-04-17 11h11.13.931195 -0400,
all_stimuli/MST_pairs1/pair_16_20_0.png,50,0,50,50,0,,,,0,0,0,6,1,"[9, 21, 31, 45, 56, 68, 69]",2,0,0.9874842998106033,0.25315650017000735,None,None,None,,,,,,,,,0,0,0,0,0,50,50,50,311.6747121999506,,,,,,,,,,,,,,,,,,,,,,311.6586396000348,311.6586828001309,311.67256979993545,311.6747121999506,311.6747121999506,311.6747121999506,311.6747121999506,314.6749102000613,314.6749102000613,315.6584220000077,2,0,0.9874842998106033,0.25315650017000735,None,315.658485900145,315.6585059000645,None,315.6585302001331,315.6585475001484,None,315.69887480000034,315.69887480000034,,,,,,,,,5,6,0,1,2025-04-17_11h07.37.015,rtmindeye,2024.2.4,60.06272951688982,2025-04-17 11h11.13.931195 -0400,
all_stimuli/MST_pairs1/pair_46_w_pool2.jpg,51,0,51,51,0,,,,0,0,0,6,1,"[9, 21, 31, 45, 56, 68, 69]",1,1,0.7983598001301289,0.2659207999240607,None,None,None,,,,,,,,,0,0,0,0,0,51,51,51,315.69887480000034,,,,,,,,,,,,,,,,,,,,,,315.6586979001295,315.6587463999167,315.6971811000258,315.69887480000034,315.69887480000034,315.69887480000034,315.69887480000034,318.7086493000388,318.7086493000388,319.67516250000335,1,1,0.7983598001301289,0.2659207999240607,None,319.67522950004786,319.675249400083,None,319.67527300002985,319.6752903999295,None,,,,,,,,,,,5,6,0,1,2025-04-17_11h07.37.015,rtmindeye,2024.2.4,60.06272951688982,2025-04-17 11h11.13.931195 -0400,
all_stimuli/special515/special_62228.jpg,52,0,52,52,0,,,,0,0,0,6,1,"[9, 21, 31, 45, 56, 68, 69]",1,1,0.8238470999058336,0.24280270002782345,None,None,None,,,,,,,,,0,0,0,0,0,52,52,52,319.6915629999712,,,,,,,,,,,,,,,,,,,,,,319.6754385000095,319.6754819001071,319.6886984000448,319.6915629999712,319.6915629999712,319.6915629999712,319.6915629999712,322.6914830999449,322.6914830999449,323.6752528999932,1,1,0.8238470999058336,0.24280270002782345,None,323.675316600129,323.6753362000454,None,323.67535990010947,323.67537700012326,None,323.71412819996476,323.71412819996476,,,,,,,,,5,6,0,1,2025-04-17_11h07.37.015,rtmindeye,2024.2.4,60.06272951688982,2025-04-17 11h11.13.931195 -0400,
all_stimuli/MST_pairs1/pair_40_w_escalator2.jpg,53,0,53,53,0,,,,0,0,0,6,1,"[9, 21, 31, 45, 56, 68, 69]",1,1,0.7600815000478178,0.2319171999115497,None,None,None,,,,,,,,,0,0,0,0,0,53,53,53,323.71412819996476,,,,,,,,,,,,,,,,,,,,,,323.6755300001241,323.67556839995086,323.7124914000742,323.71412819996476,323.71412819996476,323.71412819996476,323.71412819996476,326.72516599996015,326.72516599996015,327.6916086000856,1,1,0.7600815000478178,0.2319171999115497,None,327.6916785999201,327.6916986000724,None,327.69172200001776,327.6917393000331,None,,,,,,,,,,,5,6,0,1,2025-04-17_11h07.37.015,rtmindeye,2024.2.4,60.06272951688982,2025-04-17 11h11.13.931195 -0400,
all_stimuli/MST_pairs1/pair_20_nsd_41_2_cocoid_63715.png,54,0,54,54,0,,,,0,0,0,6,1,"[9, 21, 31, 45, 56, 68, 69]",1,1,0.8530985999386758,0.1808949001133442,None,None,None,,,,,,,,,0,0,0,0,0,54,54,54,327.733221600065,,,,,,,,,,,,,,,,,,,,,,327.6918913000263,327.6919348000083,327.7312662000768,327.733221600065,327.733221600065,327.733221600065,327.733221600065,330.74176490004174,330.74176490004174,331.708645200124,1,1,0.8530985999386758,0.1808949001133442,None,331.7087145000696,331.70873429998755,None,331.7087578000501,331.7087749999482,None,,,,,,,,,,,5,6,0,1,2025-04-17_11h07.37.015,rtmindeye,2024.2.4,60.06272951688982,2025-04-17 11h11.13.931195 -0400,
all_stimuli/shared1000_notspecial/notspecial_22155.png,55,0,55,55,0,,,,0,0,0,6,1,"[9, 21, 31, 45, 56, 68, 69]",1,1,0.8014710999559611,0.2260596000123769,None,None,None,,,,,,,,,0,0,0,0,0,55,55,55,331.72473239991814,,,,,,,,,,,,,,,,,,,,,,331.7089231000282,331.70896690012887,331.7230698999483,331.72473239991814,331.72473239991814,331.72473239991814,331.72473239991814,334.7247928001452,334.7247928001452,335.7086690000724,1,1,0.8014710999559611,0.2260596000123769,None,335.70873300009407,335.70875270012766,None,335.70877599995583,335.7087930000853,None,335.725298400037,335.725298400037,,,,,,,,,5,6,0,1,2025-04-17_11h07.37.015,rtmindeye,2024.2.4,60.06272951688982,2025-04-17 11h11.13.931195 -0400,
blank.jpg,56,1,56,56,0,,,,0,0,0,6,1,"[9, 21, 31, 45, 56, 68, 69]",None,0,,,None,None,None,,,,,,,,,0,0,0,0,0,56,56,56,335.725298400037,,,,,,,,,,,,,,,,,,,,,,335.7089539000299,335.70899330009706,335.7168258000165,335.725298400037,335.725298400037,335.725298400037,335.725298400037,338.7251287000254,338.7251287000254,339.7082911999896,None,0,,,None,339.70835059997626,339.7083699000068,None,339.7083934000693,339.70841039996594,None,339.73865499999374,339.73865499999374,,,,,,,,,5,6,0,1,2025-04-17_11h07.37.015,rtmindeye,2024.2.4,60.06272951688982,2025-04-17 11h11.13.931195 -0400,
all_stimuli/special515/special_11617.jpg,57,0,57,57,0,,,,0,0,0,6,1,"[9, 21, 31, 45, 56, 68, 69]",1,1,0.7687641000375152,0.23966980003751814,None,None,None,,,,,,,,,0,0,0,0,0,57,57,57,339.73865499999374,,,,,,,,,,,,,,,,,,,,,,339.70855510002,339.70859310007654,339.7368888000492,339.73865499999374,339.73865499999374,339.73865499999374,339.73865499999374,342.74165849993005,342.74165849993005,343.72501779999584,1,1,0.7687641000375152,0.23966980003751814,None,343.72508560004644,343.72510599996895,None,343.7251299000345,343.72514709993266,None,,,,,,,,,,,5,6,0,1,2025-04-17_11h07.37.015,rtmindeye,2024.2.4,60.06272951688982,2025-04-17 11h11.13.931195 -0400,
all_stimuli/MST_pairs1/pair_14_18_22.png,58,0,58,58,0,,,,1,0,0,6,1,"[9, 21, 31, 45, 56, 68, 69]",2,1,1.6308530999813229,0.3939461999107152,None,None,None,,,,,,,,,0,0,0,0,0,58,58,58,343.7414621000644,,,,,,,,,,,,,,,,,,,,,,343.72529650013894,343.72534010000527,343.7382708999794,343.7414621000644,343.7414621000644,343.7414621000644,343.7414621000644,346.7416413000319,346.7416413000319,347.72523949993774,2,1,1.6308530999813229,0.3939461999107152,None,347.72530400007963,347.72532290010713,None,347.72534590004943,347.7253628000617,None,347.74125949991867,347.74125949991867,,,,,,,,,5,6,0,1,2025-04-17_11h07.37.015,rtmindeye,2024.2.4,60.06272951688982,2025-04-17 11h11.13.931195 -0400,
all_stimuli/shared1000_notspecial/notspecial_63081.png,59,0,59,59,0,,,,0,0,0,6,1,"[9, 21, 31, 45, 56, 68, 69]",1,1,1.316088099963963,0.22083229990676045,None,None,None,,,,,,,,,0,0,0,0,0,59,59,59,347.74125949991867,,,,,,,,,,,,,,,,,,,,,,347.72551380004734,347.7255520001054,347.7391900999937,347.74125949991867,347.74125949991867,347.74125949991867,347.74125949991867,350.74176639993675,350.74176639993675,351.72527060005814,1,1,1.316088099963963,0.22083229990676045,None,351.72533389995806,351.72535259998403,None,351.72537579992786,351.7253926000558,None,351.7415191999171,351.7415191999171,,,,,,,,,5,6,0,1,2025-04-17_11h07.37.015,rtmindeye,2024.2.4,60.06272951688982,2025-04-17 11h11.13.931195 -0400,
all_stimuli/MST_pairs1/pair_42_w_icerink2.jpg,60,0,60,60,0,,,,0,0,0,6,1,"[9, 21, 31, 45, 56, 68, 69]",1,1,0.7506498999428004,0.20200769999064505,None,None,None,,,,,,,,,0,0,0,0,0,60,60,60,351.7415191999171,,,,,,,,,,,,,,,,,,,,,,351.72554120002314,351.725579299964,351.7386443000287,351.7415191999171,351.7415191999171,351.7415191999171,351.7415191999171,354.741357000079,354.741357000079,355.72509149997495,1,1,0.7506498999428004,0.20200769999064505,None,355.7251569000073,355.72517560003325,None,355.7251985000912,355.72521569998935,None,355.75269789993763,355.75269789993763,,,,,,,,,5,6,0,1,2025-04-17_11h07.37.015,rtmindeye,2024.2.4,60.06272951688982,2025-04-17 11h11.13.931195 -0400,
all_stimuli/MST_pairs1/pair_46_w_pool1.jpg,61,0,61,61,0,,,,0,0,0,6,1,"[9, 21, 31, 45, 56, 68, 69]",2,0,1.8995679998770356,0.250965700019151,None,None,None,,,,,,,,,0,0,0,0,0,61,61,61,355.75269789993763,,,,,,,,,,,,,,,,,,,,,,355.7253596999217,355.7253996001091,355.7510148999281,355.75269789993763,355.75269789993763,355.75269789993763,355.75269789993763,358.7581871000584,358.7581871000584,359.74189860001206,2,0,1.8995679998770356,0.250965700019151,None,359.74196849996224,359.7419885999989,None,359.7420119000599,359.742029099958,None,,,,,,,,,,,5,6,0,1,2025-04-17_11h07.37.015,rtmindeye,2024.2.4,60.06272951688982,2025-04-17 11h11.13.931195 -0400,
all_stimuli/special515/special_40840.jpg,62,0,62,62,0,,,,0,0,0,6,1,"[9, 21, 31, 45, 56, 68, 69]",1,1,1.3157031000591815,0.2529007999692112,None,None,None,,,,,,,,,0,0,0,0,0,62,62,62,359.78263769997284,,,,,,,,,,,,,,,,,,,,,,359.7421836000867,359.74222679995,359.78040540008806,359.78263769997284,359.78263769997284,359.78263769997284,359.78263769997284,362.79161550011486,362.79161550011486,363.7584514999762,1,1,1.3157031000591815,0.2529007999692112,None,363.7585229999386,363.75854349997826,None,363.75856740004383,363.75858490006067,None,,,,,,,,,,,5,6,0,1,2025-04-17_11h07.37.015,rtmindeye,2024.2.4,60.06272951688982,2025-04-17 11h11.13.931195 -0400,
all_stimuli/special515/special_29837.jpg,63,0,63,63,0,,,,0,0,0,6,1,"[9, 21, 31, 45, 56, 68, 69]",1,1,1.2626809999346733,0.27709760004654527,None,None,None,,,,,,,,,0,0,0,0,0,63,63,63,363.77557569998316,,,,,,,,,,,,,,,,,,,,,,363.7587381999474,363.7587820000481,363.77373080002144,363.77557569998316,363.77557569998316,363.77557569998316,363.77557569998316,366.7751842001453,366.7751842001453,367.7582094001118,1,1,1.2626809999346733,0.27709760004654527,None,367.7582741000224,367.75829360005446,None,367.758317100117,367.75833470001817,None,367.7885774001479,367.7885774001479,,,,,,,,,5,6,0,1,2025-04-17_11h07.37.015,rtmindeye,2024.2.4,60.06272951688982,2025-04-17 11h11.13.931195 -0400,
all_stimuli/shared1000_notspecial/notspecial_4768.png,64,0,64,64,0,,,,0,0,0,6,1,"[9, 21, 31, 45, 56, 68, 69]",1,1,1.067655900027603,0.23008599993772805,None,None,None,,,,,,,,,0,0,0,0,0,64,64,64,367.7885774001479,,,,,,,,,,,,,,,,,,,,,,367.7584810999688,367.7585188001394,367.78692370001227,367.7885774001479,367.7885774001479,367.7885774001479,367.7885774001479,370.79143440001644,370.79143440001644,371.77512690005824,1,1,1.067655900027603,0.23008599993772805,None,371.7751941001043,371.77521410002373,None,371.7752372000832,371.775254300097,None,,,,,,,,,,,5,6,0,1,2025-04-17_11h07.37.015,rtmindeye,2024.2.4,60.06272951688982,2025-04-17 11h11.13.931195 -0400,
all_stimuli/MST_pairs1/pair_20_nsd_41_1_cocoid_15472.png,65,0,65,65,0,,,,0,0,0,6,1,"[9, 21, 31, 45, 56, 68, 69]",1,1,1.255137100117281,0.21695739985443652,None,None,None,,,,,,,,,0,0,0,0,0,65,65,65,371.81908240006305,,,,,,,,,,,,,,,,,,,,,,371.77540970011614,371.7754536999855,371.8171375999227,371.81908240006305,371.81908240006305,371.81908240006305,371.81908240006305,374.8250527000055,374.8250527000055,375.79181160009466,1,1,1.255137100117281,0.21695739985443652,None,375.7918821000494,375.7919026000891,None,375.7919262999203,375.7919435999356,None,,,,,,,,,,,5,6,0,1,2025-04-17_11h07.37.015,rtmindeye,2024.2.4,60.06272951688982,2025-04-17 11h11.13.931195 -0400,
all_stimuli/shared1000_notspecial/notspecial_53157.png,66,0,66,66,0,,,,0,0,0,6,1,"[9, 21, 31, 45, 56, 68, 69]",1,1,0.6828616000711918,0.2900638000573963,None,None,None,,,,,,,,,0,0,0,0,0,66,66,66,375.80930460011587,,,,,,,,,,,,,,,,,,,,,,375.79209819994867,375.7921416000463,375.80765420012176,375.80930460011587,375.80930460011587,375.80930460011587,375.80930460011587,378.80813030013815,378.80813030013815,379.7919334000908,1,1,0.6828616000711918,0.2900638000573963,None,379.79199660010636,379.7920158000197,None,379.7920391999651,379.79205629997887,None,379.808322600089,379.808322600089,,,,,,,,,5,6,0,1,2025-04-17_11h07.37.015,rtmindeye,2024.2.4,60.06272951688982,2025-04-17 11h11.13.931195 -0400,
all_stimuli/special515/special_38641.jpg,67,0,67,67,0,,,,1,0,0,6,1,"[9, 21, 31, 45, 56, 68, 69]",1,0,1.1528827000875026,0.2169581998605281,None,None,None,,,,,,,,,0,0,0,0,0,67,67,67,379.808322600089,,,,,,,,,,,,,,,,,,,,,,379.79220329993404,379.7922414999921,379.80383590003476,379.808322600089,379.808322600089,379.808322600089,379.808322600089,382.8082908000797,382.8082908000797,383.7918607001193,1,0,1.1528827000875026,0.2169581998605281,None,383.79192310012877,383.7919427000452,None,383.7919668001123,383.791983500123,None,383.8084011001047,383.8084011001047,,,,,,,,,5,6,0,1,2025-04-17_11h07.37.015,rtmindeye,2024.2.4,60.06272951688982,2025-04-17 11h11.13.931195 -0400,
blank.jpg,68,1,68,68,0,,,,0,0,0,6,1,"[9, 21, 31, 45, 56, 68, 69]",None,0,,,None,None,None,,,,,,,,,0,0,0,0,0,68,68,68,383.8084011001047,,,,,,,,,,,,,,,,,,,,,,383.7921448000707,383.7921841000207,383.7997721999418,383.8084011001047,383.8084011001047,383.8084011001047,383.8084011001047,386.8083770999219,386.8083770999219,387.791772400029,None,0,,,None,387.7918317001313,387.79185139993206,None,387.7918752999976,387.79189210012555,None,387.8081326999236,387.8081326999236,,,,,,,,,5,6,0,1,2025-04-17_11h07.37.015,rtmindeye,2024.2.4,60.06272951688982,2025-04-17 11h11.13.931195 -0400,
blank.jpg,69,1,69,69,0,,,,0,1,0,6,0,"[9, 21, 31, 45, 56, 68, 69]",None,0,,,None,1,equal,4.414925599936396,None,17.69660280016251,None,,,,,0,0,0,0,0,69,69,69,387.8081326999236,,,,,,,,,,,,,,,,,,,,,,387.79203799995594,387.7920764000155,387.79800110007636,387.8081326999236,387.8081326999236,387.8081326999236,387.8081326999236,390.8083985999692,390.8083985999692,391.79189130011946,None,0,,,None,391.7987720000092,396.22517250012606,1,396.2252295999788,413.94191349996254,equal,391.80839719995856,391.80839719995856,391.80839719995856,391.80839719995856,4.414925599936396,None,396.2416916000657,396.2416916000657,17.69660280016251,None,5,6,0,1,2025-04-17_11h07.37.015,rtmindeye,2024.2.4,60.06272951688982,2025-04-17 11h11.13.931195 -0400,
,,,0,0,0,,,,,,,,,,,,,,,,,,,,,,,,,0,0,0,0,,,,,,,,,,,,,,,,,,,,,,,,,,,,,,,,,,,,,,,,,,,,,,,,,,,,,,,,,,5,6,0,1,2025-04-17_11h07.37.015,rtmindeye,2024.2.4,60.06272951688982,2025-04-17 11h11.13.931195 -0400,
all_stimuli/special515/special_71450.jpg,0,0,0,0,0,,,,0,0,1,6,1,"[9, 21, 31, 45, 56, 68, 69]",1,1,1.1218158998526633,0.17084280005656183,None,None,None,,,,,,,,,1,0,1,0,0,0,0,0,414.0015434001107,,,,,,,,,,,,,,,,,,,,,,413.98590290010907,413.98600620008074,413.99932299996726,414.0015434001107,414.0015434001107,414.0015434001107,414.0015434001107,417.00818699994124,417.00818699994124,417.99167180014774,1,1,1.1218158998526633,0.17084280005656183,None,417.99174440000206,417.9917653000448,None,417.99178949999623,417.99180710013025,None,,,,,,,,,,,5,6,0,1,2025-04-17_11h07.37.015,rtmindeye,2024.2.4,60.06272951688982,2025-04-17 11h11.13.931195 -0400,
all_stimuli/special515/special_38246.jpg,1,0,1,1,0,,,,0,0,1,6,1,"[9, 21, 31, 45, 56, 68, 69]",1,1,0.8226493999827653,0.1469761999323964,None,None,None,,,,,,,,,1,0,1,0,0,1,1,1,418.00948789995164,,,,,,,,,,,,,,,,,,,,,,417.99196769995615,417.99201119993813,418.0077255999204,418.00948789995164,418.00948789995164,418.00948789995164,418.00948789995164,421.0248736999929,421.0248736999929,422.0084375999868,1,1,0.8226493999827653,0.1469761999323964,None,422.0085068999324,422.0085271000862,None,422.0085509000346,422.00856829993427,None,,,,,,,,,,,5,6,0,1,2025-04-17_11h07.37.015,rtmindeye,2024.2.4,60.06272951688982,2025-04-17 11h11.13.931195 -0400,
all_stimuli/special515/special_10046.jpg,2,0,2,2,0,,,,0,0,1,6,1,"[9, 21, 31, 45, 56, 68, 69]",1,1,0.7042957001831383,0.2238341998308897,None,None,None,,,,,,,,,1,0,1,0,0,2,2,2,422.0260841001291,,,,,,,,,,,,,,,,,,,,,,422.0087323000189,422.0087761001196,422.0243125001434,422.0260841001291,422.0260841001291,422.0260841001291,422.0260841001291,425.041715499945,425.041715499945,426.0249664001167,1,1,0.7042957001831383,0.2238341998308897,None,426.02503550006077,426.0250558999833,None,426.02507980004884,426.0250975000672,None,,,,,,,,,,,5,6,0,1,2025-04-17_11h07.37.015,rtmindeye,2024.2.4,60.06272951688982,2025-04-17 11h11.13.931195 -0400,
all_stimuli/MST_pairs1/pair_38_w_arch2.jpg,3,0,3,3,0,,,,0,0,1,6,1,"[9, 21, 31, 45, 56, 68, 69]",1,1,0.6388763999566436,0.22383240005001426,None,None,None,,,,,,,,,1,0,1,0,0,3,3,3,426.0665003999602,,,,,,,,,,,,,,,,,,,,,,426.025250100065,426.02529500005767,426.06478779995814,426.0665003999602,426.0665003999602,426.0665003999602,426.0665003999602,429.07488560001366,429.07488560001366,430.0417933999561,1,1,0.6388763999566436,0.22383240005001426,None,430.0418650000356,430.0418855000753,None,430.0419098001439,430.0419272999279,None,,,,,,,,,,,5,6,0,1,2025-04-17_11h07.37.015,rtmindeye,2024.2.4,60.06272951688982,2025-04-17 11h11.13.931195 -0400,
all_stimuli/special515/special_30395.jpg,4,0,4,4,0,,,,0,0,1,6,1,"[9, 21, 31, 45, 56, 68, 69]",1,1,0.5294511001557112,0.24416669993661344,None,None,None,,,,,,,,,1,0,1,0,0,4,4,4,430.06473450013436,,,,,,,,,,,,,,,,,,,,,,430.04209080012515,430.04213430010714,430.06277750013396,430.06473450013436,430.06473450013436,430.06473450013436,430.06473450013436,433.07479689992033,433.07479689992033,434.0581088999752,1,1,0.5294511001557112,0.24416669993661344,None,434.058177200146,434.0581968999468,None,434.05822000000626,434.0582368001342,None,,,,,,,,,,,5,6,0,1,2025-04-17_11h07.37.015,rtmindeye,2024.2.4,60.06272951688982,2025-04-17 11h11.13.931195 -0400,
all_stimuli/special515/special_38494.jpg,5,0,5,5,0,,,,1,0,1,6,1,"[9, 21, 31, 45, 56, 68, 69]",2,1,0.9342392000835389,0.2902110000140965,None,None,None,,,,,,,,,1,0,1,0,0,5,5,5,434.07480520009995,,,,,,,,,,,,,,,,,,,,,,434.0583902001381,434.05843420000747,434.0698663000949,434.07480520009995,434.07480520009995,434.07480520009995,434.07480520009995,437.07498600007966,437.07498600007966,438.058269900037,2,1,0.9342392000835389,0.2902110000140965,None,438.0583333999384,438.0583526000846,None,438.0583759001456,438.05839290004224,None,438.0789099999238,438.0789099999238,,,,,,,,,5,6,0,1,2025-04-17_11h07.37.015,rtmindeye,2024.2.4,60.06272951688982,2025-04-17 11h11.13.931195 -0400,
all_stimuli/MST_pairs1/pair_28_nsd_547_1_cocoid_60932.png,6,0,6,6,0,,,,1,0,1,6,1,"[9, 21, 31, 45, 56, 68, 69]",1,0,1.060354399960488,0.2980013000778854,None,None,None,,,,,,,,,1,0,1,0,0,6,6,6,438.0789099999238,,,,,,,,,,,,,,,,,,,,,,438.0585370999761,438.05857470002957,438.0770348000806,438.0789099999238,438.0789099999238,438.0789099999238,438.0789099999238,441.0915216000285,441.0915216000285,442.0749300001189,1,0,1.060354399960488,0.2980013000778854,None,442.0749983000569,442.07501840009354,None,442.0750418000389,442.075058999937,None,,,,,,,,,,,5,6,0,1,2025-04-17_11h07.37.015,rtmindeye,2024.2.4,60.06272951688982,2025-04-17 11h11.13.931195 -0400,
all_stimuli/special515/special_61133.jpg,7,0,7,7,0,,,,0,0,1,6,1,"[9, 21, 31, 45, 56, 68, 69]",1,1,1.1995014999993145,0.30005170009098947,None,None,None,,,,,,,,,1,0,1,0,0,7,7,7,442.0917374000419,,,,,,,,,,,,,,,,,,,,,,442.07521259994246,442.07525609992445,442.0899296000134,442.0917374000419,442.0917374000419,442.0917374000419,442.0917374000419,445.09166319994256,445.09166319994256,446.0749290001113,1,1,1.1995014999993145,0.30005170009098947,None,446.074994900031,446.07501420006156,None,446.0750379001256,446.0750545000192,None,446.10283729992807,446.10283729992807,,,,,,,,,5,6,0,1,2025-04-17_11h07.37.015,rtmindeye,2024.2.4,60.06272951688982,2025-04-17 11h11.13.931195 -0400,
all_stimuli/shared1000_notspecial/notspecial_16635.png,8,0,8,8,0,,,,0,0,1,6,1,"[9, 21, 31, 45, 56, 68, 69]",1,1,0.6974506000988185,0.21495599998161197,None,None,None,,,,,,,,,1,0,1,0,0,8,8,8,446.10283729992807,,,,,,,,,,,,,,,,,,,,,,446.0753752000164,446.07541600009426,446.1010525999591,446.10283729992807,446.10283729992807,446.10283729992807,446.10283729992807,449.1083166000899,449.1083166000899,450.09170470014215,1,1,0.6974506000988185,0.21495599998161197,None,450.091773299966,450.0917929999996,None,450.0918161999434,450.0918332999572,None,,,,,,,,,,,5,6,0,1,2025-04-17_11h07.37.015,rtmindeye,2024.2.4,60.06272951688982,2025-04-17 11h11.13.931195 -0400,
blank.jpg,9,1,9,9,0,,,,0,0,1,6,1,"[9, 21, 31, 45, 56, 68, 69]",None,0,,,None,None,None,,,,,,,,,1,0,1,0,0,9,9,9,450.1085435000714,,,,,,,,,,,,,,,,,,,,,,450.0919848000631,450.09203870012425,450.10057789995335,450.1085435000714,450.1085435000714,450.1085435000714,450.1085435000714,453.1080903999973,453.1080903999973,454.0916879000142,None,0,,,None,454.09174890001304,454.09176780004054,None,454.0917915001046,454.09180870000273,None,454.1299461000599,454.1299461000599,,,,,,,,,5,6,0,1,2025-04-17_11h07.37.015,rtmindeye,2024.2.4,60.06272951688982,2025-04-17 11h11.13.931195 -0400,
all_stimuli/MST_pairs1/pair_18_nsd_6_1_cocoid_13417.png,10,0,10,10,0,,,,0,0,1,6,1,"[9, 21, 31, 45, 56, 68, 69]",1,1,0.8112750998698175,0.31889680004678667,None,None,None,,,,,,,,,1,0,1,0,0,10,10,10,454.1299461000599,,,,,,,,,,,,,,,,,,,,,,454.09195609996095,454.0919940001331,454.12814970011823,454.1299461000599,454.1299461000599,454.1299461000599,454.1299461000599,457.1416388999205,457.1416388999205,458.1084400000982,1,1,0.8112750998698175,0.31889680004678667,None,458.10851019993424,458.10852929996327,None,458.10855260002427,458.1085695999209,None,,,,,,,,,,,5,6,0,1,2025-04-17_11h07.37.015,rtmindeye,2024.2.4,60.06272951688982,2025-04-17 11h11.13.931195 -0400,
all_stimuli/shared1000_notspecial/notspecial_21703.png,11,0,11,11,0,,,,0,0,1,6,1,"[9, 21, 31, 45, 56, 68, 69]",1,1,0.6928255998063833,0.2840756999794394,None,None,None,,,,,,,,,1,0,1,0,0,11,11,11,458.1464007999748,,,,,,,,,,,,,,,,,,,,,,458.1087257999461,458.1087696000468,458.14474490005523,458.1464007999748,458.1464007999748,458.1464007999748,458.1464007999748,461.158072500024,461.158072500024,462.1249176999554,1,1,0.6928255998063833,0.2840756999794394,None,462.1249860001262,462.1250060000457,None,462.12502939999104,462.12504620011896,None,,,,,,,,,,,5,6,0,1,2025-04-17_11h07.37.015,rtmindeye,2024.2.4,60.06272951688982,2025-04-17 11h11.13.931195 -0400,
all_stimuli/special515/special_24530.jpg,12,0,12,12,0,,,,0,0,1,6,1,"[9, 21, 31, 45, 56, 68, 69]",1,1,0.7975685999263078,0.4509459000546485,None,None,None,,,,,,,,,1,0,1,0,0,12,12,12,462.1427321000956,,,,,,,,,,,,,,,,,,,,,,462.1251982001122,462.12524230009876,462.1409098999575,462.1427321000956,462.1427321000956,462.1427321000956,462.1427321000956,465.1580610999372,465.1580610999372,466.14102540002204,1,1,0.7975685999263078,0.4509459000546485,None,466.1410984999966,466.1411182000302,None,466.1411419000942,466.1411592999939,None,,,,,,,,,,,5,6,0,1,2025-04-17_11h07.37.015,rtmindeye,2024.2.4,60.06272951688982,2025-04-17 11h11.13.931195 -0400,
all_stimuli/shared1000_notspecial/notspecial_6222.png,13,0,13,13,0,,,,0,0,1,6,1,"[9, 21, 31, 45, 56, 68, 69]",1,1,0.6070574000477791,0.19408990000374615,None,None,None,,,,,,,,,1,0,1,0,0,13,13,13,466.17204720014706,,,,,,,,,,,,,,,,,,,,,,466.14131999993697,466.14136429992504,466.17023950000294,466.17204720014706,466.17204720014706,466.17204720014706,466.17204720014706,469.1742851000745,469.1742851000745,470.1417026000563,1,1,0.6070574000477791,0.19408990000374615,None,470.1417717000004,470.141791800037,None,470.1418163999915,470.1418337000068,None,,,,,,,,,,,5,6,0,1,2025-04-17_11h07.37.015,rtmindeye,2024.2.4,60.06272951688982,2025-04-17 11h11.13.931195 -0400,
all_stimuli/MST_pairs1/pair_44_w_log_cabin2.jpg,14,0,14,14,0,,,,0,0,1,6,1,"[9, 21, 31, 45, 56, 68, 69]",1,1,0.740167299984023,0.22270789998583496,None,None,None,,,,,,,,,1,0,1,0,0,14,14,14,470.1601843999233,,,,,,,,,,,,,,,,,,,,,,470.14198940014467,470.14203290012665,470.1584352001082,470.1601843999233,470.1601843999233,470.1601843999233,470.1601843999233,473.17488489998505,473.17488489998505,474.1583765000105,1,1,0.740167299984023,0.22270789998583496,None,474.15844390005805,474.15846429998055,None,474.15848829993047,474.15850539994426,None,,,,,,,,,,,5,6,0,1,2025-04-17_11h07.37.015,rtmindeye,2024.2.4,60.06272951688982,2025-04-17 11h11.13.931195 -0400,
all_stimuli/special515/special_28068.jpg,15,0,15,15,0,,,,0,0,1,6,1,"[9, 21, 31, 45, 56, 68, 69]",1,1,0.8964712000451982,0.2150093000382185,None,None,None,,,,,,,,,1,0,1,0,0,15,15,15,474.17677880008705,,,,,,,,,,,,,,,,,,,,,,474.1586565000471,474.1587008999195,474.1749627001118,474.17677880008705,474.17677880008705,474.17677880008705,474.17677880008705,477.1915953999851,477.1915953999851,478.17478969995864,1,1,0.8964712000451982,0.2150093000382185,None,478.1748605000321,478.1748808999546,None,478.1749050000217,478.17492239992134,None,,,,,,,,,,,5,6,0,1,2025-04-17_11h07.37.015,rtmindeye,2024.2.4,60.06272951688982,2025-04-17 11h11.13.931195 -0400,
all_stimuli/shared1000_notspecial/notspecial_60978.png,16,0,16,16,0,,,,0,0,1,6,1,"[9, 21, 31, 45, 56, 68, 69]",1,1,0.853281700052321,0.19697969988919795,None,None,None,,,,,,,,,1,0,1,0,0,16,16,16,478.19187270011753,,,,,,,,,,,,,,,,,,,,,,478.1750831999816,478.17512709996663,478.1902791999746,478.19187270011753,478.19187270011753,478.19187270011753,478.19187270011753,481.191395400092,481.191395400092,482.1748294001445,1,1,0.853281700052321,0.19697969988919795,None,482.1748943000566,482.17491389997303,None,482.17493690014817,482.17495370004326,None,482.2054833001457,482.2054833001457,,,,,,,,,5,6,0,1,2025-04-17_11h07.37.015,rtmindeye,2024.2.4,60.06272951688982,2025-04-17 11h11.13.931195 -0400,
all_stimuli/MST_pairs1/pair_2_4_22.png,17,0,17,17,0,,,,0,0,1,6,1,"[9, 21, 31, 45, 56, 68, 69]",1,1,1.1148443999700248,0.46898470004089177,None,None,None,,,,,,,,,1,0,1,0,0,17,17,17,482.2054833001457,,,,,,,,,,,,,,,,,,,,,,482.17510699993,482.17514470010065,482.2038455000147,482.2054833001457,482.2054833001457,482.2054833001457,482.2054833001457,485.20817489991896,485.20817489991896,486.19158600014634,1,1,1.1148443999700248,0.46898470004089177,None,486.19165719999,486.1916769000236,None,486.1917000999674,486.1917175000999,None,,,,,,,,,,,5,6,0,1,2025-04-17_11h07.37.015,rtmindeye,2024.2.4,60.06272951688982,2025-04-17 11h11.13.931195 -0400,
all_stimuli/shared1000_notspecial/notspecial_46160.png,18,0,18,18,0,,,,0,0,1,6,1,"[9, 21, 31, 45, 56, 68, 69]",1,1,0.7325266001280397,0.30914879986085,None,None,None,,,,,,,,,1,0,1,0,0,18,18,18,486.20960359997116,,,,,,,,,,,,,,,,,,,,,,486.1918721999973,486.1919162000995,486.20794519991614,486.20960359997116,486.20960359997116,486.20960359997116,486.20960359997116,489.2247697999701,489.2247697999701,490.20787329995073,1,1,0.7325266001280397,0.30914879986085,None,490.2079473999329,490.2079678000882,None,490.20799249992706,490.208009700058,None,,,,,,,,,,,5,6,0,1,2025-04-17_11h07.37.015,rtmindeye,2024.2.4,60.06272951688982,2025-04-17 11h11.13.931195 -0400,
all_stimuli/special515/special_64880.jpg,19,0,19,19,0,,,,0,0,1,6,1,"[9, 21, 31, 45, 56, 68, 69]",1,1,1.145661999937147,0.2130523999221623,None,None,None,,,,,,,,,1,0,1,0,0,19,19,19,490.22463800013065,,,,,,,,,,,,,,,,,,,,,,490.2081704000011,490.20821449998766,490.2221115999855,490.22463800013065,490.22463800013065,490.22463800013065,490.22463800013065,493.22484549996443,493.22484549996443,494.20796380005777,1,1,1.145661999937147,0.2130523999221623,None,494.208028400084,494.20804770011455,None,494.20807139994577,494.2080880999565,None,494.26643129996955,494.26643129996955,,,,,,,,,5,6,0,1,2025-04-17_11h07.37.015,rtmindeye,2024.2.4,60.06272951688982,2025-04-17 11h11.13.931195 -0400,
all_stimuli/MST_pairs1/pair_36_nsd_949_1_cocoid_43196.png,20,0,20,20,0,,,,0,0,1,6,1,"[9, 21, 31, 45, 56, 68, 69]",1,1,0.7247818000614643,0.21511109988205135,None,None,None,,,,,,,,,1,0,1,0,0,20,20,20,494.26643129996955,,,,,,,,,,,,,,,,,,,,,,494.2082436000928,494.2082823999226,494.2645634999499,494.26643129996955,494.26643129996955,494.26643129996955,494.26643129996955,497.2746500999201,497.2746500999201,498.2248547000345,1,1,0.7247818000614643,0.21511109988205135,None,498.2249233000912,498.22494300012477,None,498.22496680007316,498.22498390008695,None,,,,,,,,,,,5,6,0,1,2025-04-17_11h07.37.015,rtmindeye,2024.2.4,60.06272951688982,2025-04-17 11h11.13.931195 -0400,
blank.jpg,21,1,21,21,0,,,,0,0,1,6,1,"[9, 21, 31, 45, 56, 68, 69]",None,0,,,None,None,None,,,,,,,,,1,0,1,0,0,21,21,21,498.2415833999403,,,,,,,,,,,,,,,,,,,,,,498.22513210005127,498.22517640003935,498.2339304999914,498.2415833999403,498.2415833999403,498.2415833999403,498.2415833999403,501.2416505999863,501.2416505999863,502.22486299998127,None,0,,,None,502.22492379997857,502.2249434001278,None,502.22496709995903,502.2249841999728,None,502.24133520014584,502.24133520014584,,,,,,,,,5,6,0,1,2025-04-17_11h07.37.015,rtmindeye,2024.2.4,60.06272951688982,2025-04-17 11h11.13.931195 -0400,
all_stimuli/special515/special_30632.jpg,22,0,22,22,0,,,,1,0,1,6,1,"[9, 21, 31, 45, 56, 68, 69]",1,0,1.5810461000073701,0.28781160013750196,None,None,None,,,,,,,,,1,0,1,0,0,22,22,22,502.24133520014584,,,,,,,,,,,,,,,,,,,,,,502.2251331000589,502.2251707999967,502.23744440008886,502.24133520014584,502.24133520014584,502.24133520014584,502.24133520014584,505.2415579999797,505.2415579999797,506.2248871999327,1,0,1.5810461000073701,0.28781160013750196,None,506.2249519000761,506.22497149999253,None,506.22499580006115,506.2250123000704,None,506.24503650004044,506.24503650004044,,,,,,,,,5,6,0,1,2025-04-17_11h07.37.015,rtmindeye,2024.2.4,60.06272951688982,2025-04-17 11h11.13.931195 -0400,
all_stimuli/MST_pairs1/pair_20_nsd_41_2_cocoid_63715.png,23,0,23,23,0,,,,1,0,1,6,1,"[9, 21, 31, 45, 56, 68, 69]",2,1,1.5990888997912407,0.3542077001184225,None,None,None,,,,,,,,,1,0,1,0,0,23,23,23,506.24503650004044,,,,,,,,,,,,,,,,,,,,,,506.22516290005296,506.2252007999923,506.2430434001144,506.24503650004044,506.24503650004044,506.24503650004044,506.24503650004044,509.25818959996104,509.25818959996104,510.24166910001077,2,1,1.5990888997912407,0.3542077001184225,None,510.24173979996704,510.2417599000037,None,510.24178480007686,510.24180239997804,None,,,,,,,,,,,5,6,0,1,2025-04-17_11h07.37.015,rtmindeye,2024.2.4,60.06272951688982,2025-04-17 11h11.13.931195 -0400,
all_stimuli/MST_pairs1/pair_22_nsd_115_2_cocoid_65194.png,24,0,24,24,0,,,,0,0,1,6,1,"[9, 21, 31, 45, 56, 68, 69]",1,1,1.154292399995029,0.2610623000655323,None,None,None,,,,,,,,,1,0,1,0,0,24,24,24,510.2899815000128,,,,,,,,,,,,,,,,,,,,,,510.2419674999546,510.2420119000599,510.28819330013357,510.2899815000128,510.2899815000128,510.2899815000128,510.2899815000128,513.2914790001232,513.2914790001232,514.2580677999649,1,1,1.154292399995029,0.2610623000655323,None,514.2581377001479,514.2581573999487,None,514.2581813000143,514.258198400028,None,,,,,,,,,,,5,6,0,1,2025-04-17_11h07.37.015,rtmindeye,2024.2.4,60.06272951688982,2025-04-17 11h11.13.931195 -0400,
all_stimuli/shared1000_notspecial/notspecial_26292.png,25,0,25,25,0,,,,0,0,1,6,1,"[9, 21, 31, 45, 56, 68, 69]",1,1,0.7774342999327928,0.24706460000015795,None,None,None,,,,,,,,,1,0,1,0,0,25,25,25,514.2748283999972,,,,,,,,,,,,,,,,,,,,,,514.2583518999163,514.2583956001326,514.273231399944,514.2748283999972,514.2748283999972,514.2748283999972,514.2748283999972,517.2746993000619,517.2746993000619,518.2583085999358,1,1,0.7774342999327928,0.24706460000015795,None,518.2583733000793,518.2583926001098,None,518.2584162000567,518.2584337000735,None,518.2747136000544,518.2747136000544,,,,,,,,,5,6,0,1,2025-04-17_11h07.37.015,rtmindeye,2024.2.4,60.06272951688982,2025-04-17 11h11.13.931195 -0400,
all_stimuli/special515/special_6489.jpg,26,0,26,26,0,,,,1,0,1,6,1,"[9, 21, 31, 45, 56, 68, 69]",2,1,1.236453500110656,0.31105219991877675,None,None,None,,,,,,,,,1,0,1,0,0,26,26,26,518.2747136000544,,,,,,,,,,,,,,,,,,,,,,518.2585877999663,518.2586264000274,518.2705479001161,518.2747136000544,518.2747136000544,518.2747136000544,518.2747136000544,521.2748018000275,521.2748018000275,522.2580252001062,2,1,1.236453500110656,0.31105219991877675,None,522.2580911000259,522.2581100000534,None,522.2581325999927,522.2581492001191,None,522.2753095000517,522.2753095000517,,,,,,,,,5,6,0,1,2025-04-17_11h07.37.015,rtmindeye,2024.2.4,60.06272951688982,2025-04-17 11h11.13.931195 -0400,
all_stimuli/special515/special_55678.jpg,27,0,27,27,0,,,,0,0,1,6,1,"[9, 21, 31, 45, 56, 68, 69]",1,1,0.67994249984622,0.2389314000029117,None,None,None,,,,,,,,,1,0,1,0,0,27,27,27,522.2753095000517,,,,,,,,,,,,,,,,,,,,,,522.2582956000697,522.2583339000121,522.2736154999584,522.2753095000517,522.2753095000517,522.2753095000517,522.2753095000517,525.2747057001106,525.2747057001106,526.2582378999796,1,1,0.67994249984622,0.2389314000029117,None,526.2583069000393,526.2583260000683,None,526.2583493001293,526.2583662001416,None,526.2842397000641,526.2842397000641,,,,,,,,,5,6,0,1,2025-04-17_11h07.37.015,rtmindeye,2024.2.4,60.06272951688982,2025-04-17 11h11.13.931195 -0400,
all_stimuli/special515/special_40909.jpg,28,0,28,28,0,,,,0,0,1,6,1,"[9, 21, 31, 45, 56, 68, 69]",1,1,0.9448496999684721,0.2381203998811543,None,None,None,,,,,,,,,1,0,1,0,0,28,28,28,526.2842397000641,,,,,,,,,,,,,,,,,,,,,,526.2585193000268,526.2585581999738,526.28248360008,526.2842397000641,526.2842397000641,526.2842397000641,526.2842397000641,529.2909572999924,529.2909572999924,530.2747714000288,1,1,0.9448496999684721,0.2381203998811543,None,530.274841299979,530.2748609001283,None,530.274884799961,530.2749022000935,None,,,,,,,,,,,5,6,0,1,2025-04-17_11h07.37.015,rtmindeye,2024.2.4,60.06272951688982,2025-04-17 11h11.13.931195 -0400,
all_stimuli/special515/special_70360.jpg,29,0,29,29,0,,,,0,0,1,6,1,"[9, 21, 31, 45, 56, 68, 69]",1,1,0.8969093000050634,0.2438889998011291,None,None,None,,,,,,,,,1,0,1,0,0,29,29,29,530.318320899969,,,,,,,,,,,,,,,,,,,,,,530.2750562999863,530.2751007000916,530.316565199988,530.318320899969,530.318320899969,530.318320899969,530.318320899969,533.3246794000734,533.3246794000734,534.2913307999261,1,1,0.8969093000050634,0.2438889998011291,None,534.2914007001091,534.2914204001427,None,534.2914440000895,534.2914611999877,None,,,,,,,,,,,5,6,0,1,2025-04-17_11h07.37.015,rtmindeye,2024.2.4,60.06272951688982,2025-04-17 11h11.13.931195 -0400,
all_stimuli/MST_pairs1/pair_42_w_icerink1.jpg,30,0,30,30,0,,,,0,0,1,6,1,"[9, 21, 31, 45, 56, 68, 69]",1,1,0.9738746001385152,0.2329092000145465,None,None,None,,,,,,,,,1,0,1,0,0,30,30,30,534.3083423001226,,,,,,,,,,,,,,,,,,,,,,534.2916133000981,534.291657499969,534.3067214000039,534.3083423001226,534.3083423001226,534.3083423001226,534.3083423001226,537.3075751001015,537.3075751001015,538.2912743999623,1,1,0.9738746001385152,0.2329092000145465,None,538.291343000019,538.291362100048,None,538.2913854999933,538.2914026000071,None,538.3082111999393,538.3082111999393,,,,,,,,,5,6,0,1,2025-04-17_11h07.37.015,rtmindeye,2024.2.4,60.06272951688982,2025-04-17 11h11.13.931195 -0400,
blank.jpg,31,1,31,31,0,,,,0,0,1,6,1,"[9, 21, 31, 45, 56, 68, 69]",None,0,,,None,None,None,,,,,,,,,1,0,1,0,0,31,31,31,538.3082111999393,,,,,,,,,,,,,,,,,,,,,,538.2915579001419,538.2915954999626,538.2993358001113,538.3082111999393,538.3082111999393,538.3082111999393,538.3082111999393,541.3081473999191,541.3081473999191,542.2914653001353,None,0,,,None,542.2915275001433,542.2915475000627,None,542.2915720001329,542.291588800028,None,542.3080275000539,542.3080275000539,,,,,,,,,5,6,0,1,2025-04-17_11h07.37.015,rtmindeye,2024.2.4,60.06272951688982,2025-04-17 11h11.13.931195 -0400,
all_stimuli/special515/special_30430.jpg,32,0,32,32,0,,,,1,0,1,6,1,"[9, 21, 31, 45, 56, 68, 69]",1,0,1.2433115998283029,0.30775930010713637,None,None,None,,,,,,,,,1,0,1,0,0,32,32,32,542.3080275000539,,,,,,,,,,,,,,,,,,,,,,542.291737300111,542.2917746999301,542.3029120001011,542.3080275000539,542.3080275000539,542.3080275000539,542.3080275000539,545.3079943000339,545.3079943000339,546.291449500015,1,0,1.2433115998283029,0.30775930010713637,None,546.2915137999225,546.2915330999531,None,546.2915566000156,546.2915733000264,None,546.3106732000597,546.3106732000597,,,,,,,,,5,6,0,1,2025-04-17_11h07.37.015,rtmindeye,2024.2.4,60.06272951688982,2025-04-17 11h11.13.931195 -0400,
all_stimuli/shared1000_notspecial/notspecial_43746.png,33,0,33,33,0,,,,0,0,1,6,1,"[9, 21, 31, 45, 56, 68, 69]",1,1,0.8774731999728829,0.2569522999692708,None,None,None,,,,,,,,,1,0,1,0,0,33,33,33,546.3106732000597,,,,,,,,,,,,,,,,,,,,,,546.2917472999543,546.2917878001463,546.3089894999284,546.3106732000597,546.3106732000597,546.3106732000597,546.3106732000597,549.3248565001413,549.3248565001413,550.3081042000558,1,1,0.8774731999728829,0.2569522999692708,None,550.3081749000121,550.3081948000472,None,550.3082181999926,550.3082354001235,None,,,,,,,,,,,5,6,0,1,2025-04-17_11h07.37.015,rtmindeye,2024.2.4,60.06272951688982,2025-04-17 11h11.13.931195 -0400,
all_stimuli/MST_pairs1/pair_34_nsd_875_1_cocoid_67762.png,34,0,34,34,0,,,,0,0,1,6,1,"[9, 21, 31, 45, 56, 68, 69]",1,1,0.8224327999632806,0.19293410005047917,None,None,None,,,,,,,,,1,0,1,0,0,34,34,34,550.3308137001004,,,,,,,,,,,,,,,,,,,,,,550.3083943999372,550.3084406000562,550.3286294999998,550.3308137001004,550.3308137001004,550.3308137001004,550.3308137001004,553.3411511001177,553.3411511001177,554.3246808999684,1,1,0.8224327999632806,0.19293410005047917,None,554.3247496001422,554.3247694000602,None,554.3247932000086,554.3248104001395,None,,,,,,,,,,,5,6,0,1,2025-04-17_11h07.37.015,rtmindeye,2024.2.4,60.06272951688982,2025-04-17 11h11.13.931195 -0400,
all_stimuli/MST_pairs1/pair_12_16_78.png,35,0,35,35,0,,,,1,0,1,6,1,"[9, 21, 31, 45, 56, 68, 69]",2,1,1.7832345999777317,0.39211470005102456,None,None,None,,,,,,,,,1,0,1,0,0,35,35,35,554.340977899963,,,,,,,,,,,,,,,,,,,,,,554.3249705999624,554.3250138999429,554.3375995000824,554.340977899963,554.340977899963,554.340977899963,554.340977899963,557.3411920999642,557.3411920999642,558.3247817000374,2,1,1.7832345999777317,0.39211470005102456,None,558.3248467000667,558.3248658999801,None,558.3248890999239,558.3249055999331,None,558.3412232000846,558.3412232000846,,,,,,,,,5,6,0,1,2025-04-17_11h07.37.015,rtmindeye,2024.2.4,60.06272951688982,2025-04-17 11h11.13.931195 -0400,
all_stimuli/special515/special_4249.jpg,36,0,36,36,0,,,,1,0,1,6,1,"[9, 21, 31, 45, 56, 68, 69]",2,1,0.9381541002076119,0.23985849996097386,None,None,None,,,,,,,,,1,0,1,0,0,36,36,36,558.3412232000846,,,,,,,,,,,,,,,,,,,,,,558.3250514999963,558.3250899000559,558.3372963999864,558.3412232000846,558.3412232000846,558.3412232000846,558.3412232000846,561.3410744001158,561.3410744001158,562.3248242000118,2,1,0.9381541002076119,0.23985849996097386,None,562.3248928000685,562.324912100099,None,562.3249359999318,562.3249534000643,None,562.3410555999726,562.3410555999726,,,,,,,,,5,6,0,1,2025-04-17_11h07.37.015,rtmindeye,2024.2.4,60.06272951688982,2025-04-17 11h11.13.931195 -0400,
all_stimuli/MST_pairs1/pair_42_w_icerink2.jpg,37,0,37,37,0,,,,1,0,1,6,1,"[9, 21, 31, 45, 56, 68, 69]",2,1,1.5811597001738846,0.24113709991797805,None,None,None,,,,,,,,,1,0,1,0,0,37,37,37,562.3410555999726,,,,,,,,,,,,,,,,,,,,,,562.3252767000813,562.3253182999324,562.3360459001269,562.3410555999726,562.3410555999726,562.3410555999726,562.3410555999726,565.34108630009,565.34108630009,566.3247720999643,2,1,1.5811597001738846,0.24113709991797805,None,566.3248385000043,566.3248622999527,None,566.3248856000137,566.3249023000244,None,566.3408254000824,566.3408254000824,,,,,,,,,5,6,0,1,2025-04-17_11h07.37.015,rtmindeye,2024.2.4,60.06272951688982,2025-04-17 11h11.13.931195 -0400,
all_stimuli/shared1000_notspecial/notspecial_70038.png,38,0,38,38,0,,,,0,0,1,6,1,"[9, 21, 31, 45, 56, 68, 69]",1,1,1.0512703999411315,0.40807430003769696,None,None,None,,,,,,,,,1,0,1,0,0,38,38,38,566.3408254000824,,,,,,,,,,,,,,,,,,,,,,566.3250643000938,566.3251058999449,566.3389906999655,566.3408254000824,566.3408254000824,566.3408254000824,566.3408254000824,569.341392399976,569.341392399976,570.3248650000896,1,1,1.0512703999411315,0.40807430003769696,None,570.3249290999956,570.3249486000277,None,570.3249723000918,570.3249894001056,None,570.3419226000551,570.3419226000551,,,,,,,,,5,6,0,1,2025-04-17_11h07.37.015,rtmindeye,2024.2.4,60.06272951688982,2025-04-17 11h11.13.931195 -0400,
all_stimuli/special515/special_53155.jpg,39,0,39,39,0,,,,0,0,1,6,1,"[9, 21, 31, 45, 56, 68, 69]",1,1,0.7953200000338256,0.1180638000369072,None,None,None,,,,,,,,,1,0,1,0,0,39,39,39,570.3419226000551,,,,,,,,,,,,,,,,,,,,,,570.3251414000988,570.3251799999271,570.3401582001243,570.3419226000551,570.3419226000551,570.3419226000551,570.3419226000551,573.3412753001321,573.3412753001321,574.3248793999664,1,1,0.7953200000338256,0.1180638000369072,None,574.3249443999957,574.3249638001435,None,574.3249878000934,574.3250045999885,None,574.340996599989,574.340996599989,,,,,,,,,5,6,0,1,2025-04-17_11h07.37.015,rtmindeye,2024.2.4,60.06272951688982,2025-04-17 11h11.13.931195 -0400,
all_stimuli/special515/special_24530.jpg,40,0,40,40,0,,,,1,0,1,6,1,"[9, 21, 31, 45, 56, 68, 69]",2,1,0.9082801998592913,0.24182310001924634,None,None,None,,,,,,,,,1,0,1,0,0,40,40,40,574.340996599989,,,,,,,,,,,,,,,,,,,,,,574.3251551000867,574.325192600023,574.3376555999275,574.340996599989,574.340996599989,574.340996599989,574.340996599989,577.341288600117,577.341288600117,578.3247438999824,2,1,0.9082801998592913,0.24182310001924634,None,578.3248072001152,578.3248266000301,None,578.3248499000911,578.3248666001018,None,578.4402819999959,578.4402819999959,,,,,,,,,5,6,0,1,2025-04-17_11h07.37.015,rtmindeye,2024.2.4,60.06272951688982,2025-04-17 11h11.13.931195 -0400,
all_stimuli/special515/special_32232.jpg,41,0,41,41,0,,,,0,0,1,6,1,"[9, 21, 31, 45, 56, 68, 69]",1,1,0.9659321999642998,0.2688515998888761,None,None,None,,,,,,,,,1,0,1,0,0,41,41,41,578.4402819999959,,,,,,,,,,,,,,,,,,,,,,578.3250204999931,578.3250597999431,578.4367528001312,578.4402819999959,578.4402819999959,578.4402819999959,578.4402819999959,581.4411814999767,581.4411814999767,582.3414529999718,1,1,0.9659321999642998,0.2688515998888761,None,582.34152180003,582.341541999951,None,582.3415656001307,582.341582500143,None,,,,,,,,,,,5,6,0,1,2025-04-17_11h07.37.015,rtmindeye,2024.2.4,60.06272951688982,2025-04-17 11h11.13.931195 -0400,
all_stimuli/special515/special_41814.jpg,42,0,42,42,0,,,,0,0,1,6,1,"[9, 21, 31, 45, 56, 68, 69]",1,1,0.890536000020802,0.19389759982004762,None,None,None,,,,,,,,,1,0,1,0,0,42,42,42,582.3577034000773,,,,,,,,,,,,,,,,,,,,,,582.3417380000465,582.3417819999158,582.3553414000198,582.3577034000773,582.3577034000773,582.3577034000773,582.3577034000773,585.3577769999392,585.3577769999392,586.3412039999384,1,1,0.890536000020802,0.19389759982004762,None,586.3412697999738,586.3412893000059,None,586.3413136000745,586.3413309000898,None,586.3579845000058,586.3579845000058,,,,,,,,,5,6,0,1,2025-04-17_11h07.37.015,rtmindeye,2024.2.4,60.06272951688982,2025-04-17 11h11.13.931195 -0400,
all_stimuli/shared1000_notspecial/notspecial_23883.png,43,0,43,43,0,,,,0,0,1,6,1,"[9, 21, 31, 45, 56, 68, 69]",1,1,0.6963192999828607,0.22877980000339448,None,None,None,,,,,,,,,1,0,1,0,0,43,43,43,586.3579845000058,,,,,,,,,,,,,,,,,,,,,,586.341486700112,586.3415244000498,586.3564134000335,586.3579845000058,586.3579845000058,586.3579845000058,586.3579845000058,589.3577479000669,589.3577479000669,590.3411687000189,1,1,0.6963192999828607,0.22877980000339448,None,590.3412353000604,590.3412546000909,None,590.3412782999221,590.34129510005,None,590.3574202000163,590.3574202000163,,,,,,,,,5,6,0,1,2025-04-17_11h07.37.015,rtmindeye,2024.2.4,60.06272951688982,2025-04-17 11h11.13.931195 -0400,
all_stimuli/shared1000_notspecial/notspecial_4436.png,44,0,44,44,0,,,,0,0,1,6,1,"[9, 21, 31, 45, 56, 68, 69]",1,1,0.6058152001351118,0.2579852999188006,None,None,None,,,,,,,,,1,0,1,0,0,44,44,44,590.3574202000163,,,,,,,,,,,,,,,,,,,,,,590.3414608000312,590.3414992000908,590.3555720001459,590.3574202000163,590.3574202000163,590.3574202000163,590.3574202000163,593.3578184000216,593.3578184000216,594.3413674000185,1,1,0.6058152001351118,0.2579852999188006,None,594.3414324000478,594.3414513999596,None,594.3414749000221,594.3414920999203,None,594.3580859999638,594.3580859999638,,,,,,,,,5,6,0,1,2025-04-17_11h07.37.015,rtmindeye,2024.2.4,60.06272951688982,2025-04-17 11h11.13.931195 -0400,
blank.jpg,45,1,45,45,0,,,,0,0,1,6,1,"[9, 21, 31, 45, 56, 68, 69]",None,0,,,None,None,None,,,,,,,,,1,0,1,0,0,45,45,45,594.3580859999638,,,,,,,,,,,,,,,,,,,,,,594.3416375000961,594.3416752999183,594.3499919001479,594.3580859999638,594.3580859999638,594.3580859999638,594.3580859999638,597.3579138000496,597.3579138000496,598.3413472000975,None,0,,,None,598.3414074000902,598.3414264000021,None,598.341448900057,598.3414658999536,None,598.3578776000068,598.3578776000068,,,,,,,,,5,6,0,1,2025-04-17_11h07.37.015,rtmindeye,2024.2.4,60.06272951688982,2025-04-17 11h11.13.931195 -0400,
all_stimuli/special515/special_61133.jpg,46,0,46,46,0,,,,1,0,1,6,1,"[9, 21, 31, 45, 56, 68, 69]",2,1,0.7992444999981672,0.3281056999694556,None,None,None,,,,,,,,,1,0,1,0,0,46,46,46,598.3578776000068,,,,,,,,,,,,,,,,,,,,,,598.3416182999499,598.3416563000064,598.3544189000968,598.3578776000068,598.3578776000068,598.3578776000068,598.3578776000068,601.3578787001316,601.3578787001316,602.3412655000575,2,1,0.7992444999981672,0.3281056999694556,None,602.3413303000852,602.3413494999986,None,602.3413724000566,602.3413887999486,None,602.3993315999396,602.3993315999396,,,,,,,,,5,6,0,1,2025-04-17_11h07.37.015,rtmindeye,2024.2.4,60.06272951688982,2025-04-17 11h11.13.931195 -0400,
all_stimuli/MST_pairs1/pair_24_nsd_158_2_cocoid_3673.png,47,0,47,47,0,,,,0,0,1,6,1,"[9, 21, 31, 45, 56, 68, 69]",1,1,0.8927770999725908,0.2421167001593858,None,None,None,,,,,,,,,1,0,1,0,0,47,47,47,602.3993315999396,,,,,,,,,,,,,,,,,,,,,,602.3415530000348,602.3415912000928,602.3974137001205,602.3993315999396,602.3993315999396,602.3993315999396,602.3993315999396,605.4078166999388,605.4078166999388,606.3578214999288,1,1,0.8927770999725908,0.2421167001593858,None,606.3578914999962,606.3579114999156,None,606.3579355000984,606.3579526999965,None,,,,,,,,,,,5,6,0,1,2025-04-17_11h07.37.015,rtmindeye,2024.2.4,60.06272951688982,2025-04-17 11h11.13.931195 -0400,
all_stimuli/MST_pairs1/pair_34_nsd_875_2_cocoid_72398.png,48,0,48,48,0,,,,0,0,1,6,1,"[9, 21, 31, 45, 56, 68, 69]",1,1,0.9921192999463528,0.23598059988580644,None,None,None,,,,,,,,,1,0,1,0,0,48,48,48,606.3860269000288,,,,,,,,,,,,,,,,,,,,,,606.3581069000065,606.3581505001057,606.3841377999634,606.3860269000288,606.3860269000288,606.3860269000288,606.3860269000288,609.3910559001379,609.3910559001379,610.374728300143,1,1,0.9921192999463528,0.23598059988580644,None,610.3747986000963,610.3748194000218,None,610.3748433999717,610.3748604001012,None,,,,,,,,,,,5,6,0,1,2025-04-17_11h07.37.015,rtmindeye,2024.2.4,60.06272951688982,2025-04-17 11h11.13.931195 -0400,
all_stimuli/shared1000_notspecial/notspecial_51965.png,49,0,49,49,0,,,,0,0,1,6,1,"[9, 21, 31, 45, 56, 68, 69]",1,1,0.6702590000350028,0.24001680011861026,None,None,None,,,,,,,,,1,0,1,0,0,49,49,49,610.410960300127,,,,,,,,,,,,,,,,,,,,,,610.3750181000214,610.3750620000064,610.4093345999718,610.410960300127,610.410960300127,610.410960300127,610.410960300127,613.4244592001196,613.4244592001196,614.3911794000305,1,1,0.6702590000350028,0.24001680011861026,None,614.3912490999792,614.3912690000143,None,614.3912925000768,614.391309000086,None,,,,,,,,,,,5,6,0,1,2025-04-17_11h07.37.015,rtmindeye,2024.2.4,60.06272951688982,2025-04-17 11h11.13.931195 -0400,
all_stimuli/MST_pairs1/pair_30_nsd_676_1_cocoid_48729.png,50,0,50,50,0,,,,0,0,1,6,1,"[9, 21, 31, 45, 56, 68, 69]",1,1,0.7975157001055777,0.25682369992136955,None,None,None,,,,,,,,,1,0,1,0,0,50,50,50,614.415842999937,,,,,,,,,,,,,,,,,,,,,,614.3914640001021,614.39150779997,614.4138832001481,614.415842999937,614.415842999937,614.415842999937,614.415842999937,617.4246438001283,617.4246438001283,618.4077942001168,1,1,0.7975157001055777,0.25682369992136955,None,618.4078631000593,618.4078828999773,None,618.4079058000352,618.4079235000536,None,,,,,,,,,,,5,6,0,1,2025-04-17_11h07.37.015,rtmindeye,2024.2.4,60.06272951688982,2025-04-17 11h11.13.931195 -0400,
all_stimuli/shared1000_notspecial/notspecial_52328.png,51,0,51,51,0,,,,0,0,1,6,1,"[9, 21, 31, 45, 56, 68, 69]",1,1,0.8193225997965783,0.20999320014379919,None,None,None,,,,,,,,,1,0,1,0,0,51,51,51,618.4249291999731,,,,,,,,,,,,,,,,,,,,,,618.4080753999297,618.408119100146,618.4233419999946,618.4249291999731,618.4249291999731,618.4249291999731,618.4249291999731,621.4245432000607,621.4245432000607,622.4079994999338,1,1,0.8193225997965783,0.20999320014379919,None,622.4080652999692,622.4080845001154,None,622.4081083999481,622.4081250000745,None,622.4477860000916,622.4477860000916,,,,,,,,,5,6,0,1,2025-04-17_11h07.37.015,rtmindeye,2024.2.4,60.06272951688982,2025-04-17 11h11.13.931195 -0400,
all_stimuli/MST_pairs1/pair_4_6_44.png,52,0,52,52,0,,,,0,0,1,6,1,"[9, 21, 31, 45, 56, 68, 69]",1,1,1.2593328999355435,0.2631952001247555,None,None,None,,,,,,,,,1,0,1,0,0,52,52,52,622.4477860000916,,,,,,,,,,,,,,,,,,,,,,622.4082772999536,622.4083151000086,622.4458715999499,622.4477860000916,622.4477860000916,622.4477860000916,622.4477860000916,625.4578094999306,625.4578094999306,626.4241450999398,1,1,1.2593328999355435,0.2631952001247555,None,626.4242151000071,626.4242354999296,None,626.4242595001124,626.4242770001292,None,,,,,,,,,,,5,6,0,1,2025-04-17_11h07.37.015,rtmindeye,2024.2.4,60.06272951688982,2025-04-17 11h11.13.931195 -0400,
all_stimuli/MST_pairs1/pair_48_w_runway1.jpg,53,0,53,53,0,,,,0,0,1,6,1,"[9, 21, 31, 45, 56, 68, 69]",1,1,0.7634408001322299,0.23391169984824955,None,None,None,,,,,,,,,1,0,1,0,0,53,53,53,626.4408521000296,,,,,,,,,,,,,,,,,,,,,,626.4244315000251,626.4244757001288,626.4370067000855,626.4408521000296,626.4408521000296,626.4408521000296,626.4408521000296,629.4407913999166,629.4407913999166,630.4247437999584,1,1,0.7634408001322299,0.23391169984824955,None,630.4248126000166,630.424832199933,None,630.424855899997,630.4248729001265,None,,,,,,,,,,,5,6,0,1,2025-04-17_11h07.37.015,rtmindeye,2024.2.4,60.06272951688982,2025-04-17 11h11.13.931195 -0400,
all_stimuli/special515/special_40840.jpg,54,0,54,54,0,,,,1,0,1,6,1,"[9, 21, 31, 45, 56, 68, 69]",1,0,0.8391633001156151,0.2589302998967469,None,None,None,,,,,,,,,1,0,1,0,0,54,54,54,630.4411206999794,,,,,,,,,,,,,,,,,,,,,,630.4250227999873,630.4250668000896,630.4393786001019,630.4411206999794,630.4411206999794,630.4411206999794,630.4411206999794,633.4411134000402,633.4411134000402,634.4246996000875,1,0,0.8391633001156151,0.2589302998967469,None,634.4247644999996,634.4247834000271,None,634.4248063999694,634.4248234000988,None,634.4494954999536,634.4494954999536,,,,,,,,,5,6,0,1,2025-04-17_11h07.37.015,rtmindeye,2024.2.4,60.06272951688982,2025-04-17 11h11.13.931195 -0400,
all_stimuli/shared1000_notspecial/notspecial_12487.png,55,0,55,55,0,,,,0,0,1,6,1,"[9, 21, 31, 45, 56, 68, 69]",1,1,0.5506012998521328,0.23928890004754066,None,None,None,,,,,,,,,1,0,1,0,0,55,55,55,634.4494954999536,,,,,,,,,,,,,,,,,,,,,,634.4249772999901,634.4250149000436,634.4476137000602,634.4494954999536,634.4494954999536,634.4494954999536,634.4494954999536,637.4577614001464,637.4577614001464,638.441204899922,1,1,0.5506012998521328,0.23928890004754066,None,638.4412736999802,638.4412934000138,None,638.4413167999592,638.4413338000886,None,,,,,,,,,,,5,6,0,1,2025-04-17_11h07.37.015,rtmindeye,2024.2.4,60.06272951688982,2025-04-17 11h11.13.931195 -0400,
blank.jpg,56,1,56,56,0,,,,0,0,1,6,1,"[9, 21, 31, 45, 56, 68, 69]",None,0,,,None,None,None,,,,,,,,,1,0,1,0,0,56,56,56,638.457875699969,,,,,,,,,,,,,,,,,,,,,,638.4414864999708,638.4415303999558,638.4486517999321,638.457875699969,638.457875699969,638.457875699969,638.457875699969,641.4579328999389,641.4579328999389,642.4412148999982,None,0,,,None,642.441274400102,642.4412940000184,None,642.4413177000824,642.4413340000901,None,642.4575058999471,642.4575058999471,,,,,,,,,5,6,0,1,2025-04-17_11h07.37.015,rtmindeye,2024.2.4,60.06272951688982,2025-04-17 11h11.13.931195 -0400,
all_stimuli/MST_pairs1/pair_16_20_0.png,57,0,57,57,0,,,,1,0,1,6,1,"[9, 21, 31, 45, 56, 68, 69]",1,0,1.4948836998082697,0.41995330015197396,None,None,None,,,,,,,,,1,0,1,0,0,57,57,57,642.4575058999471,,,,,,,,,,,,,,,,,,,,,,642.4414788000286,642.4415198999923,642.4551015000325,642.4575058999471,642.4575058999471,642.4575058999471,642.4575058999471,645.4577935000416,645.4577935000416,646.441251100041,1,0,1.4948836998082697,0.41995330015197396,None,646.4413155000657,646.4413352999836,None,646.4413598999381,646.4413767999504,None,646.4586021001451,646.4586021001451,,,,,,,,,5,6,0,1,2025-04-17_11h07.37.015,rtmindeye,2024.2.4,60.06272951688982,2025-04-17 11h11.13.931195 -0400,
all_stimuli/shared1000_notspecial/notspecial_12685.png,58,0,58,58,0,,,,0,0,1,6,1,"[9, 21, 31, 45, 56, 68, 69]",1,1,1.0035464998800308,0.34399480000138283,None,None,None,,,,,,,,,1,0,1,0,0,58,58,58,646.4586021001451,,,,,,,,,,,,,,,,,,,,,,646.4415362,646.441574400058,646.4568147000391,646.4586021001451,646.4586021001451,646.4586021001451,646.4586021001451,649.4576878000516,649.4576878000516,650.4411877000239,1,1,1.0035464998800308,0.34399480000138283,None,650.4412527999375,650.4412722000852,None,650.4412966000382,650.4413135000505,None,650.4759202999994,650.4759202999994,,,,,,,,,5,6,0,1,2025-04-17_11h07.37.015,rtmindeye,2024.2.4,60.06272951688982,2025-04-17 11h11.13.931195 -0400,
all_stimuli/MST_pairs1/pair_36_nsd_949_2_cocoid_60031.png,59,0,59,59,0,,,,0,0,1,6,1,"[9, 21, 31, 45, 56, 68, 69]",1,1,0.8622842999175191,0.23503169999457896,None,None,None,,,,,,,,,1,0,1,0,0,59,59,59,650.4759202999994,,,,,,,,,,,,,,,,,,,,,,650.4415025000926,650.4415424000472,650.4740075999871,650.4759202999994,650.4759202999994,650.4759202999994,650.4759202999994,653.4911529999226,653.4911529999226,654.457830700092,1,1,0.8622842999175191,0.23503169999457896,None,654.4579050000757,654.4579255001154,None,654.4579487000592,654.4579660999589,None,,,,,,,,,,,5,6,0,1,2025-04-17_11h07.37.015,rtmindeye,2024.2.4,60.06272951688982,2025-04-17 11h11.13.931195 -0400,
all_stimuli/shared1000_notspecial/notspecial_34068.png,60,0,60,60,0,,,,0,0,1,6,1,"[9, 21, 31, 45, 56, 68, 69]",1,1,0.753533500013873,0.2711157000157982,None,None,None,,,,,,,,,1,0,1,0,0,60,60,60,654.4745861000847,,,,,,,,,,,,,,,,,,,,,,654.4581186000723,654.4581627999432,654.4730126999784,654.4745861000847,654.4745861000847,654.4745861000847,654.4745861000847,657.4743445001077,657.4743445001077,658.4577776000369,1,1,0.753533500013873,0.2711157000157982,None,658.4578418000601,658.457861199975,None,658.4578845999204,658.4579012999311,None,658.4764795000665,658.4764795000665,,,,,,,,,5,6,0,1,2025-04-17_11h07.37.015,rtmindeye,2024.2.4,60.06272951688982,2025-04-17 11h11.13.931195 -0400,
all_stimuli/special515/special_11159.jpg,61,0,61,61,0,,,,0,0,1,6,1,"[9, 21, 31, 45, 56, 68, 69]",1,1,0.8877583998255432,0.2429804999846965,None,None,None,,,,,,,,,1,0,1,0,0,61,61,61,658.4764795000665,,,,,,,,,,,,,,,,,,,,,,658.4580526999198,658.458091000095,658.4745330000296,658.4764795000665,658.4764795000665,658.4764795000665,658.4764795000665,661.4908004999161,661.4908004999161,662.4747144000139,1,1,0.8877583998255432,0.2429804999846965,None,662.4747846000828,662.4748041999992,None,662.4748273000587,662.4748444000725,None,,,,,,,,,,,5,6,0,1,2025-04-17_11h07.37.015,rtmindeye,2024.2.4,60.06272951688982,2025-04-17 11h11.13.931195 -0400,
all_stimuli/MST_pairs1/pair_34_nsd_875_2_cocoid_72398.png,62,0,62,62,0,,,,1,0,1,6,1,"[9, 21, 31, 45, 56, 68, 69]",2,1,1.093002999899909,0.29915480013005435,None,None,None,,,,,,,,,1,0,1,0,0,62,62,62,662.4961795001291,,,,,,,,,,,,,,,,,,,,,,662.4750004999805,662.4750441000797,662.4941134001128,662.4961795001291,662.4961795001291,662.4961795001291,662.4961795001291,665.5078305001371,665.5078305001371,666.4913618999999,2,1,1.093002999899909,0.29915480013005435,None,666.4914319999516,666.4914518001024,None,666.4914756999351,666.4914923000615,None,,,,,,,,,,,5,6,0,1,2025-04-17_11h07.37.015,rtmindeye,2024.2.4,60.06272951688982,2025-04-17 11h11.13.931195 -0400,
all_stimuli/special515/special_67742.jpg,63,0,63,63,0,,,,0,0,1,6,1,"[9, 21, 31, 45, 56, 68, 69]",1,1,1.1173717000056058,0.28201600001193583,None,None,None,,,,,,,,,1,0,1,0,0,63,63,63,666.5097248000093,,,,,,,,,,,,,,,,,,,,,,666.4916459000669,666.491689800052,666.5077718000393,666.5097248000093,666.5097248000093,666.5097248000093,666.5097248000093,669.5244164001197,669.5244164001197,670.5075894000474,1,1,1.1173717000056058,0.28201600001193583,None,670.50765829999,670.5076781001408,None,670.5077029000968,670.5077218001243,None,,,,,,,,,,,5,6,0,1,2025-04-17_11h07.37.015,rtmindeye,2024.2.4,60.06272951688982,2025-04-17 11h11.13.931195 -0400,
all_stimuli/MST_pairs1/pair_48_w_runway2.jpg,64,0,64,64,0,,,,0,0,1,6,1,"[9, 21, 31, 45, 56, 68, 69]",1,1,1.9580393000505865,0.2238290999084711,None,None,None,,,,,,,,,1,0,1,0,0,64,64,64,670.5242739999667,,,,,,,,,,,,,,,,,,,,,,670.5078813999426,670.5079256000463,670.5225905000698,670.5242739999667,670.5242739999667,670.5242739999667,670.5242739999667,673.5240124999546,673.5240124999546,674.5075191999786,1,1,1.9580393000505865,0.2238290999084711,None,674.5075845001265,674.5076037999243,None,674.5076272001024,674.5076439001132,None,674.5239653999452,674.5239653999452,,,,,,,,,5,6,0,1,2025-04-17_11h07.37.015,rtmindeye,2024.2.4,60.06272951688982,2025-04-17 11h11.13.931195 -0400,
all_stimuli/MST_pairs1/pair_40_w_escalator1.jpg,65,0,65,65,0,,,,0,0,1,6,1,"[9, 21, 31, 45, 56, 68, 69]",1,1,1.6542354000266641,0.2540313000790775,None,None,None,,,,,,,,,1,0,1,0,0,65,65,65,674.5239653999452,,,,,,,,,,,,,,,,,,,,,,674.5077937000897,674.5078319001477,674.5220608999953,674.5239653999452,674.5239653999452,674.5239653999452,674.5239653999452,677.5242635000031,677.5242635000031,678.5077184999827,1,1,1.6542354000266641,0.2540313000790775,None,678.5077967999969,678.5078165000305,None,678.5078402000945,678.5078571001068,None,678.5242769001052,678.5242769001052,,,,,,,,,5,6,0,1,2025-04-17_11h07.37.015,rtmindeye,2024.2.4,60.06272951688982,2025-04-17 11h11.13.931195 -0400,
all_stimuli/special515/special_62228.jpg,66,0,66,66,0,,,,1,0,1,6,1,"[9, 21, 31, 45, 56, 68, 69]",1,0,1.2430183000396937,0.20674890000373125,None,None,None,,,,,,,,,1,0,1,0,0,66,66,66,678.5242769001052,,,,,,,,,,,,,,,,,,,,,,678.508006399963,678.5080451001413,678.5200736001134,678.5242769001052,678.5242769001052,678.5242769001052,678.5242769001052,681.5244050000329,681.5244050000329,682.5077981001232,1,0,1.2430183000396937,0.20674890000373125,None,682.5078636000399,682.5078833999578,None,682.5079074001405,682.5079244000372,None,682.566036199918,682.566036199918,,,,,,,,,5,6,0,1,2025-04-17_11h07.37.015,rtmindeye,2024.2.4,60.06272951688982,2025-04-17 11h11.13.931195 -0400,
all_stimuli/MST_pairs1/pair_26_nsd_483_2_cocoid_8054.png,67,0,67,67,0,,,,0,0,1,6,1,"[9, 21, 31, 45, 56, 68, 69]",1,1,0.9440739001147449,0.21113619999960065,None,None,None,,,,,,,,,1,0,1,0,0,67,67,67,682.566036199918,,,,,,,,,,,,,,,,,,,,,,682.5080730000045,682.5081108999439,682.564045800129,682.566036199918,682.566036199918,682.566036199918,682.566036199918,685.5745775999967,685.5745775999967,686.5246751001105,1,1,0.9440739001147449,0.21113619999960065,None,686.5247468000744,686.524766900111,None,686.5247905999422,686.5248082000762,None,,,,,,,,,,,5,6,0,1,2025-04-17_11h07.37.015,rtmindeye,2024.2.4,60.06272951688982,2025-04-17 11h11.13.931195 -0400,
blank.jpg,68,1,68,68,0,,,,0,0,1,6,1,"[9, 21, 31, 45, 56, 68, 69]",None,0,,,None,None,None,,,,,,,,,1,0,1,0,0,68,68,68,686.5411682999693,,,,,,,,,,,,,,,,,,,,,,686.5249777999707,686.5250218000729,686.5330324999522,686.5411682999693,686.5411682999693,686.5411682999693,686.5411682999693,689.5409572001081,689.5409572001081,690.5242794000078,None,0,,,None,690.5243381001055,690.5243574001361,None,690.5243812999688,690.5243983999826,None,690.5410070000216,690.5410070000216,,,,,,,,,5,6,0,1,2025-04-17_11h07.37.015,rtmindeye,2024.2.4,60.06272951688982,2025-04-17 11h11.13.931195 -0400,
blank.jpg,69,1,69,69,0,,,,0,1,1,6,0,"[9, 21, 31, 45, 56, 68, 69]",None,0,,,None,1,equal,8.37017249991186,None,17.378217899939045,None,,,,,1,0,1,0,0,69,69,69,690.5410070000216,,,,,,,,,,,,,,,,,,,,,,690.5245433999225,690.5245813000947,690.5300235999748,690.5410070000216,690.5410070000216,690.5410070000216,690.5410070000216,693.541025799932,693.541025799932,694.5245054000989,None,0,,,None,694.5295637999661,702.9247930001002,1,702.9248506999575,720.3244962000754,equal,694.5410092000384,694.5410092000384,694.5410092000384,694.5410092000384,8.37017249991186,None,702.9410357000306,702.9410357000306,17.378217899939045,None,5,6,0,1,2025-04-17_11h07.37.015,rtmindeye,2024.2.4,60.06272951688982,2025-04-17 11h11.13.931195 -0400,
,,,1,0,1,,,,,,,,,,,,,,,,,,,,,,,,,1,0,1,0,,,,,,,,,,,,,,,,,,,,,,,,,,,,,,,,,,,,,,,,,,,,,,,,,,,,,,,,,,5,6,0,1,2025-04-17_11h07.37.015,rtmindeye,2024.2.4,60.06272951688982,2025-04-17 11h11.13.931195 -0400,
all_stimuli/shared1000_notspecial/notspecial_19672.png,0,0,0,0,0,,,,0,0,2,6,1,"[9, 21, 31, 45, 56, 68, 69]",1,1,1.2140816999599338,1.7250759999733418,None,None,None,,,,,,,,,2,0,2,0,0,0,0,0,720.3801055999938,,,,,,,,,,,,,,,,,,,,,,720.3638907999266,720.3639905001037,720.3779820001218,720.3801055999938,720.3801055999938,720.3801055999938,720.3801055999938,723.3908337999601,723.3908337999601,724.3742140000686,1,1,1.2140816999599338,1.7250759999733418,None,724.3742857999168,724.3743074000813,None,724.3743318000343,724.37434999994,None,,,,,,,,,,,5,6,0,1,2025-04-17_11h07.37.015,rtmindeye,2024.2.4,60.06272951688982,2025-04-17 11h11.13.931195 -0400,
