current_image,trial_index,is_blank_trial,is_repeat,is_new_run,run_num,sess_num,is_not_last_trial,all_blanks_list,practice.thisRepN,practice.thisTrialN,practice.thisN,practice.thisIndex,loop_runs.thisRepN,loop_runs.thisTrialN,loop_runs.thisN,loop_runs.thisIndex,loop_all_images.thisRepN,loop_all_images.thisTrialN,loop_all_images.thisN,loop_all_images.thisIndex,thisRow.t,notes,set_up.started,set_up.stopped,practice_continue.started,key_resp_6.started,text_6.started,practice_continue.stopped,key_resp_6.keys,key_resp_6.rt,key_resp_6.duration,practice_trial.started,image_2.started,press_if_repeat_2.started,polygon_3.started,all_keys_pressed_2.started,image_2.stopped,press_if_repeat_2.stopped,practice_trial.stopped,press_if_repeat_2.keys,press_if_repeat_2.corr,press_if_repeat_2.rt,press_if_repeat_2.duration,all_keys_pressed_2.keys,testing_continue.started,key_resp_7.started,text_7.started,testing_continue.stopped,key_resp_7.keys,key_resp_7.rt,key_resp_7.duration,waiting_fmri.started,key_resp_2.started,text_3.started,waiting_fmri.stopped,key_resp_2.keys,key_resp_2.rt,key_resp_2.duration,set_skips_and_correct_key.started,set_skips_and_correct_key.stopped,trial.started,image.started,press_if_repeat.started,polygon.started,all_keys_pressed.started,image.stopped,press_if_repeat.stopped,trial.stopped,press_if_repeat.keys,press_if_repeat.corr,press_if_repeat.rt,press_if_repeat.duration,all_keys_pressed.keys,run_wait2_2.started,run_wait2_2.stopped,key_resp_5.keys,waiting_fmri_2.started,waiting_fmri_2.stopped,key_resp_4.keys,polygon.stopped,all_keys_pressed.stopped,key_resp_5.started,text_5.started,key_resp_5.rt,key_resp_5.duration,key_resp_4.started,text_4.started,key_resp_4.rt,key_resp_4.duration,all_keys_pressed.rt,all_keys_pressed.duration,participant,session (1 2 or 3),starting_run,skip_practice,date,expName,psychopyVersion,frameRate,expStart,
,,,,,,,,,,,,,,,,,,,,,,,0.0043035420021624304,0.004424166996614076,,,,,,,,,,,,,,,,,,,,,,,,,,,,,,,,,,,,,,,,,,,,,,,,,,,,,,,,,,,,,,,,,,,,1,2,0,0,2024-08-13_10h18.22.975,rtmindeye,2024.1.5,None,2024-08-13 10h18.49.832387 -0400,
,,,,,,,,,,,,,,,,,,,,,,,,,0.004435709000972565,0.013785417002509348,0.013785417002509348,3.0964253339989227,1,1.9966324160050135,None,,,,,,,,,,,,,,,,,,,,,,,,,,,,,,,,,,,,,,,,,,,,,,,,,,,,,,,,,,,,,1,2,0,0,2024-08-13_10h18.22.975,rtmindeye,2024.1.5,None,2024-08-13 10h18.49.832387 -0400,
practice_images/w_kitchen2.jpg,0,0,,,,,,,0,0,0,0,,,,,,,,,3.111884416997782,,,,,,,,,,,3.100451708996843,3.111884416997782,3.111884416997782,3.111884416997782,3.111884416997782,6.107187959001749,6.107187959001749,7.1027879169996595,1,0,1.0305132489957032,0.14896358399710152,None,,,,,,,,,,,,,,,,,,,,,,,,,,,,,,,,,,,,,,,,,,,,,,,,1,2,0,0,2024-08-13_10h18.22.975,rtmindeye,2024.1.5,None,2024-08-13 10h18.49.832387 -0400,
practice_images/w_boardwalk2.jpg,1,0,,,,,,,0,1,1,1,,,,,,,,,7.117975374996604,,,,,,,,,,,7.10465637499874,7.117975374996604,7.117975374996604,7.117975374996604,7.117975374996604,10.106425999998464,10.106425999998464,11.103049083998485,1,0,1.0164314579960774,0.15598975000466453,None,,,,,,,,,,,,,,,,,,,,,,,,,,,,,,,,,,,,,,,,,,,,,,,,1,2,0,0,2024-08-13_10h18.22.975,rtmindeye,2024.1.5,None,2024-08-13 10h18.49.832387 -0400,
practice_images/w_monument2.jpg,2,0,,,,,,,0,2,2,2,,,,,,,,,11.115740374996676,,,,,,,,,,,11.104435458997614,11.115740374996676,11.115740374996676,11.115740374996676,11.115740374996676,14.106519791996107,14.106519791996107,15.102752083999803,1,0,1.2866877490014303,0.17302079199725995,None,,,,,,,,,,,,,,,,,,,,,,,,,,,,,,,,,,,,,,,,,,,,,,,,1,2,0,0,2024-08-13_10h18.22.975,rtmindeye,2024.1.5,None,2024-08-13 10h18.49.832387 -0400,
practice_images/w_auditorium2.jpg,3,0,,,,,,,0,3,3,3,,,,,,,,,15.114522999996552,,,,,,,,,,,15.1039343750017,15.114522999996552,15.114522999996552,15.114522999996552,15.114522999996552,18.1073288339976,18.1073288339976,19.103079959000752,1,0,0.9049623329992755,0.1910643329974846,None,,,,,,,,,,,,,,,,,,,,,,,,,,,,,,,,,,,,,,,,,,,,,,,,1,2,0,0,2024-08-13_10h18.22.975,rtmindeye,2024.1.5,None,2024-08-13 10h18.49.832387 -0400,
practice_images/w_kitchen2.jpg,4,0,,,,,,,0,4,4,4,,,,,,,,,19.114560083995457,,,,,,,,,,,19.10420358400006,19.114560083995457,19.114560083995457,19.114560083995457,19.114560083995457,22.107004749996122,22.107004749996122,23.103288958998746,2,0,0.7810573749957257,0.14295354099886026,None,,,,,,,,,,,,,,,,,,,,,,,,,,,,,,,,,,,,,,,,,,,,,,,,1,2,0,0,2024-08-13_10h18.22.975,rtmindeye,2024.1.5,None,2024-08-13 10h18.49.832387 -0400,
practice_images/w_auditorium1.jpg,5,0,,,,,,,0,5,5,5,,,,,,,,,23.116521416995965,,,,,,,,,,,23.104458916997828,23.116521416995965,23.116521416995965,23.116521416995965,23.116521416995965,26.106807374999335,26.106807374999335,27.103065916999185,1,0,0.9661296659978689,0.14806254200084368,None,,,,,,,,,,,,,,,,,,,,,,,,,,,,,,,,,,,,,,,,,,,,,,,,1,2,0,0,2024-08-13_10h18.22.975,rtmindeye,2024.1.5,None,2024-08-13 10h18.49.832387 -0400,
practice_images/w_bedroom2.jpg,6,0,,,,,,,0,6,6,6,,,,,,,,,27.11550804199942,,,,,,,,,,,27.104493124999863,27.11550804199942,27.11550804199942,27.11550804199942,27.11550804199942,30.10679633399559,30.10679633399559,31.103009624996048,1,0,0.7041935410015867,0.15199520900205243,None,,,,,,,,,,,,,,,,,,,,,,,,,,,,,,,,,,,,,,,,,,,,,,,,1,2,0,0,2024-08-13_10h18.22.975,rtmindeye,2024.1.5,None,2024-08-13 10h18.49.832387 -0400,
practice_images/w_kitchen1.jpg,7,0,,,,,,,0,7,7,7,,,,,,,,,31.11550608399557,,,,,,,,,,,31.10415666699555,31.11550608399557,31.11550608399557,31.11550608399557,31.11550608399557,34.10823666700162,34.10823666700162,35.10342574999959,1,0,1.5912899160030065,0.1469807499961462,None,,,,,,,,,,,,,,,,,,,,,,,,,,,,,,,,,,,,,,,,,,,,,,,,1,2,0,0,2024-08-13_10h18.22.975,rtmindeye,2024.1.5,None,2024-08-13 10h18.49.832387 -0400,
practice_images/w_bedroom1.jpg,8,0,,,,,,,0,8,8,8,,,,,,,,,35.11550770900067,,,,,,,,,,,35.104591458999494,35.11550770900067,35.11550770900067,35.11550770900067,35.11550770900067,38.10690483399958,38.10690483399958,39.10332345899951,1,0,1.488301457997295,0.15403820799838286,None,,,,,,,,,,,,,,,,,,,,,,,,,,,,,,,,,,,,,,,,,,,,,,,,1,2,0,0,2024-08-13_10h18.22.975,rtmindeye,2024.1.5,None,2024-08-13 10h18.49.832387 -0400,
practice_images/w_monument2.jpg,9,0,,,,,,,0,9,9,9,,,,,,,,,39.11452612499852,,,,,,,,,,,39.10455574999651,39.11452612499852,39.11452612499852,39.11452612499852,39.11452612499852,42.10793754200131,42.10793754200131,43.10325708399614,2,0,0.9823511240028893,0.1670582500009914,None,,,,,,,,,,,,,,,,,,,,,,,,,,,,,,,,,,,,,,,,,,,,,,,,1,2,0,0,2024-08-13_10h18.22.975,rtmindeye,2024.1.5,None,2024-08-13 10h18.49.832387 -0400,
,,,,,,,,,,,,,,,,,,,,,,,,,,,,,,,,,,,,,,,,,,,,,43.10415924999688,43.12593124999694,43.12593124999694,47.33787774999655,1,4.210224540998752,None,,,,,,,,,,,,,,,,,,,,,,,,,,,,,,,,,,,,,,,,,1,2,0,0,2024-08-13_10h18.22.975,rtmindeye,2024.1.5,None,2024-08-13 10h18.49.832387 -0400,
,,,,,,,,,,,,,,,,,,,,,,,,,,,,,,,,,,,,,,,,,,,,,,,,,,,,47.337942124999245,47.34600587499881,47.34600587499881,658.0304764589964,equal,610.6753797080019,None,,,,,,,,,,,,,,,,,,,,,,,,,,,,,,,,,,1,2,0,0,2024-08-13_10h18.22.975,rtmindeye,2024.1.5,None,2024-08-13 10h18.49.832387 -0400,
all_stimuli/special515/special_40840.jpg,0,0,0,0,0,2,1,"[9, 21, 31, 45, 56, 68, 69]",,,,,0,0,0,0,0,0,0,0,658.0675949590004,,,,,,,,,,,,,,,,,,,,,,,,,,,,,,,,,,,,,,658.0515796670006,658.0519964999985,658.0520148750002,658.0675949590004,658.0675949590004,658.0675949590004,658.0675949590004,661.0625817499968,661.0625817499968,662.0628502499967,1,1,0.7826559999957681,0.14901791600277647,None,662.0641909589976,662.0642920839964,None,662.0645574169976,662.0646089590009,None,,,,,,,,,,,,,1,2,0,0,2024-08-13_10h18.22.975,rtmindeye,2024.1.5,None,2024-08-13 10h18.49.832387 -0400,
all_stimuli/unchosen_nsd_1000_images/unchosen_5137_cocoid_57944.png,1,0,0,0,0,2,1,"[9, 21, 31, 45, 56, 68, 69]",,,,,0,0,0,0,0,1,1,1,662.0824238749992,,,,,,,,,,,,,,,,,,,,,,,,,,,,,,,,,,,,,,662.0652922090012,662.0654513749978,662.0654692089956,662.0824238749992,662.0824238749992,662.0824238749992,662.0824238749992,665.0791487919996,665.0791487919996,666.0669001249989,1,1,1.1018919999987702,0.15203908299736213,None,666.0675299169961,666.0675978340005,None,666.067723250002,666.0677642500013,None,,,,,,,,,,,,,1,2,0,0,2024-08-13_10h18.22.975,rtmindeye,2024.1.5,None,2024-08-13 10h18.49.832387 -0400,
all_stimuli/shared1000_notspecial/notspecial_38278.png,2,0,0,0,0,2,1,"[9, 21, 31, 45, 56, 68, 69]",,,,,0,0,0,0,0,2,2,2,666.0822603749984,,,,,,,,,,,,,,,,,,,,,,,,,,,,,,,,,,,,,,666.0681969169964,666.0683112920015,666.0683309169981,666.0822603749984,666.0822603749984,666.0822603749984,666.0822603749984,669.0793887920008,669.0793887920008,670.0671307500015,1,1,0.8171367489994736,0.20303858399711316,None,670.0679324590019,670.0680149589971,None,670.0681454169971,670.0681949169957,None,670.0840066669989,670.0840066669989,,,,,,,,,,,1,2,0,0,2024-08-13_10h18.22.975,rtmindeye,2024.1.5,None,2024-08-13 10h18.49.832387 -0400,
all_stimuli/special515/special_30632.jpg,3,0,0,0,0,2,1,"[9, 21, 31, 45, 56, 68, 69]",,,,,0,0,0,0,0,3,3,3,670.0840066669989,,,,,,,,,,,,,,,,,,,,,,,,,,,,,,,,,,,,,,670.0687443749994,670.0689815000005,670.0690081249995,670.0840066669989,670.0840066669989,670.0840066669989,670.0840066669989,673.0793862089995,673.0793862089995,674.0667733340015,1,1,0.6414872080058558,0.16292199999588775,None,674.0676094169976,674.0676939170007,None,674.0678450420019,674.0678934169991,None,674.083321291997,674.083321291997,,,,,,,,,,,1,2,0,0,2024-08-13_10h18.22.975,rtmindeye,2024.1.5,None,2024-08-13 10h18.49.832387 -0400,
all_stimuli/special515/special_38494.jpg,4,0,0,0,0,2,1,"[9, 21, 31, 45, 56, 68, 69]",,,,,0,0,0,0,0,4,4,4,674.083321291997,,,,,,,,,,,,,,,,,,,,,,,,,,,,,,,,,,,,,,674.0684338749998,674.0685749999975,674.0685944169963,674.083321291997,674.083321291997,674.083321291997,674.083321291997,677.0793885000021,677.0793885000021,678.0681604999991,1,1,0.5482183740023174,0.17903158300032374,None,678.0689960839954,678.069081458998,None,678.069238666998,678.0692889170023,None,678.0844798339967,678.0844798339967,,,,,,,,,,,1,2,0,0,2024-08-13_10h18.22.975,rtmindeye,2024.1.5,None,2024-08-13 10h18.49.832387 -0400,
all_stimuli/shared1000_notspecial/notspecial_46835.png,5,0,0,0,0,2,1,"[9, 21, 31, 45, 56, 68, 69]",,,,,0,0,0,0,0,5,5,5,678.0844798339967,,,,,,,,,,,,,,,,,,,,,,,,,,,,,,,,,,,,,,678.0698386669974,678.0699807919955,678.0700045839985,678.0844798339967,678.0844798339967,678.0844798339967,678.0844798339967,681.0793812499978,681.0793812499978,682.0795259590013,1,1,0.6591684989980422,0.18193920900375815,None,682.0803936250013,682.0804807500026,None,682.0806349999984,682.080684333996,None,,,,,,,,,,,,,1,2,0,0,2024-08-13_10h18.22.975,rtmindeye,2024.1.5,None,2024-08-13 10h18.49.832387 -0400,
all_stimuli/special515/special_40935.jpg,6,0,0,0,0,2,1,"[9, 21, 31, 45, 56, 68, 69]",,,,,0,0,0,0,0,6,6,6,682.0960417919996,,,,,,,,,,,,,,,,,,,,,,,,,,,,,,,,,,,,,,682.0812395839966,682.0813688749986,682.0813881669965,682.0960417919996,682.0960417919996,682.0960417919996,682.0960417919996,685.0827315419956,685.0827315419956,686.0799998340008,1,1,0.6306570820015622,0.16497700000036275,None,686.0807948750007,686.0808907089959,None,686.0810283339961,686.0810734999977,None,686.0952562500024,686.0952562500024,,,,,,,,,,,1,2,0,0,2024-08-13_10h18.22.975,rtmindeye,2024.1.5,None,2024-08-13 10h18.49.832387 -0400,
all_stimuli/special515/special_11617.jpg,7,0,0,0,0,2,1,"[9, 21, 31, 45, 56, 68, 69]",,,,,0,0,0,0,0,7,7,7,686.0952562500024,,,,,,,,,,,,,,,,,,,,,,,,,,,,,,,,,,,,,,686.0815682920002,686.0816879170015,686.0817075419982,686.0952562500024,686.0952562500024,686.0952562500024,686.0952562500024,689.0843267500022,689.0843267500022,690.0800815839975,1,1,0.6074013329998706,0.16599049999786075,None,690.0810641669959,690.0811744999955,None,690.0813277920024,690.0813870420025,None,690.0947630419978,690.0947630419978,,,,,,,,,,,1,2,0,0,2024-08-13_10h18.22.975,rtmindeye,2024.1.5,None,2024-08-13 10h18.49.832387 -0400,
all_stimuli/special515/special_10105.jpg,8,0,0,0,0,2,1,"[9, 21, 31, 45, 56, 68, 69]",,,,,0,0,0,0,0,8,8,8,690.0947630419978,,,,,,,,,,,,,,,,,,,,,,,,,,,,,,,,,,,,,,690.0819627919991,690.082106875001,690.0821297919974,690.0947630419978,690.0947630419978,690.0947630419978,690.0947630419978,693.0832909999954,693.0832909999954,694.0799023750005,1,1,0.661975374998292,0.17003050000494113,None,694.0807563749986,694.0808398750014,None,694.0809907090006,694.0810396669985,None,694.0919825419987,694.0919825419987,,,,,,,,,,,1,2,0,0,2024-08-13_10h18.22.975,rtmindeye,2024.1.5,None,2024-08-13 10h18.49.832387 -0400,
blank.jpg,9,1,0,0,0,2,1,"[9, 21, 31, 45, 56, 68, 69]",,,,,0,0,0,0,0,9,9,9,694.0919825419987,,,,,,,,,,,,,,,,,,,,,,,,,,,,,,,,,,,,,,694.0815826670005,694.0817265419973,694.0817506250023,694.0919825419987,694.0919825419987,694.0919825419987,694.0919825419987,697.0836099169974,697.0836099169974,698.0797214999984,None,0,,,None,698.0803881669999,698.0804797919991,None,698.0806077919988,698.0806528749963,None,698.0940073750025,698.0940073750025,,,,,,,,,,,1,2,0,0,2024-08-13_10h18.22.975,rtmindeye,2024.1.5,None,2024-08-13 10h18.49.832387 -0400,
all_stimuli/MST_pairs1/pair_46_w_pool1.jpg,10,0,0,0,0,2,1,"[9, 21, 31, 45, 56, 68, 69]",,,,,0,0,0,0,0,10,10,10,698.0940073750025,,,,,,,,,,,,,,,,,,,,,,,,,,,,,,,,,,,,,,698.0811341669978,698.0812539170001,698.0812737500019,698.0940073750025,698.0940073750025,698.0940073750025,698.0940073750025,701.083634124996,701.083634124996,702.0803207919962,1,1,0.641811374000099,0.1530128749946016,None,702.081280792001,702.0813839999973,None,702.0815462089959,702.0816034169984,None,702.0989919589992,702.0989919589992,,,,,,,,,,,1,2,0,0,2024-08-13_10h18.22.975,rtmindeye,2024.1.5,None,2024-08-13 10h18.49.832387 -0400,
all_stimuli/special515/special_68814.jpg,11,0,0,0,0,2,1,"[9, 21, 31, 45, 56, 68, 69]",,,,,0,0,0,0,0,11,11,11,702.0989919589992,,,,,,,,,,,,,,,,,,,,,,,,,,,,,,,,,,,,,,702.0822017499959,702.0823549999986,702.0823795420001,702.0989919589992,702.0989919589992,702.0989919589992,702.0989919589992,705.0964317499966,705.0964317499966,706.0837877090016,1,1,0.6499034989974461,0.13298724999913247,None,706.0844549169997,706.0845217499955,None,706.0846442499969,706.0846837499994,None,,,,,,,,,,,,,1,2,0,0,2024-08-13_10h18.22.975,rtmindeye,2024.1.5,None,2024-08-13 10h18.49.832387 -0400,
all_stimuli/special515/special_34126.jpg,12,0,0,0,0,2,1,"[9, 21, 31, 45, 56, 68, 69]",,,,,0,0,0,0,0,12,12,12,706.0996154169989,,,,,,,,,,,,,,,,,,,,,,,,,,,,,,,,,,,,,,706.0851120000007,706.0852266669972,706.0852432920001,706.0996154169989,706.0996154169989,706.0996154169989,706.0996154169989,709.0964412920002,709.0964412920002,710.0848961669981,1,1,0.5393992489989614,0.14197374999639578,None,710.085738834001,710.085827750001,None,710.0859839999976,710.086033583997,None,710.0997339999958,710.0997339999958,,,,,,,,,,,1,2,0,0,2024-08-13_10h18.22.975,rtmindeye,2024.1.5,None,2024-08-13 10h18.49.832387 -0400,
all_stimuli/special515/special_47293.jpg,13,0,0,0,0,2,1,"[9, 21, 31, 45, 56, 68, 69]",,,,,0,0,0,0,0,13,13,13,710.0997339999958,,,,,,,,,,,,,,,,,,,,,,,,,,,,,,,,,,,,,,710.0866052919955,710.0867479590015,710.0867690840023,710.0997339999958,710.0997339999958,710.0997339999958,710.0997339999958,713.0966037920007,713.0966037920007,714.0840284169972,1,1,0.7613444579983479,0.147968375000346,None,714.084690124997,714.0847621249995,None,714.0848859589969,714.0849305000011,None,714.0960443750009,714.0960443750009,,,,,,,,,,,1,2,0,0,2024-08-13_10h18.22.975,rtmindeye,2024.1.5,None,2024-08-13 10h18.49.832387 -0400,
all_stimuli/special515/special_23715.jpg,14,0,0,0,0,2,1,"[9, 21, 31, 45, 56, 68, 69]",,,,,0,0,0,0,0,14,14,14,714.0960443750009,,,,,,,,,,,,,,,,,,,,,,,,,,,,,,,,,,,,,,714.0853704170004,714.0854823339978,714.0854993749963,714.0960443750009,714.0960443750009,714.0960443750009,714.0960443750009,717.0838004589968,717.0838004589968,718.080561499999,1,1,0.7631660410042969,0.16700283299724106,None,718.0813651249991,718.0814486250019,None,718.0815827920014,718.0816320000013,None,718.0987720420017,718.0987720420017,,,,,,,,,,,1,2,0,0,2024-08-13_10h18.22.975,rtmindeye,2024.1.5,None,2024-08-13 10h18.49.832387 -0400,
all_stimuli/unchosen_nsd_1000_images/unchosen_8117_cocoid_61766.png,15,0,0,0,0,2,1,"[9, 21, 31, 45, 56, 68, 69]",,,,,0,0,0,0,0,15,15,15,718.0987720420017,,,,,,,,,,,,,,,,,,,,,,,,,,,,,,,,,,,,,,718.0821318340022,718.0822608750022,718.0822781250026,718.0987720420017,718.0987720420017,718.0987720420017,718.0987720420017,721.0967503749998,721.0967503749998,722.0840208750014,1,1,1.072381291000056,0.2290121670012013,None,722.0848482500005,722.0849359170024,None,722.0850928750006,722.085143999997,None,,,,,,,,,,,,,1,2,0,0,2024-08-13_10h18.22.975,rtmindeye,2024.1.5,None,2024-08-13 10h18.49.832387 -0400,
all_stimuli/special515/special_43619.jpg,16,0,0,0,0,2,1,"[9, 21, 31, 45, 56, 68, 69]",,,,,0,0,0,0,0,16,16,16,722.1003227499968,,,,,,,,,,,,,,,,,,,,,,,,,,,,,,,,,,,,,,722.0856875419995,722.0858340420018,722.0858548749966,722.1003227499968,722.1003227499968,722.1003227499968,722.1003227499968,725.0966247089964,725.0966247089964,726.0847897919957,1,1,0.8099251250023372,0.1650169159984216,None,726.0856272500023,726.0857124999966,None,726.0858680839956,726.085919541998,None,726.1003901250006,726.1003901250006,,,,,,,,,,,1,2,0,0,2024-08-13_10h18.22.975,rtmindeye,2024.1.5,None,2024-08-13 10h18.49.832387 -0400,
all_stimuli/special515/special_14610.jpg,17,0,0,0,0,2,1,"[9, 21, 31, 45, 56, 68, 69]",,,,,0,0,0,0,0,17,17,17,726.1003901250006,,,,,,,,,,,,,,,,,,,,,,,,,,,,,,,,,,,,,,726.0864653339959,726.0866065000009,726.0866305000018,726.1003901250006,726.1003901250006,726.1003901250006,726.1003901250006,729.096932542001,729.096932542001,730.0843038749954,1,1,0.73287541600439,0.19100875000003725,None,730.0851198340024,730.0852052920018,None,730.0853779169993,730.085427375001,None,730.100079625001,730.100079625001,,,,,,,,,,,1,2,0,0,2024-08-13_10h18.22.975,rtmindeye,2024.1.5,None,2024-08-13 10h18.49.832387 -0400,
all_stimuli/special515/special_60505.jpg,18,0,0,0,0,2,1,"[9, 21, 31, 45, 56, 68, 69]",,,,,0,0,0,0,0,18,18,18,730.100079625001,,,,,,,,,,,,,,,,,,,,,,,,,,,,,,,,,,,,,,730.0859920000003,730.086133249999,730.0861514999997,730.100079625001,730.100079625001,730.100079625001,730.100079625001,733.096867166998,733.096867166998,734.0851852920023,1,1,0.642249748998438,0.16099383300024783,None,734.086014667002,734.0861001250014,None,734.0862512500025,734.0862998340017,None,734.1018352499959,734.1018352499959,,,,,,,,,,,1,2,0,0,2024-08-13_10h18.22.975,rtmindeye,2024.1.5,None,2024-08-13 10h18.49.832387 -0400,
all_stimuli/closest_pairs1/set_1_closest_to_pair_44_image_cocoid_68290.png,19,0,0,0,0,2,1,"[9, 21, 31, 45, 56, 68, 69]",,,,,0,0,0,0,0,19,19,19,734.1018352499959,,,,,,,,,,,,,,,,,,,,,,,,,,,,,,,,,,,,,,734.086855542002,734.0869982500008,734.0870192090006,734.1018352499959,734.1018352499959,734.1018352499959,734.1018352499959,737.096884833998,737.096884833998,738.0973465419956,1,1,0.6845456239971099,0.15200329200160922,None,738.0981758339985,738.0982773750002,None,738.0984032499982,738.0984480839979,None,,,,,,,,,,,,,1,2,0,0,2024-08-13_10h18.22.975,rtmindeye,2024.1.5,None,2024-08-13 10h18.49.832387 -0400,
all_stimuli/special515/special_38022.jpg,20,0,0,0,0,2,1,"[9, 21, 31, 45, 56, 68, 69]",,,,,0,0,0,0,0,20,20,20,738.1149616670009,,,,,,,,,,,,,,,,,,,,,,,,,,,,,,,,,,,,,,738.0989507920021,738.0991151249982,738.0991351670018,738.1149616670009,738.1149616670009,738.1149616670009,738.1149616670009,741.1136404999997,741.1136404999997,742.102010083996,1,1,0.7714708319981582,0.15401700000074925,None,742.1028261249958,742.1029141670006,None,742.1030702499993,742.1031210419969,None,,,,,,,,,,,,,1,2,0,0,2024-08-13_10h18.22.975,rtmindeye,2024.1.5,None,2024-08-13 10h18.49.832387 -0400,
blank.jpg,21,1,0,0,0,2,1,"[9, 21, 31, 45, 56, 68, 69]",,,,,0,0,0,0,0,21,21,21,742.1303691669964,,,,,,,,,,,,,,,,,,,,,,,,,,,,,,,,,,,,,,742.1036749589985,742.1038484590026,742.1038702090009,742.1303691669964,742.1303691669964,742.1303691669964,742.1303691669964,745.117581749997,745.117581749997,746.1137815839975,None,0,,,None,746.1143447499999,746.1144292919998,None,746.1145832499969,746.1146337089958,None,,,,,,,,,,,,,1,2,0,0,2024-08-13_10h18.22.975,rtmindeye,2024.1.5,None,2024-08-13 10h18.49.832387 -0400,
all_stimuli/special515/special_56269.jpg,22,0,0,0,0,2,1,"[9, 21, 31, 45, 56, 68, 69]",,,,,0,0,0,0,0,22,22,22,746.1310038340016,,,,,,,,,,,,,,,,,,,,,,,,,,,,,,,,,,,,,,746.1151696250017,746.115314333998,746.1153356249997,746.1310038340016,746.1310038340016,746.1310038340016,746.1310038340016,749.1175741670013,749.1175741670013,750.114333999998,1,1,0.9355702070024563,0.16101945899572456,None,750.1151241670013,750.1152103749992,None,750.1153403339995,750.1153875419986,None,750.1310242089967,750.1310242089967,,,,,,,,,,,1,2,0,0,2024-08-13_10h18.22.975,rtmindeye,2024.1.5,None,2024-08-13 10h18.49.832387 -0400,
all_stimuli/closest_pairs1/set_3_closest_to_pair_36_image_cocoid_68016.png,23,0,0,0,0,2,1,"[9, 21, 31, 45, 56, 68, 69]",,,,,0,0,0,0,0,23,23,23,750.1310242089967,,,,,,,,,,,,,,,,,,,,,,,,,,,,,,,,,,,,,,750.1158924170013,750.1160156249971,750.1160355839966,750.1310242089967,750.1310242089967,750.1310242089967,750.1310242089967,753.1181687919961,753.1181687919961,754.1142903340005,1,1,0.7555586240050616,0.19304729199939175,None,754.1151307499968,754.1152193750022,None,754.1153567919973,754.1154025840005,None,754.1317482500017,754.1317482500017,,,,,,,,,,,1,2,0,0,2024-08-13_10h18.22.975,rtmindeye,2024.1.5,None,2024-08-13 10h18.49.832387 -0400,
all_stimuli/special515/special_38246.jpg,24,0,0,0,0,2,1,"[9, 21, 31, 45, 56, 68, 69]",,,,,0,0,0,0,0,24,24,24,754.1317482500017,,,,,,,,,,,,,,,,,,,,,,,,,,,,,,,,,,,,,,754.1158945419957,754.1160251249967,754.1160430000018,754.1317482500017,754.1317482500017,754.1317482500017,754.1317482500017,757.1189791669967,757.1189791669967,758.118520709002,1,1,0.8918722910020733,0.15402575000189245,None,758.1193342920014,758.1194207090011,None,758.1195721249969,758.1196263340025,None,,,,,,,,,,,,,1,2,0,0,2024-08-13_10h18.22.975,rtmindeye,2024.1.5,None,2024-08-13 10h18.49.832387 -0400,
all_stimuli/special515/special_58404.jpg,25,0,0,0,0,2,1,"[9, 21, 31, 45, 56, 68, 69]",,,,,0,0,0,0,0,25,25,25,758.1340120000023,,,,,,,,,,,,,,,,,,,,,,,,,,,,,,,,,,,,,,758.120176958997,758.1203390419978,758.1203599590008,758.1340120000023,758.1340120000023,758.1340120000023,758.1340120000023,761.1305916670026,761.1305916670026,762.1188730840004,1,1,0.8267521659945487,0.1810277920012595,None,762.1196895419998,762.1197815420019,None,762.1199328340008,762.1199822920025,None,762.1370061670023,762.1370061670023,,,,,,,,,,,1,2,0,0,2024-08-13_10h18.22.975,rtmindeye,2024.1.5,None,2024-08-13 10h18.49.832387 -0400,
all_stimuli/MST_pairs1/pair_0_1_78.png,26,0,0,0,0,2,1,"[9, 21, 31, 45, 56, 68, 69]",,,,,0,0,0,0,0,26,26,26,762.1370061670023,,,,,,,,,,,,,,,,,,,,,,,,,,,,,,,,,,,,,,762.1205364999987,762.1206800840009,762.1207040000008,762.1370061670023,762.1370061670023,762.1370061670023,762.1370061670023,765.1345218339993,765.1345218339993,766.130783458997,1,1,0.8317479580000509,0.14905383300356334,None,766.1317253340021,766.1318218750021,None,766.1319515840005,766.1319990420016,None,,,,,,,,,,,,,1,2,0,0,2024-08-13_10h18.22.975,rtmindeye,2024.1.5,None,2024-08-13 10h18.49.832387 -0400,
all_stimuli/special515/special_28159.jpg,27,0,0,0,0,2,1,"[9, 21, 31, 45, 56, 68, 69]",,,,,0,0,0,0,0,27,27,27,766.1475183340008,,,,,,,,,,,,,,,,,,,,,,,,,,,,,,,,,,,,,,766.1324841669993,766.1326674590018,766.1326847500022,766.1475183340008,766.1475183340008,766.1475183340008,766.1475183340008,769.1339881250024,769.1339881250024,770.1313474999988,1,1,0.985331331998168,0.15700620900315698,None,770.1321475840014,770.1322364169973,None,770.1323695419997,770.132418000001,None,770.1487332499964,770.1487332499964,,,,,,,,,,,1,2,0,0,2024-08-13_10h18.22.975,rtmindeye,2024.1.5,None,2024-08-13 10h18.49.832387 -0400,
all_stimuli/closest_pairs1/set_2_closest_to_pair_22_image_cocoid_33200.png,28,0,0,0,0,2,1,"[9, 21, 31, 45, 56, 68, 69]",,,,,0,0,0,0,0,28,28,28,770.1487332499964,,,,,,,,,,,,,,,,,,,,,,,,,,,,,,,,,,,,,,770.1331500419983,770.1333586249966,770.1333871250026,770.1487332499964,770.1487332499964,770.1487332499964,770.1487332499964,773.1473733749954,773.1473733749954,774.1355413749989,1,1,0.7701767909966293,0.14897441700304626,None,774.1363752920006,774.1364696669989,None,774.1366294999971,774.1366798340023,None,,,,,,,,,,,,,1,2,0,0,2024-08-13_10h18.22.975,rtmindeye,2024.1.5,None,2024-08-13 10h18.49.832387 -0400,
all_stimuli/MST_pairs1/pair_8_12_0.png,29,0,0,0,0,2,1,"[9, 21, 31, 45, 56, 68, 69]",,,,,0,0,0,0,0,29,29,29,774.1544876670014,,,,,,,,,,,,,,,,,,,,,,,,,,,,,,,,,,,,,,774.1372491250004,774.1374014999965,774.1374206670007,774.1544876670014,774.1544876670014,774.1544876670014,774.1544876670014,777.1513342499966,777.1513342499966,778.1476015000007,1,1,0.8975024160026805,0.14696045899472665,None,778.148475791997,778.1485622089967,None,778.1487342089968,778.1487843340001,None,,,,,,,,,,,,,1,2,0,0,2024-08-13_10h18.22.975,rtmindeye,2024.1.5,None,2024-08-13 10h18.49.832387 -0400,
all_stimuli/closest_pairs1/set_1_closest_to_pair_20_image_cocoid_43046.png,30,0,0,0,0,2,1,"[9, 21, 31, 45, 56, 68, 69]",,,,,0,0,0,0,0,30,30,30,778.1645097500004,,,,,,,,,,,,,,,,,,,,,,,,,,,,,,,,,,,,,,778.1493365839997,778.1494858750011,778.1495058340006,778.1645097500004,778.1645097500004,778.1645097500004,778.1645097500004,781.1507375000001,781.1507375000001,782.1480208339999,1,1,1.2525103750012931,0.17807279100088635,None,782.148867625001,782.1489540420007,None,782.149083833996,782.1491313340011,None,782.1605189999973,782.1605189999973,,,,,,,,,,,1,2,0,0,2024-08-13_10h18.22.975,rtmindeye,2024.1.5,None,2024-08-13 10h18.49.832387 -0400,
blank.jpg,31,1,0,0,0,2,1,"[9, 21, 31, 45, 56, 68, 69]",,,,,0,0,0,0,0,31,31,31,782.1605189999973,,,,,,,,,,,,,,,,,,,,,,,,,,,,,,,,,,,,,,782.1496173339983,782.149738209002,782.1497580840005,782.1605189999973,782.1605189999973,782.1605189999973,782.1605189999973,785.1515766250013,785.1515766250013,786.1479446669982,None,0,,,None,786.1485332919983,786.1486144590017,None,786.148772333996,786.1488212089971,None,786.1642414590024,786.1642414590024,,,,,,,,,,,1,2,0,0,2024-08-13_10h18.22.975,rtmindeye,2024.1.5,None,2024-08-13 10h18.49.832387 -0400,
all_stimuli/special515/special_47687.jpg,32,0,0,0,0,2,1,"[9, 21, 31, 45, 56, 68, 69]",,,,,0,0,0,0,0,32,32,32,786.1642414590024,,,,,,,,,,,,,,,,,,,,,,,,,,,,,,,,,,,,,,786.1493759169971,786.1495160839986,786.1495370839984,786.1642414590024,786.1642414590024,786.1642414590024,786.1642414590024,789.1515563339999,789.1515563339999,790.1480312089989,1,1,0.9228543749995879,0.1570538750020205,None,790.1488364999968,790.1489348339965,None,790.1490596669973,790.1491043749993,None,790.1630207499984,790.1630207499984,,,,,,,,,,,1,2,0,0,2024-08-13_10h18.22.975,rtmindeye,2024.1.5,None,2024-08-13 10h18.49.832387 -0400,
all_stimuli/special515/special_30395.jpg,33,0,0,0,0,2,1,"[9, 21, 31, 45, 56, 68, 69]",,,,,0,0,0,0,0,33,33,33,790.1630207499984,,,,,,,,,,,,,,,,,,,,,,,,,,,,,,,,,,,,,,790.1496137499998,790.1497322089999,790.1497517919997,790.1630207499984,790.1630207499984,790.1630207499984,790.1630207499984,793.1523473339985,793.1523473339985,794.1480817499978,1,1,0.8311809570004698,0.14595262499642558,None,794.1488632920009,794.148948916998,None,794.1490980000017,794.1491468339955,None,794.1625238749984,794.1625238749984,,,,,,,,,,,1,2,0,0,2024-08-13_10h18.22.975,rtmindeye,2024.1.5,None,2024-08-13 10h18.49.832387 -0400,
all_stimuli/special515/special_30856.jpg,34,0,0,0,0,2,1,"[9, 21, 31, 45, 56, 68, 69]",,,,,0,0,0,0,0,34,34,34,794.1625238749984,,,,,,,,,,,,,,,,,,,,,,,,,,,,,,,,,,,,,,794.1496719589995,794.1498131249973,794.1498341670012,794.1625238749984,794.1625238749984,794.1625238749984,794.1625238749984,797.1515435420006,797.1515435420006,798.1483593750017,1,1,0.6206720830014092,0.19097970799339237,None,798.1491583339957,798.149250041999,None,798.1493792089968,798.1494284590008,None,798.163015291997,798.163015291997,,,,,,,,,,,1,2,0,0,2024-08-13_10h18.22.975,rtmindeye,2024.1.5,None,2024-08-13 10h18.49.832387 -0400,
all_stimuli/special515/special_62015.jpg,35,0,0,0,0,2,1,"[9, 21, 31, 45, 56, 68, 69]",,,,,0,0,0,0,0,35,35,35,798.163015291997,,,,,,,,,,,,,,,,,,,,,,,,,,,,,,,,,,,,,,798.149911333996,798.1500339999984,798.150051167002,798.163015291997,798.163015291997,798.163015291997,798.163015291997,801.1518093749983,801.1518093749983,802.1484100419984,1,1,0.7082357909966959,0.1590527500011376,None,802.1492146669989,802.149300584002,None,802.149432416998,802.1494773340019,None,802.1637550419982,802.1637550419982,,,,,,,,,,,1,2,0,0,2024-08-13_10h18.22.975,rtmindeye,2024.1.5,None,2024-08-13 10h18.49.832387 -0400,
all_stimuli/special515/special_62006.jpg,36,0,0,0,0,2,1,"[9, 21, 31, 45, 56, 68, 69]",,,,,0,0,0,0,0,36,36,36,802.1637550419982,,,,,,,,,,,,,,,,,,,,,,,,,,,,,,,,,,,,,,802.1499712090008,802.1501018749987,802.1501194169978,802.1637550419982,802.1637550419982,802.1637550419982,802.1637550419982,805.151852834002,805.151852834002,806.1483727090017,1,1,0.6935975829983363,0.17397812499984866,None,806.1491856669963,806.1492777919993,None,806.1494064590006,806.1494579589998,None,806.1640567089999,806.1640567089999,,,,,,,,,,,1,2,0,0,2024-08-13_10h18.22.975,rtmindeye,2024.1.5,None,2024-08-13 10h18.49.832387 -0400,
all_stimuli/special515/special_43159.jpg,37,0,0,0,0,2,1,"[9, 21, 31, 45, 56, 68, 69]",,,,,0,0,0,0,0,37,37,37,806.1640567089999,,,,,,,,,,,,,,,,,,,,,,,,,,,,,,,,,,,,,,806.1499466250025,806.1500681249963,806.150085041998,806.1640567089999,806.1640567089999,806.1640567089999,806.1640567089999,809.1518194169985,809.1518194169985,810.1482740840001,1,1,0.7413205830016523,0.14101241699972888,None,810.1491013339983,810.1491859590024,None,810.149348125,810.1493964999972,None,810.1627845420007,810.1627845420007,,,,,,,,,,,1,2,0,0,2024-08-13_10h18.22.975,rtmindeye,2024.1.5,None,2024-08-13 10h18.49.832387 -0400,
all_stimuli/special515/special_11796.jpg,38,0,0,0,0,2,1,"[9, 21, 31, 45, 56, 68, 69]",,,,,0,0,0,0,0,38,38,38,810.1627845420007,,,,,,,,,,,,,,,,,,,,,,,,,,,,,,,,,,,,,,810.149923500001,810.1500640840022,810.1500851669989,810.1627845420007,810.1627845420007,810.1627845420007,810.1627845420007,813.1518805419983,813.1518805419983,814.1486270000023,1,1,0.6317231659995741,0.16498808399774134,None,814.1494491249978,814.1495343339993,None,814.1496603339983,814.1497064590003,None,814.1630231669988,814.1630231669988,,,,,,,,,,,1,2,0,0,2024-08-13_10h18.22.975,rtmindeye,2024.1.5,None,2024-08-13 10h18.49.832387 -0400,
all_stimuli/special515/special_63825.jpg,39,0,0,0,0,2,1,"[9, 21, 31, 45, 56, 68, 69]",,,,,0,0,0,0,0,39,39,39,814.1630231669988,,,,,,,,,,,,,,,,,,,,,,,,,,,,,,,,,,,,,,814.1504784999997,814.1506907919975,814.1507202499997,814.1630231669988,814.1630231669988,814.1630231669988,814.1630231669988,817.1520517089957,817.1520517089957,818.1486602090008,1,1,0.6135705409978982,0.16592479099927004,None,818.1494525840026,818.1495405000023,None,818.1496679999982,818.1497151669973,None,818.1645833750008,818.1645833750008,,,,,,,,,,,1,2,0,0,2024-08-13_10h18.22.975,rtmindeye,2024.1.5,None,2024-08-13 10h18.49.832387 -0400,
all_stimuli/special515/special_65920.jpg,40,0,0,0,0,2,1,"[9, 21, 31, 45, 56, 68, 69]",,,,,0,0,0,0,0,40,40,40,818.1645833750008,,,,,,,,,,,,,,,,,,,,,,,,,,,,,,,,,,,,,,818.1502056249956,818.1503240419988,818.1503409169964,818.1645833750008,818.1645833750008,818.1645833750008,818.1645833750008,821.1526645420017,821.1526645420017,822.1487937919956,1,1,0.7179190819952055,0.1670313750000787,None,822.1495759169993,822.1496629169997,None,822.1497906669974,822.1498379589975,None,822.1667235839996,822.1667235839996,,,,,,,,,,,1,2,0,0,2024-08-13_10h18.22.975,rtmindeye,2024.1.5,None,2024-08-13 10h18.49.832387 -0400,
all_stimuli/unchosen_nsd_1000_images/unchosen_386_cocoid_64307.png,41,0,0,0,0,2,1,"[9, 21, 31, 45, 56, 68, 69]",,,,,0,0,0,0,0,41,41,41,822.1667235839996,,,,,,,,,,,,,,,,,,,,,,,,,,,,,,,,,,,,,,822.1506247090001,822.1508350000004,822.1508634589991,822.1667235839996,822.1667235839996,822.1667235839996,822.1667235839996,825.164652499996,825.164652499996,826.1522572089962,1,1,0.8368913750018692,0.1780102079937933,None,826.153065708997,826.1531513340014,None,826.1533057499983,826.1533552499968,None,,,,,,,,,,,,,1,2,0,0,2024-08-13_10h18.22.975,rtmindeye,2024.1.5,None,2024-08-13 10h18.49.832387 -0400,
all_stimuli/closest_pairs1/set_1_closest_to_pair_34_image_cocoid_8426.png,42,0,0,0,0,2,1,"[9, 21, 31, 45, 56, 68, 69]",,,,,0,0,0,0,0,42,42,42,826.1685828339978,,,,,,,,,,,,,,,,,,,,,,,,,,,,,,,,,,,,,,826.1539234169977,826.1540695000003,826.154090709002,826.1685828339978,826.1685828339978,826.1685828339978,826.1685828339978,829.164823041996,829.164823041996,830.1537701670022,1,1,0.7971041659984621,0.16601000000082422,None,830.1545897499964,830.1546757499964,None,830.1548445000008,830.1548965839975,None,830.1702856670017,830.1702856670017,,,,,,,,,,,1,2,0,0,2024-08-13_10h18.22.975,rtmindeye,2024.1.5,None,2024-08-13 10h18.49.832387 -0400,
all_stimuli/special515/special_61873.jpg,43,0,0,0,0,2,1,"[9, 21, 31, 45, 56, 68, 69]",,,,,0,0,0,0,0,43,43,43,830.1702856670017,,,,,,,,,,,,,,,,,,,,,,,,,,,,,,,,,,,,,,830.1554929170015,830.1556357090012,830.1556569999957,830.1702856670017,830.1702856670017,830.1702856670017,830.1702856670017,833.1648819589973,833.1648819589973,834.153274874996,1,1,0.7734787500012317,0.16097958300088067,None,834.1540939999977,834.1541833750016,None,834.1543335419992,834.1543830419978,None,834.1721992919993,834.1721992919993,,,,,,,,,,,1,2,0,0,2024-08-13_10h18.22.975,rtmindeye,2024.1.5,None,2024-08-13 10h18.49.832387 -0400,
all_stimuli/MST_pairs1/pair_4_6_89.png,44,0,0,0,0,2,1,"[9, 21, 31, 45, 56, 68, 69]",,,,,0,0,0,0,0,44,44,44,834.1721992919993,,,,,,,,,,,,,,,,,,,,,,,,,,,,,,,,,,,,,,834.1549371669971,834.1550764999993,834.155100584001,834.1721992919993,834.1721992919993,834.1721992919993,834.1721992919993,837.1688395839956,837.1688395839956,838.1652111669973,1,1,1.3975798329993268,0.18706545799796004,None,838.1661204999982,838.1662127090021,None,838.1663392920018,838.1663840839974,None,,,,,,,,,,,,,1,2,0,0,2024-08-13_10h18.22.975,rtmindeye,2024.1.5,None,2024-08-13 10h18.49.832387 -0400,
blank.jpg,45,1,0,0,0,2,1,"[9, 21, 31, 45, 56, 68, 69]",,,,,0,0,0,0,0,45,45,45,838.1760087500006,,,,,,,,,,,,,,,,,,,,,,,,,,,,,,,,,,,,,,838.1668852919975,838.1670548339971,838.167074459001,838.1760087500006,838.1760087500006,838.1760087500006,838.1760087500006,841.1690279999966,841.1690279999966,842.1656742920022,None,0,,,None,842.1662404169983,842.1663189589963,None,842.1664481249973,842.1664957089961,None,842.1819728749979,842.1819728749979,,,,,,,,,,,1,2,0,0,2024-08-13_10h18.22.975,rtmindeye,2024.1.5,None,2024-08-13 10h18.49.832387 -0400,
all_stimuli/special515/special_18543.jpg,46,0,0,0,0,2,1,"[9, 21, 31, 45, 56, 68, 69]",,,,,0,0,0,0,0,46,46,46,842.1819728749979,,,,,,,,,,,,,,,,,,,,,,,,,,,,,,,,,,,,,,842.1669848340025,842.1671029999998,842.1671222090008,842.1819728749979,842.1819728749979,842.1819728749979,842.1819728749979,845.1689776669955,845.1689776669955,846.1654474169991,1,1,0.8889161240003887,0.18302862499695038,None,846.1662764590001,846.1663602920016,None,846.1665118340024,846.1665727919972,None,846.1805090420021,846.1805090420021,,,,,,,,,,,1,2,0,0,2024-08-13_10h18.22.975,rtmindeye,2024.1.5,None,2024-08-13 10h18.49.832387 -0400,
all_stimuli/special515/special_36731.jpg,47,0,0,0,0,2,1,"[9, 21, 31, 45, 56, 68, 69]",,,,,0,0,0,0,0,47,47,47,846.1805090420021,,,,,,,,,,,,,,,,,,,,,,,,,,,,,,,,,,,,,,846.1670990839993,846.167240458999,846.1672619169985,846.1805090420021,846.1805090420021,846.1805090420021,846.1805090420021,849.169140375001,849.169140375001,850.1654242919976,1,1,1.0874769990041386,0.19794383299449692,None,850.1662344590004,850.1663182089978,None,850.1664669999955,850.1665250000005,None,850.1815182089995,850.1815182089995,,,,,,,,,,,1,2,0,0,2024-08-13_10h18.22.975,rtmindeye,2024.1.5,None,2024-08-13 10h18.49.832387 -0400,
all_stimuli/special515/special_13312.jpg,48,0,0,0,0,2,1,"[9, 21, 31, 45, 56, 68, 69]",,,,,0,0,0,0,0,48,48,48,850.1815182089995,,,,,,,,,,,,,,,,,,,,,,,,,,,,,,,,,,,,,,850.1670509169999,850.1671915420011,850.1672150840022,850.1815182089995,850.1815182089995,850.1815182089995,850.1815182089995,853.1693559999985,853.1693559999985,854.1657201670023,1,1,0.7375242909984081,0.1999773749994347,None,854.1665506249992,854.1666465840026,None,854.1667786249964,854.166823874999,None,854.1811272920022,854.1811272920022,,,,,,,,,,,1,2,0,0,2024-08-13_10h18.22.975,rtmindeye,2024.1.5,None,2024-08-13 10h18.49.832387 -0400,
all_stimuli/special515/special_40840.jpg,49,0,1,0,0,2,1,"[9, 21, 31, 45, 56, 68, 69]",,,,,0,0,0,0,0,49,49,49,854.1811272920022,,,,,,,,,,,,,,,,,,,,,,,,,,,,,,,,,,,,,,854.1673112499993,854.1674337500008,854.167451041998,854.1811272920022,854.1811272920022,854.1811272920022,854.1811272920022,857.1691709169972,857.1691709169972,858.1658357089982,2,1,1.0109787069959566,0.13401012500253273,None,858.1666492090008,858.1667339170017,None,858.1668625419989,858.1669085839967,None,858.181020416996,858.181020416996,,,,,,,,,,,1,2,0,0,2024-08-13_10h18.22.975,rtmindeye,2024.1.5,None,2024-08-13 10h18.49.832387 -0400,
all_stimuli/special515/special_71450.jpg,50,0,0,0,0,2,1,"[9, 21, 31, 45, 56, 68, 69]",,,,,0,0,0,0,0,50,50,50,858.181020416996,,,,,,,,,,,,,,,,,,,,,,,,,,,,,,,,,,,,,,858.1673874589978,858.1675082090005,858.1675289170016,858.181020416996,858.181020416996,858.181020416996,858.181020416996,861.1699664999978,861.1699664999978,862.1658103340014,1,1,1.3081059159958386,0.2120041250018403,None,862.1665966669971,862.1666804999986,None,862.1668092499967,862.1668554169955,None,862.1829645420003,862.1829645420003,,,,,,,,,,,1,2,0,0,2024-08-13_10h18.22.975,rtmindeye,2024.1.5,None,2024-08-13 10h18.49.832387 -0400,
all_stimuli/closest_pairs1/set_3_closest_to_pair_2_image_cocoid_41120.png,51,0,0,0,0,2,1,"[9, 21, 31, 45, 56, 68, 69]",,,,,0,0,0,0,0,51,51,51,862.1829645420003,,,,,,,,,,,,,,,,,,,,,,,,,,,,,,,,,,,,,,862.167350208998,862.1674738340007,862.1674938750002,862.1829645420003,862.1829645420003,862.1829645420003,862.1829645420003,865.1695862920024,865.1695862920024,866.1658444589993,1,1,0.7472246239995002,0.16301479200046742,None,866.1666773749967,866.1667768749976,None,866.1669070419957,866.1669562919997,None,866.1827441669957,866.1827441669957,,,,,,,,,,,1,2,0,0,2024-08-13_10h18.22.975,rtmindeye,2024.1.5,None,2024-08-13 10h18.49.832387 -0400,
all_stimuli/special515/special_7039.jpg,52,0,0,0,0,2,1,"[9, 21, 31, 45, 56, 68, 69]",,,,,0,0,0,0,0,52,52,52,866.1827441669957,,,,,,,,,,,,,,,,,,,,,,,,,,,,,,,,,,,,,,866.1674596669982,866.1675855419962,866.1676059169986,866.1827441669957,866.1827441669957,866.1827441669957,866.1827441669957,869.169567459001,869.169567459001,870.1658958749977,1,1,0.9445747079953435,0.17690850000508362,None,870.1667220000018,870.1668064999976,None,870.1669729999994,870.1670217089995,None,870.1812051250017,870.1812051250017,,,,,,,,,,,1,2,0,0,2024-08-13_10h18.22.975,rtmindeye,2024.1.5,None,2024-08-13 10h18.49.832387 -0400,
all_stimuli/special515/special_50734.jpg,53,0,0,0,0,2,1,"[9, 21, 31, 45, 56, 68, 69]",,,,,0,0,0,0,0,53,53,53,870.1812051250017,,,,,,,,,,,,,,,,,,,,,,,,,,,,,,,,,,,,,,870.1675454169963,870.1676860419975,870.1677073339961,870.1812051250017,870.1812051250017,870.1812051250017,870.1812051250017,873.1695247919997,873.1695247919997,874.1660784589985,1,1,0.7990901240045787,0.16306033299770206,None,874.166906749997,874.1669963749955,None,874.1671619170011,874.1672237090024,None,874.1802937920002,874.1802937920002,,,,,,,,,,,1,2,0,0,2024-08-13_10h18.22.975,rtmindeye,2024.1.5,None,2024-08-13 10h18.49.832387 -0400,
all_stimuli/special515/special_66278.jpg,54,0,0,0,0,2,1,"[9, 21, 31, 45, 56, 68, 69]",,,,,0,0,0,0,0,54,54,54,874.1802937920002,,,,,,,,,,,,,,,,,,,,,,,,,,,,,,,,,,,,,,874.1678117499978,874.1679605839963,874.1679814169984,874.1802937920002,874.1802937920002,874.1802937920002,874.1802937920002,877.1703996249998,877.1703996249998,878.1661625839988,1,1,0.7500636659970041,0.16498312500334578,None,878.1669440839978,878.1670233749974,None,878.1671537500006,878.1672007090019,None,878.1807915419995,878.1807915419995,,,,,,,,,,,1,2,0,0,2024-08-13_10h18.22.975,rtmindeye,2024.1.5,None,2024-08-13 10h18.49.832387 -0400,
all_stimuli/special515/special_68842.jpg,55,0,0,0,0,2,1,"[9, 21, 31, 45, 56, 68, 69]",,,,,0,0,0,0,0,55,55,55,878.1807915419995,,,,,,,,,,,,,,,,,,,,,,,,,,,,,,,,,,,,,,878.1679181250001,878.1681418340013,878.1681676250009,878.1807915419995,878.1807915419995,878.1807915419995,878.1807915419995,881.1695422499979,881.1695422499979,882.1659351670023,1,1,0.9886355830021785,0.2799876659992151,None,882.166752541998,882.1668487089992,None,882.1669970000003,882.1670595839969,None,882.1770517499972,882.1770517499972,,,,,,,,,,,1,2,0,0,2024-08-13_10h18.22.975,rtmindeye,2024.1.5,None,2024-08-13 10h18.49.832387 -0400,
blank.jpg,56,1,0,0,0,2,1,"[9, 21, 31, 45, 56, 68, 69]",,,,,0,0,0,0,0,56,56,56,882.1770517499972,,,,,,,,,,,,,,,,,,,,,,,,,,,,,,,,,,,,,,882.1675870420004,882.1677277920026,882.1677487089983,882.1770517499972,882.1770517499972,882.1770517499972,882.1770517499972,885.1695546249975,885.1695546249975,886.1662398339977,None,0,,,None,886.1668231669973,886.1669042499998,None,886.1670422499956,886.1670940420008,None,886.183977708999,886.183977708999,,,,,,,,,,,1,2,0,0,2024-08-13_10h18.22.975,rtmindeye,2024.1.5,None,2024-08-13 10h18.49.832387 -0400,
all_stimuli/unchosen_nsd_1000_images/unchosen_1115_cocoid_46845.png,57,0,0,0,0,2,1,"[9, 21, 31, 45, 56, 68, 69]",,,,,0,0,0,0,0,57,57,57,886.183977708999,,,,,,,,,,,,,,,,,,,,,,,,,,,,,,,,,,,,,,886.1675700420019,886.1676897090001,886.1677092499958,886.183977708999,886.183977708999,886.183977708999,886.183977708999,889.1823202090018,889.1823202090018,890.1705306250005,1,1,0.7595417499978794,0.15698479099955875,None,890.1713592919987,890.1714534589992,None,890.1716053749988,890.1716572500009,None,,,,,,,,,,,,,1,2,0,0,2024-08-13_10h18.22.975,rtmindeye,2024.1.5,None,2024-08-13 10h18.49.832387 -0400,
all_stimuli/closest_pairs1/set_3_closest_to_pair_34_image_cocoid_72120.png,58,0,0,0,0,2,1,"[9, 21, 31, 45, 56, 68, 69]",,,,,0,0,0,0,0,58,58,58,890.1864791670014,,,,,,,,,,,,,,,,,,,,,,,,,,,,,,,,,,,,,,890.1722194999966,890.1724031249978,890.1724254590008,890.1864791670014,890.1864791670014,890.1864791670014,890.1864791670014,893.1825760419961,893.1825760419961,894.1700838339966,1,1,0.7960656659997767,0.15700741700129583,None,894.1708750839971,894.1709590839964,None,894.1711071669997,894.1711563749996,None,894.1859691249992,894.1859691249992,,,,,,,,,,,1,2,0,0,2024-08-13_10h18.22.975,rtmindeye,2024.1.5,None,2024-08-13 10h18.49.832387 -0400,
all_stimuli/shared1000_notspecial/notspecial_57443.png,59,0,0,0,0,2,1,"[9, 21, 31, 45, 56, 68, 69]",,,,,0,0,0,0,0,59,59,59,894.1859691249992,,,,,,,,,,,,,,,,,,,,,,,,,,,,,,,,,,,,,,894.1716953750001,894.1718379169979,894.17185875,894.1859691249992,894.1859691249992,894.1859691249992,894.1859691249992,897.182454834001,897.182454834001,898.1707763340019,1,1,0.9466701249984908,0.16603466599917738,None,898.1715857090021,898.1716788339982,None,898.1718123339961,898.1718628750023,None,898.1883736669988,898.1883736669988,,,,,,,,,,,1,2,0,0,2024-08-13_10h18.22.975,rtmindeye,2024.1.5,None,2024-08-13 10h18.49.832387 -0400,
all_stimuli/special515/special_45632.jpg,60,0,0,0,0,2,1,"[9, 21, 31, 45, 56, 68, 69]",,,,,0,0,0,0,0,60,60,60,898.1883736669988,,,,,,,,,,,,,,,,,,,,,,,,,,,,,,,,,,,,,,898.1723724170006,898.1724839169983,898.172500834,898.1883736669988,898.1883736669988,898.1883736669988,898.1883736669988,901.1863395420005,901.1863395420005,902.1825473339995,1,1,0.8313487490013358,0.1740142089984147,None,902.1835324170024,902.1836353749968,None,902.183762624998,902.1838222090009,None,,,,,,,,,,,,,1,2,0,0,2024-08-13_10h18.22.975,rtmindeye,2024.1.5,None,2024-08-13 10h18.49.832387 -0400,
all_stimuli/special515/special_26720.jpg,61,0,0,0,0,2,1,"[9, 21, 31, 45, 56, 68, 69]",,,,,0,0,0,0,0,61,61,61,902.1974605840005,,,,,,,,,,,,,,,,,,,,,,,,,,,,,,,,,,,,,,902.1843257500004,902.1844897920018,902.1845071249991,902.1974605840005,902.1974605840005,902.1974605840005,902.1974605840005,905.1871786249976,905.1871786249976,906.1830980419982,1,1,0.9443164159965818,0.17003912499785656,None,906.1841101669997,906.1842153749967,None,906.1843723339989,906.1844280840014,None,906.2012282919968,906.2012282919968,,,,,,,,,,,1,2,0,0,2024-08-13_10h18.22.975,rtmindeye,2024.1.5,None,2024-08-13 10h18.49.832387 -0400,
all_stimuli/closest_pairs1/set_1_closest_to_pair_46_image_cocoid_6540.png,62,0,0,0,0,2,1,"[9, 21, 31, 45, 56, 68, 69]",,,,,0,0,0,0,0,62,62,62,906.2012282919968,,,,,,,,,,,,,,,,,,,,,,,,,,,,,,,,,,,,,,906.1850008749971,906.1851492919959,906.1851726250025,906.2012282919968,906.2012282919968,906.2012282919968,906.2012282919968,909.1993833750021,909.1993833750021,910.186418792,1,1,0.8325721240034909,0.18501466699672164,None,910.1872336250017,910.1873195000007,None,910.1874704169968,910.1875228749996,None,,,,,,,,,,,,,1,2,0,0,2024-08-13_10h18.22.975,rtmindeye,2024.1.5,None,2024-08-13 10h18.49.832387 -0400,
all_stimuli/MST_pairs1/pair_46_w_pool1.jpg,63,0,1,0,0,2,1,"[9, 21, 31, 45, 56, 68, 69]",,,,,0,0,0,0,0,63,63,63,910.2160823750019,,,,,,,,,,,,,,,,,,,,,,,,,,,,,,,,,,,,,,910.1880557920013,910.1882040839992,910.1882276249962,910.2160823750019,910.2160823750019,910.2160823750019,910.2160823750019,913.2046110419979,913.2046110419979,914.1883128749978,2,1,0.9698071660022833,0.14100529199640732,None,914.1890840839988,914.189166917,None,914.1893180839979,914.1893662500006,None,,,,,,,,,,,,,1,2,0,0,2024-08-13_10h18.22.975,rtmindeye,2024.1.5,None,2024-08-13 10h18.49.832387 -0400,
all_stimuli/special515/special_22967.jpg,64,0,0,0,0,2,1,"[9, 21, 31, 45, 56, 68, 69]",,,,,0,0,0,0,0,64,64,64,914.2045997919995,,,,,,,,,,,,,,,,,,,,,,,,,,,,,,,,,,,,,,914.1899062919983,914.1900709170004,914.1900943340006,914.2045997919995,914.2045997919995,914.2045997919995,914.2045997919995,917.1996617089972,917.1996617089972,918.1873428749968,1,1,0.8463126659989939,0.172034082999744,None,918.1881707919965,918.188254708999,None,918.188407458998,918.1884569169997,None,918.2033097919993,918.2033097919993,,,,,,,,,,,1,2,0,0,2024-08-13_10h18.22.975,rtmindeye,2024.1.5,None,2024-08-13 10h18.49.832387 -0400,
all_stimuli/special515/special_40935.jpg,65,0,1,0,0,2,1,"[9, 21, 31, 45, 56, 68, 69]",,,,,0,0,0,0,0,65,65,65,918.2033097919993,,,,,,,,,,,,,,,,,,,,,,,,,,,,,,,,,,,,,,918.1889864170007,918.1891218340024,918.1891378750006,918.2033097919993,918.2033097919993,918.2033097919993,918.2033097919993,921.1997065420001,921.1997065420001,922.1870022919975,2,1,1.0296767489999183,0.15001800000027288,None,922.1878126669981,922.1878975,None,922.188055958999,922.1881056669954,None,922.2032232919955,922.2032232919955,,,,,,,,,,,1,2,0,0,2024-08-13_10h18.22.975,rtmindeye,2024.1.5,None,2024-08-13 10h18.49.832387 -0400,
all_stimuli/shared1000_notspecial/notspecial_72170.png,66,0,0,0,0,2,1,"[9, 21, 31, 45, 56, 68, 69]",,,,,0,0,0,0,0,66,66,66,922.2032232919955,,,,,,,,,,,,,,,,,,,,,,,,,,,,,,,,,,,,,,922.1886527919996,922.188794458998,922.1888154999979,922.2032232919955,922.2032232919955,922.2032232919955,922.2032232919955,925.1990353750007,925.1990353750007,926.1867407089958,1,1,0.7898284990005777,0.17798708399641328,None,926.1875385000021,926.1876235419986,None,926.1877859590022,926.1878359589973,None,926.2045602090002,926.2045602090002,,,,,,,,,,,1,2,0,0,2024-08-13_10h18.22.975,rtmindeye,2024.1.5,None,2024-08-13 10h18.49.832387 -0400,
all_stimuli/MST_pairs1/pair_10_14_89.png,67,0,0,0,0,2,1,"[9, 21, 31, 45, 56, 68, 69]",,,,,0,0,0,0,0,67,67,67,926.2045602090002,,,,,,,,,,,,,,,,,,,,,,,,,,,,,,,,,,,,,,926.1883703749991,926.1885110419971,926.1885317089982,926.2045602090002,926.2045602090002,926.2045602090002,926.2045602090002,929.199639708997,929.199639708997,930.2000982919999,1,1,1.1765162910014624,0.17505504200380528,None,930.2009611670001,930.201054541998,None,930.2011845840025,930.2012319589994,None,,,,,,,,,,,,,1,2,0,0,2024-08-13_10h18.22.975,rtmindeye,2024.1.5,None,2024-08-13 10h18.49.832387 -0400,
blank.jpg,68,1,0,0,0,2,1,"[9, 21, 31, 45, 56, 68, 69]",,,,,0,0,0,0,0,68,68,68,930.2105228750006,,,,,,,,,,,,,,,,,,,,,,,,,,,,,,,,,,,,,,930.2017245419993,930.2018974169987,930.2019142919962,930.2105228750006,930.2105228750006,930.2105228750006,930.2105228750006,933.2036642500025,933.2036642500025,934.2008734999981,None,0,,,None,934.2015444589997,934.2016441250016,None,934.2017966249987,934.2018515000018,None,934.2113468339958,934.2113468339958,,,,,,,,,,,1,2,0,0,2024-08-13_10h18.22.975,rtmindeye,2024.1.5,None,2024-08-13 10h18.49.832387 -0400,
blank.jpg,69,1,0,1,0,2,0,"[9, 21, 31, 45, 56, 68, 69]",,,,,0,0,0,0,0,69,69,69,934.2113468339958,,,,,,,,,,,,,,,,,,,,,,,,,,,,,,,,,,,,,,934.2024421669994,934.2025813750006,934.2026180839966,934.2113468339958,934.2113468339958,934.2113468339958,934.2113468339958,937.2037642089999,937.2037642089999,938.2002178339972,None,0,,,None,938.2007898750016,969.4065008749967,1,969.4071982499954,993.4352713749977,equal,938.222902208996,938.222902208996,938.222902208996,938.222902208996,31.181911291001597,None,969.4163759169969,969.4163759169969,24.009790415999305,None,,,1,2,0,0,2024-08-13_10h18.22.975,rtmindeye,2024.1.5,None,2024-08-13 10h18.49.832387 -0400,
,,,,,,,,,,,,,0,0,0,0,,,,,,,,,,,,,,,,,,,,,,,,,,,,,,,,,,,,,,,,,,,,,,,,,,,,,,,,,,,,,,,,,,,,,,,,,,,,1,2,0,0,2024-08-13_10h18.22.975,rtmindeye,2024.1.5,None,2024-08-13 10h18.49.832387 -0400,
all_stimuli/special515/special_25371.jpg,0,0,0,0,1,2,1,"[9, 21, 31, 45, 56, 68, 69]",,,,,1,0,1,0,0,0,0,0,993.4705538749986,,,,,,,,,,,,,,,,,,,,,,,,,,,,,,,,,,,,,,993.4563154999996,993.4566958750002,993.4567136249971,993.4705538749986,993.4705538749986,993.4705538749986,993.4705538749986,996.4672979589959,996.4672979589959,997.455436917,1,1,0.7684804579985212,0.15606287500122562,None,997.4565579170012,997.456636709001,None,997.4569068339988,997.4569502500017,None,997.4707477089978,997.4707477089978,,,,,,,,,,,1,2,0,0,2024-08-13_10h18.22.975,rtmindeye,2024.1.5,None,2024-08-13 10h18.49.832387 -0400,
all_stimuli/special515/special_48422.jpg,1,0,0,0,1,2,1,"[9, 21, 31, 45, 56, 68, 69]",,,,,1,0,1,0,0,1,1,1,997.4707477089978,,,,,,,,,,,,,,,,,,,,,,,,,,,,,,,,,,,,,,997.4575055000023,997.4576202089956,997.4576392919989,997.4707477089978,997.4707477089978,997.4707477089978,997.4707477089978,1000.467389833997,1000.467389833997,1001.4557220419956,1,1,0.6794035819984856,0.16097279200039338,None,1001.4565280419993,1001.4566180839975,None,1001.4567685000002,1001.4568172500003,None,1001.4713459170016,1001.4713459170016,,,,,,,,,,,1,2,0,0,2024-08-13_10h18.22.975,rtmindeye,2024.1.5,None,2024-08-13 10h18.49.832387 -0400,
all_stimuli/special515/special_43619.jpg,2,0,1,0,1,2,1,"[9, 21, 31, 45, 56, 68, 69]",,,,,1,0,1,0,0,2,2,2,1001.4713459170016,,,,,,,,,,,,,,,,,,,,,,,,,,,,,,,,,,,,,,1001.4573559170021,1001.4574959169986,1001.4575169169984,1001.4713459170016,1001.4713459170016,1001.4713459170016,1001.4713459170016,1004.4675992089979,1004.4675992089979,1005.4556380419963,2,1,1.0178111659988645,0.16002837500127498,None,1005.4568167499965,1005.4569032090003,None,1005.457057833999,1005.4571071669998,None,1005.4727135419962,1005.4727135419962,,,,,,,,,,,1,2,0,0,2024-08-13_10h18.22.975,rtmindeye,2024.1.5,None,2024-08-13 10h18.49.832387 -0400,
all_stimuli/closest_pairs1/set_1_closest_to_pair_42_image_cocoid_58234.png,3,0,0,0,1,2,1,"[9, 21, 31, 45, 56, 68, 69]",,,,,1,0,1,0,0,3,3,3,1005.4727135419962,,,,,,,,,,,,,,,,,,,,,,,,,,,,,,,,,,,,,,1005.4576292089987,1005.4577707919962,1005.4577873750022,1005.4727135419962,1005.4727135419962,1005.4727135419962,1005.4727135419962,1008.4674177089983,1008.4674177089983,1009.4556585839964,1,1,0.6735958739955095,0.14796524999837857,None,1009.456500291999,1009.4565880840019,None,1009.4567384589973,1009.456786499999,None,1009.4718209589992,1009.4718209589992,,,,,,,,,,,1,2,0,0,2024-08-13_10h18.22.975,rtmindeye,2024.1.5,None,2024-08-13 10h18.49.832387 -0400,
all_stimuli/special515/special_60186.jpg,4,0,0,0,1,2,1,"[9, 21, 31, 45, 56, 68, 69]",,,,,1,0,1,0,0,4,4,4,1009.4718209589992,,,,,,,,,,,,,,,,,,,,,,,,,,,,,,,,,,,,,,1009.4573289999971,1009.4574666670014,1009.4574834590021,1009.4718209589992,1009.4718209589992,1009.4718209589992,1009.4718209589992,1012.4676121250013,1012.4676121250013,1013.456206709001,1,1,0.6755113740000525,0.17092137500003446,None,1013.4570344589956,1013.4571288750012,None,1013.4572763339966,1013.4573244170024,None,1013.4714745419988,1013.4714745419988,,,,,,,,,,,1,2,0,0,2024-08-13_10h18.22.975,rtmindeye,2024.1.5,None,2024-08-13 10h18.49.832387 -0400,
all_stimuli/special515/special_26720.jpg,5,0,1,0,1,2,1,"[9, 21, 31, 45, 56, 68, 69]",,,,,1,0,1,0,0,5,5,5,1013.4714745419988,,,,,,,,,,,,,,,,,,,,,,,,,,,,,,,,,,,,,,1013.4578500839998,1013.4579927090017,1013.458016042001,1013.4714745419988,1013.4714745419988,1013.4714745419988,1013.4714745419988,1016.4675924589974,1016.4675924589974,1017.4557054999968,2,1,0.7849110409952118,0.16601037500367966,None,1017.4565452499955,1017.4566323339968,None,1017.4567814170005,1017.4568305419962,None,1017.471712958999,1017.471712958999,,,,,,,,,,,1,2,0,0,2024-08-13_10h18.22.975,rtmindeye,2024.1.5,None,2024-08-13 10h18.49.832387 -0400,
all_stimuli/closest_pairs1/set_1_closest_to_pair_36_image_cocoid_28208.png,6,0,0,0,1,2,1,"[9, 21, 31, 45, 56, 68, 69]",,,,,1,0,1,0,0,6,6,6,1017.471712958999,,,,,,,,,,,,,,,,,,,,,,,,,,,,,,,,,,,,,,1017.4573849169974,1017.4575249170011,1017.4575451670025,1017.471712958999,1017.471712958999,1017.471712958999,1017.471712958999,1020.4676027499954,1020.4676027499954,1021.456019792,1,1,0.8176709990002564,0.1600215419966844,None,1021.4568420419964,1021.4569352920007,None,1021.4570864999987,1021.4571353749998,None,1021.4723071670014,1021.4723071670014,,,,,,,,,,,1,2,0,0,2024-08-13_10h18.22.975,rtmindeye,2024.1.5,None,2024-08-13 10h18.49.832387 -0400,
all_stimuli/shared1000_notspecial/notspecial_16635.png,7,0,0,0,1,2,1,"[9, 21, 31, 45, 56, 68, 69]",,,,,1,0,1,0,0,7,7,7,1021.4723071670014,,,,,,,,,,,,,,,,,,,,,,,,,,,,,,,,,,,,,,1021.4576705419968,1021.4578100840008,1021.4578312919984,1021.4723071670014,1021.4723071670014,1021.4723071670014,1021.4723071670014,1024.467723499998,1024.467723499998,1025.4560669999992,1,1,1.5541566660031094,0.17300450000038836,None,1025.4568773749997,1025.4569662499998,None,1025.4571164169975,1025.4571638749985,None,1025.4872752500014,1025.4872752500014,,,,,,,,,,,1,2,0,0,2024-08-13_10h18.22.975,rtmindeye,2024.1.5,None,2024-08-13 10h18.49.832387 -0400,
all_stimuli/MST_pairs1/pair_24_nsd_158_2_cocoid_3673.png,8,0,0,0,1,2,1,"[9, 21, 31, 45, 56, 68, 69]",,,,,1,0,1,0,0,8,8,8,1025.4872752500014,,,,,,,,,,,,,,,,,,,,,,,,,,,,,,,,,,,,,,1025.4577041669982,1025.457843874996,1025.4578648339957,1025.4872752500014,1025.4872752500014,1025.4872752500014,1025.4872752500014,1028.484354041997,1028.484354041997,1029.467723624999,1,1,1.529291999002453,0.18996333399991272,None,1029.4684077499987,1029.4684754170012,None,1029.4685932089997,1029.4686323339993,None,,,,,,,,,,,,,1,2,0,0,2024-08-13_10h18.22.975,rtmindeye,2024.1.5,None,2024-08-13 10h18.49.832387 -0400,
blank.jpg,9,1,0,0,1,2,1,"[9, 21, 31, 45, 56, 68, 69]",,,,,1,0,1,0,0,9,9,9,1029.4790324999994,,,,,,,,,,,,,,,,,,,,,,,,,,,,,,,,,,,,,,1029.469070291998,1029.469186000002,1029.4692052499959,1029.4790324999994,1029.4790324999994,1029.4790324999994,1029.4790324999994,1032.4725289589987,1032.4725289589987,1033.4684786669968,None,0,,,None,1033.4691257090017,1033.4692349999968,None,1033.4693899999984,1033.4694442920008,None,1033.4860075420002,1033.4860075420002,,,,,,,,,,,1,2,0,0,2024-08-13_10h18.22.975,rtmindeye,2024.1.5,None,2024-08-13 10h18.49.832387 -0400,
all_stimuli/special515/special_66489.jpg,10,0,0,0,1,2,1,"[9, 21, 31, 45, 56, 68, 69]",,,,,1,0,1,0,0,10,10,10,1033.4860075420002,,,,,,,,,,,,,,,,,,,,,,,,,,,,,,,,,,,,,,1033.470040250002,1033.470186583996,1033.4702072500004,1033.4860075420002,1033.4860075420002,1033.4860075420002,1033.4860075420002,1036.4846014590003,1036.4846014590003,1037.4726030419988,1,1,0.828638958002557,0.17495179200341227,None,1037.4734189169976,1037.4735072920012,None,1037.4736730419972,1037.4737215419955,None,,,,,,,,,,,,,1,2,0,0,2024-08-13_10h18.22.975,rtmindeye,2024.1.5,None,2024-08-13 10h18.49.832387 -0400,
all_stimuli/special515/special_23036.jpg,11,0,0,0,1,2,1,"[9, 21, 31, 45, 56, 68, 69]",,,,,1,0,1,0,0,11,11,11,1037.487986125001,,,,,,,,,,,,,,,,,,,,,,,,,,,,,,,,,,,,,,1037.4742914169983,1037.47444025,1037.4744567919988,1037.487986125001,1037.487986125001,1037.487986125001,1037.487986125001,1040.4845852090002,1040.4845852090002,1041.4727263339955,1,1,1.1117110409977613,0.16605179099860834,None,1041.4735539999965,1041.4736412919956,None,1041.473790584001,1041.4738401669965,None,1041.4880544589978,1041.4880544589978,,,,,,,,,,,1,2,0,0,2024-08-13_10h18.22.975,rtmindeye,2024.1.5,None,2024-08-13 10h18.49.832387 -0400,
all_stimuli/MST_pairs1/pair_44_w_log_cabin1.jpg,12,0,0,0,1,2,1,"[9, 21, 31, 45, 56, 68, 69]",,,,,1,0,1,0,0,12,12,12,1041.4880544589978,,,,,,,,,,,,,,,,,,,,,,,,,,,,,,,,,,,,,,1041.4743738749967,1041.474484917002,1041.4745015000008,1041.4880544589978,1041.4880544589978,1041.4880544589978,1041.4880544589978,1044.4847197920026,1044.4847197920026,1045.4718042919994,1,1,1.0207057489969884,0.14595591700344812,None,1045.4724375419974,1045.4725053750008,None,1045.472632416997,1045.4726714999997,None,1045.4876995419982,1045.4876995419982,,,,,,,,,,,1,2,0,0,2024-08-13_10h18.22.975,rtmindeye,2024.1.5,None,2024-08-13 10h18.49.832387 -0400,
all_stimuli/special515/special_14793.jpg,13,0,0,0,1,2,1,"[9, 21, 31, 45, 56, 68, 69]",,,,,1,0,1,0,0,13,13,13,1045.4876995419982,,,,,,,,,,,,,,,,,,,,,,,,,,,,,,,,,,,,,,1045.4730880839998,1045.4731973750022,1045.473213792,1045.4876995419982,1045.4876995419982,1045.4876995419982,1045.4876995419982,1048.4846363339966,1048.4846363339966,1049.4731837090003,1,1,1.0631123330022092,0.176016500001424,None,1049.4740113750013,1049.4740981669966,None,1049.474245999998,1049.474295,None,1049.4884970420026,1049.4884970420026,,,,,,,,,,,1,2,0,0,2024-08-13_10h18.22.975,rtmindeye,2024.1.5,None,2024-08-13 10h18.49.832387 -0400,
all_stimuli/special515/special_52554.jpg,14,0,0,0,1,2,1,"[9, 21, 31, 45, 56, 68, 69]",,,,,1,0,1,0,0,14,14,14,1049.4884970420026,,,,,,,,,,,,,,,,,,,,,,,,,,,,,,,,,,,,,,1049.474843625001,1049.4749847499988,1049.4750054589967,1049.4884970420026,1049.4884970420026,1049.4884970420026,1049.4884970420026,1052.4846894169968,1052.4846894169968,1053.4732441250017,1,1,2.0793775409983937,0.18105204200401204,None,1053.4740600000005,1053.4741472089954,None,1053.4742970000007,1053.4743455419957,None,1053.4885659169959,1053.4885659169959,,,,,,,,,,,1,2,0,0,2024-08-13_10h18.22.975,rtmindeye,2024.1.5,None,2024-08-13 10h18.49.832387 -0400,
all_stimuli/special515/special_53370.jpg,15,0,0,0,1,2,1,"[9, 21, 31, 45, 56, 68, 69]",,,,,1,0,1,0,0,15,15,15,1053.4885659169959,,,,,,,,,,,,,,,,,,,,,,,,,,,,,,,,,,,,,,1053.4748926249958,1053.4750327090005,1053.4750533749975,1053.4885659169959,1053.4885659169959,1053.4885659169959,1053.4885659169959,1056.4846184589987,1056.4846184589987,1057.4731672089983,1,1,1.0563742079975782,0.16098745800263714,None,1057.4740015839998,1057.4740914590002,None,1057.4742573749973,1057.4743060420005,None,1057.490423958996,1057.490423958996,,,,,,,,,,,1,2,0,0,2024-08-13_10h18.22.975,rtmindeye,2024.1.5,None,2024-08-13 10h18.49.832387 -0400,
all_stimuli/shared1000_notspecial/notspecial_59079.png,16,0,0,0,1,2,1,"[9, 21, 31, 45, 56, 68, 69]",,,,,1,0,1,0,0,16,16,16,1057.490423958996,,,,,,,,,,,,,,,,,,,,,,,,,,,,,,,,,,,,,,1057.4748368340006,1057.4749790419955,1057.4750001669963,1057.490423958996,1057.490423958996,1057.490423958996,1057.490423958996,1060.4849231249973,1060.4849231249973,1061.4731178750008,1,1,0.9615262080042157,0.16308220799692208,None,1061.4739363749977,1061.4740231670003,None,1061.4741950419993,1061.4742433339998,None,1061.4886221670022,1061.4886221670022,,,,,,,,,,,1,2,0,0,2024-08-13_10h18.22.975,rtmindeye,2024.1.5,None,2024-08-13 10h18.49.832387 -0400,
all_stimuli/special515/special_57650.jpg,17,0,0,0,1,2,1,"[9, 21, 31, 45, 56, 68, 69]",,,,,1,0,1,0,0,17,17,17,1061.4886221670022,,,,,,,,,,,,,,,,,,,,,,,,,,,,,,,,,,,,,,1061.4748015419973,1061.4749472920012,1061.4749689169985,1061.4886221670022,1061.4886221670022,1061.4886221670022,1061.4886221670022,1064.4849022920025,1064.4849022920025,1065.4715548339955,1,1,0.7853775000039604,0.15901262500119628,None,1065.4721895420007,1065.4722568340003,None,1065.472383542001,1065.4724213750014,None,1065.488014417002,1065.488014417002,,,,,,,,,,,1,2,0,0,2024-08-13_10h18.22.975,rtmindeye,2024.1.5,None,2024-08-13 10h18.49.832387 -0400,
all_stimuli/special515/special_46150.jpg,18,0,0,0,1,2,1,"[9, 21, 31, 45, 56, 68, 69]",,,,,1,0,1,0,0,18,18,18,1065.488014417002,,,,,,,,,,,,,,,,,,,,,,,,,,,,,,,,,,,,,,1065.4728556249975,1065.4729671250025,1065.472983874999,1065.488014417002,1065.488014417002,1065.488014417002,1065.488014417002,1068.4848903750026,1068.4848903750026,1069.4731624170017,1,1,1.7221105409989832,0.17596000000048662,None,1069.4739436669988,1069.4740311669957,None,1069.474180541998,1069.4742299589998,None,1069.4921956249964,1069.4921956249964,,,,,,,,,,,1,2,0,0,2024-08-13_10h18.22.975,rtmindeye,2024.1.5,None,2024-08-13 10h18.49.832387 -0400,
all_stimuli/MST_pairs1/pair_14_18_78.png,19,0,0,0,1,2,1,"[9, 21, 31, 45, 56, 68, 69]",,,,,1,0,1,0,0,19,19,19,1069.4921956249964,,,,,,,,,,,,,,,,,,,,,,,,,,,,,,,,,,,,,,1069.4747639589987,1069.474904208997,1069.4749274170026,1069.4921956249964,1069.4921956249964,1069.4921956249964,1069.4921956249964,1072.489049208998,1072.489049208998,1073.4854377500014,1,1,0.8239924580047955,0.16796962499938672,None,1073.486405167001,1073.4865145419972,None,1073.4866780000011,1073.4867351249995,None,,,,,,,,,,,,,1,2,0,0,2024-08-13_10h18.22.975,rtmindeye,2024.1.5,None,2024-08-13 10h18.49.832387 -0400,
all_stimuli/shared1000_notspecial/notspecial_5714.png,20,0,0,0,1,2,1,"[9, 21, 31, 45, 56, 68, 69]",,,,,1,0,1,0,0,20,20,20,1073.5029543749988,,,,,,,,,,,,,,,,,,,,,,,,,,,,,,,,,,,,,,1073.4874277499985,1073.4876185419998,1073.4876647089986,1073.5029543749988,1073.5029543749988,1073.5029543749988,1073.5029543749988,1076.501821209,1076.501821209,1077.489108709,1,1,0.8012705410001217,0.16800749999674736,None,1077.4899470839955,1077.490035499999,None,1077.4901919589975,1077.4902410419963,None,,,,,,,,,,,,,1,2,0,0,2024-08-13_10h18.22.975,rtmindeye,2024.1.5,None,2024-08-13 10h18.49.832387 -0400,
blank.jpg,21,1,0,0,1,2,1,"[9, 21, 31, 45, 56, 68, 69]",,,,,1,0,1,0,0,21,21,21,1077.5011572090007,,,,,,,,,,,,,,,,,,,,,,,,,,,,,,,,,,,,,,1077.490806709,1077.4909527919954,1077.4909738339993,1077.5011572090007,1077.5011572090007,1077.5011572090007,1077.5011572090007,1080.4888409170017,1080.4888409170017,1081.4854435419984,None,0,,,None,1081.4860232919964,1081.4861065000005,None,1081.4862609999982,1081.4863134999978,None,1081.501995999999,1081.501995999999,,,,,,,,,,,1,2,0,0,2024-08-13_10h18.22.975,rtmindeye,2024.1.5,None,2024-08-13 10h18.49.832387 -0400,
all_stimuli/special515/special_11952.jpg,22,0,0,0,1,2,1,"[9, 21, 31, 45, 56, 68, 69]",,,,,1,0,1,0,0,22,22,22,1081.501995999999,,,,,,,,,,,,,,,,,,,,,,,,,,,,,,,,,,,,,,1081.486861833997,1081.487000084002,1081.4870230000015,1081.501995999999,1081.501995999999,1081.501995999999,1081.501995999999,1084.4890836249979,1084.4890836249979,1085.4854168340025,1,1,0.9453295409985003,0.16198270799941383,None,1085.4862260419977,1085.486311624998,None,1085.4864711670016,1085.4865197920008,None,1085.5022768339986,1085.5022768339986,,,,,,,,,,,1,2,0,0,2024-08-13_10h18.22.975,rtmindeye,2024.1.5,None,2024-08-13 10h18.49.832387 -0400,
all_stimuli/shared1000_notspecial/notspecial_46002.png,23,0,0,0,1,2,1,"[9, 21, 31, 45, 56, 68, 69]",,,,,1,0,1,0,0,23,23,23,1085.5022768339986,,,,,,,,,,,,,,,,,,,,,,,,,,,,,,,,,,,,,,1085.4870640000008,1085.4872063340008,1085.4872273340006,1085.5022768339986,1085.5022768339986,1085.5022768339986,1085.5022768339986,1088.4898185420025,1088.4898185420025,1089.4856655420008,1,1,0.9530587500048568,0.1940987080015475,None,1089.486459959,1089.4865543339984,None,1089.4867051670008,1089.4867519170002,None,1089.5007675840025,1089.5007675840025,,,,,,,,,,,1,2,0,0,2024-08-13_10h18.22.975,rtmindeye,2024.1.5,None,2024-08-13 10h18.49.832387 -0400,
all_stimuli/special515/special_3434.jpg,24,0,0,0,1,2,1,"[9, 21, 31, 45, 56, 68, 69]",,,,,1,0,1,0,0,24,24,24,1089.5007675840025,,,,,,,,,,,,,,,,,,,,,,,,,,,,,,,,,,,,,,1089.4872749169954,1089.4874130839962,1089.4874337500005,1089.5007675840025,1089.5007675840025,1089.5007675840025,1089.5007675840025,1092.4884766670002,1092.4884766670002,1093.4857384169954,1,1,2.0706531239993637,0.17102108400285942,None,1093.4865618749973,1093.486660417002,None,1093.4867920420002,1093.486838124998,None,1093.5012770839967,1093.5012770839967,,,,,,,,,,,1,2,0,0,2024-08-13_10h18.22.975,rtmindeye,2024.1.5,None,2024-08-13 10h18.49.832387 -0400,
all_stimuli/special515/special_28068.jpg,25,0,0,0,1,2,1,"[9, 21, 31, 45, 56, 68, 69]",,,,,1,0,1,0,0,25,25,25,1093.5012770839967,,,,,,,,,,,,,,,,,,,,,,,,,,,,,,,,,,,,,,1093.4873242920003,1093.4874502090024,1093.4874674169987,1093.5012770839967,1093.5012770839967,1093.5012770839967,1093.5012770839967,1096.4892912919968,1096.4892912919968,1097.4857624590004,1,1,1.0011580409991439,0.15499658299813746,None,1097.4867177920023,1097.4868215419992,None,1097.4869808750009,1097.4870352500002,None,1097.503560666999,1097.503560666999,,,,,,,,,,,1,2,0,0,2024-08-13_10h18.22.975,rtmindeye,2024.1.5,None,2024-08-13 10h18.49.832387 -0400,
all_stimuli/special515/special_42851.jpg,26,0,0,0,1,2,1,"[9, 21, 31, 45, 56, 68, 69]",,,,,1,0,1,0,0,26,26,26,1097.503560666999,,,,,,,,,,,,,,,,,,,,,,,,,,,,,,,,,,,,,,1097.4876209590002,1097.4877748340004,1097.4877954589974,1097.503560666999,1097.503560666999,1097.503560666999,1097.503560666999,1100.5021024590023,1100.5021024590023,1101.4894329590024,1,1,0.7559568319993559,0.19398833400191506,None,1101.4900764999984,1101.4901468339958,None,1101.490290458998,1101.4903298749996,None,,,,,,,,,,,,,1,2,0,0,2024-08-13_10h18.22.975,rtmindeye,2024.1.5,None,2024-08-13 10h18.49.832387 -0400,
all_stimuli/special515/special_39841.jpg,27,0,0,0,1,2,1,"[9, 21, 31, 45, 56, 68, 69]",,,,,1,0,1,0,0,27,27,27,1101.5053884590016,,,,,,,,,,,,,,,,,,,,,,,,,,,,,,,,,,,,,,1101.4907630000016,1101.4908801670026,1101.4908965840004,1101.5053884590016,1101.5053884590016,1101.5053884590016,1101.5053884590016,1104.502240959002,1104.502240959002,1105.4895564170001,1,1,0.9602567070032819,0.16705229199578753,None,1105.4903681669966,1105.4904548749982,None,1105.4906062500013,1105.4906544999976,None,1105.5056186669972,1105.5056186669972,,,,,,,,,,,1,2,0,0,2024-08-13_10h18.22.975,rtmindeye,2024.1.5,None,2024-08-13 10h18.49.832387 -0400,
all_stimuli/special515/special_65799.jpg,28,0,0,0,1,2,1,"[9, 21, 31, 45, 56, 68, 69]",,,,,1,0,1,0,0,28,28,28,1105.5056186669972,,,,,,,,,,,,,,,,,,,,,,,,,,,,,,,,,,,,,,1105.4912059999988,1105.4913454170019,1105.4913665419954,1105.5056186669972,1105.5056186669972,1105.5056186669972,1105.5056186669972,1108.502164833997,1108.502164833997,1109.4902820419957,1,1,0.8730614989981405,0.16601249999803258,None,1109.4911219589994,1109.4912129590011,None,1109.4913646669957,1109.49141925,None,1109.507180499997,1109.507180499997,,,,,,,,,,,1,2,0,0,2024-08-13_10h18.22.975,rtmindeye,2024.1.5,None,2024-08-13 10h18.49.832387 -0400,
all_stimuli/unchosen_nsd_1000_images/unchosen_4238_cocoid_35872.png,29,0,0,0,1,2,1,"[9, 21, 31, 45, 56, 68, 69]",,,,,1,0,1,0,0,29,29,29,1109.507180499997,,,,,,,,,,,,,,,,,,,,,,,,,,,,,,,,,,,,,,1109.4919703339983,1109.4920842089996,1109.4921032089987,1109.507180499997,1109.507180499997,1109.507180499997,1109.507180499997,1112.5022484590008,1112.5022484590008,1113.4905313749987,1,1,1.0275416239965125,0.19097162500111153,None,1113.4914077089998,1113.4914937089998,None,1113.4916556249955,1113.4917045839975,None,1113.5057154999959,1113.5057154999959,,,,,,,,,,,1,2,0,0,2024-08-13_10h18.22.975,rtmindeye,2024.1.5,None,2024-08-13 10h18.49.832387 -0400,
all_stimuli/special515/special_55163.jpg,30,0,0,0,1,2,1,"[9, 21, 31, 45, 56, 68, 69]",,,,,1,0,1,0,0,30,30,30,1113.5057154999959,,,,,,,,,,,,,,,,,,,,,,,,,,,,,,,,,,,,,,1113.4922601669969,1113.4923750419985,1113.4923940840017,1113.5057154999959,1113.5057154999959,1113.5057154999959,1113.5057154999959,1116.5023508750019,1116.5023508750019,1117.4896207499987,1,1,0.8140369579996332,0.1750540000066394,None,1117.4902539999966,1117.4903224169975,None,1117.4904642089969,1117.4905022919993,None,1117.5017506669974,1117.5017506669974,,,,,,,,,,,1,2,0,0,2024-08-13_10h18.22.975,rtmindeye,2024.1.5,None,2024-08-13 10h18.49.832387 -0400,
blank.jpg,31,1,0,0,1,2,1,"[9, 21, 31, 45, 56, 68, 69]",,,,,1,0,1,0,0,31,31,31,1117.5017506669974,,,,,,,,,,,,,,,,,,,,,,,,,,,,,,,,,,,,,,1117.4909350419985,1117.4910462089974,1117.4910626249984,1117.5017506669974,1117.5017506669974,1117.5017506669974,1117.5017506669974,1120.4895450420008,1120.4895450420008,1121.4862017499981,None,0,,,None,1121.4868717919962,1121.4869650420005,None,1121.4871239589993,1121.487176499999,None,1121.504356708996,1121.504356708996,,,,,,,,,,,1,2,0,0,2024-08-13_10h18.22.975,rtmindeye,2024.1.5,None,2024-08-13 10h18.49.832387 -0400,
all_stimuli/special515/special_55526.jpg,32,0,0,0,1,2,1,"[9, 21, 31, 45, 56, 68, 69]",,,,,1,0,1,0,0,32,32,32,1121.504356708996,,,,,,,,,,,,,,,,,,,,,,,,,,,,,,,,,,,,,,1121.4877582499976,1121.4879039590014,1121.4879244589974,1121.504356708996,1121.504356708996,1121.504356708996,1121.504356708996,1124.5023912499964,1124.5023912499964,1125.4904231670007,1,1,0.7764735409946297,0.16705212500528432,None,1125.4910807499982,1125.4911494999978,None,1125.4912667919998,1125.4913056250007,None,,,,,,,,,,,,,1,2,0,0,2024-08-13_10h18.22.975,rtmindeye,2024.1.5,None,2024-08-13 10h18.49.832387 -0400,
all_stimuli/special515/special_44705.jpg,33,0,0,0,1,2,1,"[9, 21, 31, 45, 56, 68, 69]",,,,,1,0,1,0,0,33,33,33,1125.5059671670024,,,,,,,,,,,,,,,,,,,,,,,,,,,,,,,,,,,,,,1125.491733584,1125.491864249998,1125.4918802920001,1125.5059671670024,1125.5059671670024,1125.5059671670024,1125.5059671670024,1128.5023938340019,1128.5023938340019,1129.4904583339958,1,1,0.8179567070037592,0.16798745899723144,None,1129.4912892919965,1129.4913840419977,None,1129.4915315420003,1129.4915807500001,None,1129.5059905840026,1129.5059905840026,,,,,,,,,,,1,2,0,0,2024-08-13_10h18.22.975,rtmindeye,2024.1.5,None,2024-08-13 10h18.49.832387 -0400,
all_stimuli/special515/special_3856.jpg,34,0,0,0,1,2,1,"[9, 21, 31, 45, 56, 68, 69]",,,,,1,0,1,0,0,34,34,34,1129.5059905840026,,,,,,,,,,,,,,,,,,,,,,,,,,,,,,,,,,,,,,1129.4921457500022,1129.4922870419978,1129.4923083339963,1129.5059905840026,1129.5059905840026,1129.5059905840026,1129.5059905840026,1132.5025781669974,1132.5025781669974,1133.4906420420011,1,1,0.9220122909973725,0.15306266699917614,None,1133.491326958996,1133.491400084,None,1133.4915177090006,1133.4915564999974,None,1133.506102291998,1133.506102291998,,,,,,,,,,,1,2,0,0,2024-08-13_10h18.22.975,rtmindeye,2024.1.5,None,2024-08-13 10h18.49.832387 -0400,
all_stimuli/special515/special_3077.jpg,35,0,0,0,1,2,1,"[9, 21, 31, 45, 56, 68, 69]",,,,,1,0,1,0,0,35,35,35,1133.506102291998,,,,,,,,,,,,,,,,,,,,,,,,,,,,,,,,,,,,,,1133.4920060840013,1133.492116292,1133.4921328339988,1133.506102291998,1133.506102291998,1133.506102291998,1133.506102291998,1136.5023601669964,1136.5023601669964,1137.4899612090012,1,1,0.9739555829946767,0.19096604200603906,None,1137.4906053340019,1137.4906730000002,None,1137.4907972090004,1137.4908355419975,None,1137.5188054169994,1137.5188054169994,,,,,,,,,,,1,2,0,0,2024-08-13_10h18.22.975,rtmindeye,2024.1.5,None,2024-08-13 10h18.49.832387 -0400,
all_stimuli/MST_pairs1/pair_28_nsd_547_2_cocoid_64169.png,36,0,0,0,1,2,1,"[9, 21, 31, 45, 56, 68, 69]",,,,,1,0,1,0,0,36,36,36,1137.5188054169994,,,,,,,,,,,,,,,,,,,,,,,,,,,,,,,,,,,,,,1137.4912627090016,1137.4913742919962,1137.4913907090013,1137.5188054169994,1137.5188054169994,1137.5188054169994,1137.5188054169994,1140.5071919999973,1140.5071919999973,1141.5030946670013,1,1,0.7232699160012999,0.16000791599799413,None,1141.5039567919957,1141.5040537499954,None,1141.5041844169973,1141.5042337920022,None,,,,,,,,,,,,,1,2,0,0,2024-08-13_10h18.22.975,rtmindeye,2024.1.5,None,2024-08-13 10h18.49.832387 -0400,
all_stimuli/special515/special_26458.jpg,37,0,0,0,1,2,1,"[9, 21, 31, 45, 56, 68, 69]",,,,,1,0,1,0,0,37,37,37,1141.5207538749964,,,,,,,,,,,,,,,,,,,,,,,,,,,,,,,,,,,,,,1141.5047416250018,1141.5049119999967,1141.5049291249961,1141.5207538749964,1141.5207538749964,1141.5207538749964,1141.5207538749964,1144.519385833999,1144.519385833999,1145.5067383339992,1,1,0.8513890410031308,0.17808891599997878,None,1145.5075697089997,1145.5076561669994,None,1145.5078135000003,1145.5078632919976,None,,,,,,,,,,,,,1,2,0,0,2024-08-13_10h18.22.975,rtmindeye,2024.1.5,None,2024-08-13 10h18.49.832387 -0400,
all_stimuli/special515/special_38817.jpg,38,0,0,0,1,2,1,"[9, 21, 31, 45, 56, 68, 69]",,,,,1,0,1,0,0,38,38,38,1145.5225687919956,,,,,,,,,,,,,,,,,,,,,,,,,,,,,,,,,,,,,,1145.5083986249956,1145.5085459170004,1145.5085667500025,1145.5225687919956,1145.5225687919956,1145.5225687919956,1145.5225687919956,1148.5193882500025,1148.5193882500025,1149.5075209169954,1,1,1.5036525819959934,0.17106587500165915,None,1149.5083220419983,1149.5084151670017,None,1149.5085648339955,1149.508613459002,None,1149.5246944169994,1149.5246944169994,,,,,,,,,,,1,2,0,0,2024-08-13_10h18.22.975,rtmindeye,2024.1.5,None,2024-08-13 10h18.49.832387 -0400,
all_stimuli/MST_pairs1/pair_10_14_89.png,39,0,1,0,1,2,1,"[9, 21, 31, 45, 56, 68, 69]",,,,,1,0,1,0,0,39,39,39,1149.5246944169994,,,,,,,,,,,,,,,,,,,,,,,,,,,,,,,,,,,,,,1149.5091424589991,1149.509252750002,1149.509271584,1149.5246944169994,1149.5246944169994,1149.5246944169994,1149.5246944169994,1152.5193999999974,1152.5193999999974,1153.5076149590022,2,1,1.6525838329980616,0.1639792080022744,None,1153.5084287089994,1153.5085176249995,None,1153.5086659169974,1153.5087148340026,None,1153.5251933339969,1153.5251933339969,,,,,,,,,,,1,2,0,0,2024-08-13_10h18.22.975,rtmindeye,2024.1.5,None,2024-08-13 10h18.49.832387 -0400,
all_stimuli/MST_pairs1/pair_14_18_22.png,40,0,0,0,1,2,1,"[9, 21, 31, 45, 56, 68, 69]",,,,,1,0,1,0,0,40,40,40,1153.5251933339969,,,,,,,,,,,,,,,,,,,,,,,,,,,,,,,,,,,,,,1153.509238833998,1153.509378208997,1153.5094017500014,1153.5251933339969,1153.5251933339969,1153.5251933339969,1153.5251933339969,1156.5241786249971,1156.5241786249971,1157.519915334,1,1,1.0451184159974218,0.1690085000009276,None,1157.5207557920003,1157.5208577090016,None,1157.5209805839986,1157.5210293339987,None,,,,,,,,,,,,,1,2,0,0,2024-08-13_10h18.22.975,rtmindeye,2024.1.5,None,2024-08-13 10h18.49.832387 -0400,
all_stimuli/shared1000_notspecial/notspecial_69785.png,41,0,0,0,1,2,1,"[9, 21, 31, 45, 56, 68, 69]",,,,,1,0,1,0,0,41,41,41,1157.5374247919972,,,,,,,,,,,,,,,,,,,,,,,,,,,,,,,,,,,,,,1157.521717124997,1157.5218946669993,1157.5219193750017,1157.5374247919972,1157.5374247919972,1157.5374247919972,1157.5374247919972,1160.5361397090019,1160.5361397090019,1161.5235082919971,1,1,1.0189382499956992,0.4280170830024872,None,1161.5241541669966,1161.5242229169962,None,1161.5243481669968,1161.5243873750005,None,,,,,,,,,,,,,1,2,0,0,2024-08-13_10h18.22.975,rtmindeye,2024.1.5,None,2024-08-13 10h18.49.832387 -0400,
all_stimuli/special515/special_67742.jpg,42,0,0,0,1,2,1,"[9, 21, 31, 45, 56, 68, 69]",,,,,1,0,1,0,0,42,42,42,1161.5393132089957,,,,,,,,,,,,,,,,,,,,,,,,,,,,,,,,,,,,,,1161.5248183340009,1161.5249327089987,1161.524951624997,1161.5393132089957,1161.5393132089957,1161.5393132089957,1161.5393132089957,1164.5363798749968,1164.5363798749968,1165.5235133749957,1,1,1.2041162490058923,0.13499429199873703,None,1165.5241312090002,1165.524199667001,None,1165.5243229589978,1165.5243614169958,None,1165.5405093340014,1165.5405093340014,,,,,,,,,,,1,2,0,0,2024-08-13_10h18.22.975,rtmindeye,2024.1.5,None,2024-08-13 10h18.49.832387 -0400,
all_stimuli/unchosen_nsd_1000_images/unchosen_1771_cocoid_38804.png,43,0,0,0,1,2,1,"[9, 21, 31, 45, 56, 68, 69]",,,,,1,0,1,0,0,43,43,43,1165.5405093340014,,,,,,,,,,,,,,,,,,,,,,,,,,,,,,,,,,,,,,1165.524804875,1165.524914624999,1165.5249342089955,1165.5405093340014,1165.5405093340014,1165.5405093340014,1165.5405093340014,1168.5363698750007,1168.5363698750007,1169.5235786670019,1,1,0.8129538739958662,0.13900095800636336,None,1169.5243642919959,1169.5244483749993,None,1169.5246187500015,1169.524667042002,None,1169.5394641250023,1169.5394641250023,,,,,,,,,,,1,2,0,0,2024-08-13_10h18.22.975,rtmindeye,2024.1.5,None,2024-08-13 10h18.49.832387 -0400,
all_stimuli/unchosen_nsd_1000_images/unchosen_111_cocoid_24267.png,44,0,0,0,1,2,1,"[9, 21, 31, 45, 56, 68, 69]",,,,,1,0,1,0,0,44,44,44,1169.5394641250023,,,,,,,,,,,,,,,,,,,,,,,,,,,,,,,,,,,,,,1169.5252002499983,1169.5253424170005,1169.5253634999972,1169.5394641250023,1169.5394641250023,1169.5394641250023,1169.5394641250023,1172.5364635419974,1172.5364635419974,1173.5246419999967,1,1,0.8160901659939555,0.16302812500362052,None,1173.5254522920004,1173.5255370419982,None,1173.525685624998,1173.525734875002,None,1173.5360722920013,1173.5360722920013,,,,,,,,,,,1,2,0,0,2024-08-13_10h18.22.975,rtmindeye,2024.1.5,None,2024-08-13 10h18.49.832387 -0400,
blank.jpg,45,1,0,0,1,2,1,"[9, 21, 31, 45, 56, 68, 69]",,,,,1,0,1,0,0,45,45,45,1173.5360722920013,,,,,,,,,,,,,,,,,,,,,,,,,,,,,,,,,,,,,,1173.5263024590022,1173.5264454169956,1173.526465584,1173.5360722920013,1173.5360722920013,1173.5360722920013,1173.5360722920013,1176.5238355420006,1176.5238355420006,1177.5203947089976,None,0,,,None,1177.520980041998,1177.5210724999997,None,1177.521201292002,1177.5212607499998,None,1177.5383301670008,1177.5383301670008,,,,,,,,,,,1,2,0,0,2024-08-13_10h18.22.975,rtmindeye,2024.1.5,None,2024-08-13 10h18.49.832387 -0400,
all_stimuli/special515/special_66216.jpg,46,0,0,0,1,2,1,"[9, 21, 31, 45, 56, 68, 69]",,,,,1,0,1,0,0,46,46,46,1177.5383301670008,,,,,,,,,,,,,,,,,,,,,,,,,,,,,,,,,,,,,,1177.5217540840022,1177.521874375001,1177.5218910839976,1177.5383301670008,1177.5383301670008,1177.5383301670008,1177.5383301670008,1180.5366649999996,1180.5366649999996,1181.5247965000017,1,1,1.7963322080031503,0.1650091249975958,None,1181.5255984169999,1181.5256882920003,None,1181.5258372919998,1181.5258929589982,None,,,,,,,,,,,,,1,2,0,0,2024-08-13_10h18.22.975,rtmindeye,2024.1.5,None,2024-08-13 10h18.49.832387 -0400,
all_stimuli/special515/special_28096.jpg,47,0,0,0,1,2,1,"[9, 21, 31, 45, 56, 68, 69]",,,,,1,0,1,0,0,47,47,47,1181.5395134169958,,,,,,,,,,,,,,,,,,,,,,,,,,,,,,,,,,,,,,1181.5264510839988,1181.5266257920011,1181.526646583996,1181.5395134169958,1181.5395134169958,1181.5395134169958,1181.5395134169958,1184.5366166250024,1184.5366166250024,1185.5246909170019,1,1,0.6922376239963342,0.14899966699886136,None,1185.525509375002,1185.5255981250011,None,1185.5257514589975,1185.5258007919983,None,1185.5404510419976,1185.5404510419976,,,,,,,,,,,1,2,0,0,2024-08-13_10h18.22.975,rtmindeye,2024.1.5,None,2024-08-13 10h18.49.832387 -0400,
all_stimuli/special515/special_62006.jpg,48,0,1,0,1,2,1,"[9, 21, 31, 45, 56, 68, 69]",,,,,1,0,1,0,0,48,48,48,1185.5404510419976,,,,,,,,,,,,,,,,,,,,,,,,,,,,,,,,,,,,,,1185.526314333998,1185.5264244999998,1185.526440583999,1185.5404510419976,1185.5404510419976,1185.5404510419976,1185.5404510419976,1188.5366474999973,1188.5366474999973,1189.5238151669982,2,1,0.9993413740012329,0.1619835419987794,None,1189.5244498749962,1189.5245180839993,None,1189.5246464169977,1189.524684625001,None,1189.5397018340009,1189.5397018340009,,,,,,,,,,,1,2,0,0,2024-08-13_10h18.22.975,rtmindeye,2024.1.5,None,2024-08-13 10h18.49.832387 -0400,
all_stimuli/special515/special_28068.jpg,49,0,1,0,1,2,1,"[9, 21, 31, 45, 56, 68, 69]",,,,,1,0,1,0,0,49,49,49,1189.5397018340009,,,,,,,,,,,,,,,,,,,,,,,,,,,,,,,,,,,,,,1189.5251092499966,1189.5252189999956,1189.5252352089956,1189.5397018340009,1189.5397018340009,1189.5397018340009,1189.5397018340009,1192.5366583750001,1192.5366583750001,1193.5249518749988,2,1,1.2011097079957835,0.14499700000305893,None,1193.5257722919996,1193.5258594999978,None,1193.526020792,1193.5260731250019,None,1193.5400762089994,1193.5400762089994,,,,,,,,,,,1,2,0,0,2024-08-13_10h18.22.975,rtmindeye,2024.1.5,None,2024-08-13 10h18.49.832387 -0400,
all_stimuli/special515/special_40909.jpg,50,0,0,0,1,2,1,"[9, 21, 31, 45, 56, 68, 69]",,,,,1,0,1,0,0,50,50,50,1193.5400762089994,,,,,,,,,,,,,,,,,,,,,,,,,,,,,,,,,,,,,,1193.526581500002,1193.5266948749995,1193.526711583996,1193.5400762089994,1193.5400762089994,1193.5400762089994,1193.5400762089994,1196.536752125001,1196.536752125001,1197.5252627500013,1,1,0.8158268320039497,0.16004295899620047,None,1197.526071041997,1197.526163124996,None,1197.5263133339977,1197.5263619589969,None,1197.5400749589971,1197.5400749589971,,,,,,,,,,,1,2,0,0,2024-08-13_10h18.22.975,rtmindeye,2024.1.5,None,2024-08-13 10h18.49.832387 -0400,
all_stimuli/special515/special_40846.jpg,51,0,0,0,1,2,1,"[9, 21, 31, 45, 56, 68, 69]",,,,,1,0,1,0,0,51,51,51,1197.5400749589971,,,,,,,,,,,,,,,,,,,,,,,,,,,,,,,,,,,,,,1197.526909041997,1197.5270507089954,1197.5270715419974,1197.5400749589971,1197.5400749589971,1197.5400749589971,1197.5400749589971,1200.536931374998,1200.536931374998,1201.524198166997,1,1,0.7168720830013626,0.16798479199496796,None,1201.524831249997,1201.5248986669976,None,1201.5250274999999,1201.5250674999988,None,1201.540597166997,1201.540597166997,,,,,,,,,,,1,2,0,0,2024-08-13_10h18.22.975,rtmindeye,2024.1.5,None,2024-08-13 10h18.49.832387 -0400,
all_stimuli/closest_pairs1/set_2_closest_to_pair_26_image_cocoid_17279.png,52,0,0,0,1,2,1,"[9, 21, 31, 45, 56, 68, 69]",,,,,1,0,1,0,0,52,52,52,1201.540597166997,,,,,,,,,,,,,,,,,,,,,,,,,,,,,,,,,,,,,,1201.5254906670016,1201.5256035839993,1201.5256197089984,1201.540597166997,1201.540597166997,1201.540597166997,1201.540597166997,1204.5368695419966,1204.5368695419966,1205.5252324999965,1,1,0.82035029099643,0.17406383300112793,None,1205.5260515420014,1205.5261407090002,None,1205.526287875,1205.5263361249963,None,1205.5404931669982,1205.5404931669982,,,,,,,,,,,1,2,0,0,2024-08-13_10h18.22.975,rtmindeye,2024.1.5,None,2024-08-13 10h18.49.832387 -0400,
all_stimuli/special515/special_70360.jpg,53,0,0,0,1,2,1,"[9, 21, 31, 45, 56, 68, 69]",,,,,1,0,1,0,0,53,53,53,1205.5404931669982,,,,,,,,,,,,,,,,,,,,,,,,,,,,,,,,,,,,,,1205.5269191249972,1205.527061875,1205.527085583999,1205.5404931669982,1205.5404931669982,1205.5404931669982,1205.5404931669982,1208.5368744169973,1208.5368744169973,1209.525444125,1,1,1.3276066239995998,0.1519953750030254,None,1209.5262660000008,1209.526354458998,None,1209.526502959001,1209.5265513749982,None,1209.5405882920022,1209.5405882920022,,,,,,,,,,,1,2,0,0,2024-08-13_10h18.22.975,rtmindeye,2024.1.5,None,2024-08-13 10h18.49.832387 -0400,
all_stimuli/special515/special_24530.jpg,54,0,0,0,1,2,1,"[9, 21, 31, 45, 56, 68, 69]",,,,,1,0,1,0,0,54,54,54,1209.5405882920022,,,,,,,,,,,,,,,,,,,,,,,,,,,,,,,,,,,,,,1209.5270822090024,1209.5272224590008,1209.5272459999978,1209.5405882920022,1209.5405882920022,1209.5405882920022,1209.5405882920022,1212.537178958999,1212.537178958999,1213.5244274169963,1,1,0.7375284160007141,0.17499962500005495,None,1213.5250584589958,1213.5251259590004,None,1213.5252439999967,1213.5252821670001,None,1213.5407940419973,1213.5407940419973,,,,,,,,,,,1,2,0,0,2024-08-13_10h18.22.975,rtmindeye,2024.1.5,None,2024-08-13 10h18.49.832387 -0400,
all_stimuli/special515/special_55669.jpg,55,0,0,0,1,2,1,"[9, 21, 31, 45, 56, 68, 69]",,,,,1,0,1,0,0,55,55,55,1213.5407940419973,,,,,,,,,,,,,,,,,,,,,,,,,,,,,,,,,,,,,,1213.5257160420006,1213.5258262499992,1213.5258424589993,1213.5407940419973,1213.5407940419973,1213.5407940419973,1213.5407940419973,1216.5374084590003,1216.5374084590003,1217.5253051249965,1,1,1.0004061660001753,0.15600658399489475,None,1217.526133416999,1217.5262249590014,None,1217.5263862089996,1217.526434792002,None,1217.5367732500017,1217.5367732500017,,,,,,,,,,,1,2,0,0,2024-08-13_10h18.22.975,rtmindeye,2024.1.5,None,2024-08-13 10h18.49.832387 -0400,
blank.jpg,56,1,0,0,1,2,1,"[9, 21, 31, 45, 56, 68, 69]",,,,,1,0,1,0,0,56,56,56,1217.5367732500017,,,,,,,,,,,,,,,,,,,,,,,,,,,,,,,,,,,,,,1217.5269853749996,1217.5271273339968,1217.527148084002,1217.5367732500017,1217.5367732500017,1217.5367732500017,1217.5367732500017,1220.525605875002,1220.525605875002,1221.5208372920024,None,0,,,None,1221.5214576669969,1221.5215418340013,None,1221.5216782089992,1221.5217236669996,None,1221.5382864999992,1221.5382864999992,,,,,,,,,,,1,2,0,0,2024-08-13_10h18.22.975,rtmindeye,2024.1.5,None,2024-08-13 10h18.49.832387 -0400,
all_stimuli/unchosen_nsd_1000_images/unchosen_1845_cocoid_20371.png,57,0,0,0,1,2,1,"[9, 21, 31, 45, 56, 68, 69]",,,,,1,0,1,0,0,57,57,57,1221.5382864999992,,,,,,,,,,,,,,,,,,,,,,,,,,,,,,,,,,,,,,1221.5222157919998,1221.5223347499996,1221.522351708998,1221.5382864999992,1221.5382864999992,1221.5382864999992,1221.5382864999992,1224.5371356249962,1224.5371356249962,1225.5250751669955,1,1,0.7310056659989641,0.1539708749987767,None,1225.525856291999,1225.5259471669997,None,1225.526105459001,1225.526155749998,None,,,,,,,,,,,,,1,2,0,0,2024-08-13_10h18.22.975,rtmindeye,2024.1.5,None,2024-08-13 10h18.49.832387 -0400,
all_stimuli/special515/special_53773.jpg,58,0,0,0,1,2,1,"[9, 21, 31, 45, 56, 68, 69]",,,,,1,0,1,0,0,58,58,58,1225.5417951249983,,,,,,,,,,,,,,,,,,,,,,,,,,,,,,,,,,,,,,1225.5267052920026,1225.526870624999,1225.5268941670001,1225.5417951249983,1225.5417951249983,1225.5417951249983,1225.5417951249983,1228.5371718339957,1228.5371718339957,1229.525529958999,1,1,0.8555235409949091,0.15698429199983366,None,1229.5263478749985,1229.526435959,None,1229.526582708997,1229.5266304999968,None,1229.540834542,1229.540834542,,,,,,,,,,,1,2,0,0,2024-08-13_10h18.22.975,rtmindeye,2024.1.5,None,2024-08-13 10h18.49.832387 -0400,
all_stimuli/special515/special_51185.jpg,59,0,0,0,1,2,1,"[9, 21, 31, 45, 56, 68, 69]",,,,,1,0,1,0,0,59,59,59,1229.540834542,,,,,,,,,,,,,,,,,,,,,,,,,,,,,,,,,,,,,,1229.5271569999968,1229.5272687499964,1229.5272851249974,1229.540834542,1229.540834542,1229.540834542,1229.540834542,1232.5374169169954,1232.5374169169954,1233.5247462499974,1,1,1.4655922490055673,0.1699651669987361,None,1233.525356166996,1233.525426041997,None,1233.5255575839983,1233.5255958749985,None,1233.542227083999,1233.542227083999,,,,,,,,,,,1,2,0,0,2024-08-13_10h18.22.975,rtmindeye,2024.1.5,None,2024-08-13 10h18.49.832387 -0400,
all_stimuli/MST_pairs1/pair_16_20_0.png,60,0,0,0,1,2,1,"[9, 21, 31, 45, 56, 68, 69]",,,,,1,0,1,0,0,60,60,60,1233.542227083999,,,,,,,,,,,,,,,,,,,,,,,,,,,,,,,,,,,,,,1233.5260120839957,1233.5261223749985,1233.5261388340004,1233.542227083999,1233.542227083999,1233.542227083999,1233.542227083999,1236.5376958339984,1236.5376958339984,1237.537598709001,1,1,1.0692383740024525,0.1870315420019324,None,1237.538414249997,1237.5385083340007,None,1237.5386389999985,1237.5386850419964,None,,,,,,,,,,,,,1,2,0,0,2024-08-13_10h18.22.975,rtmindeye,2024.1.5,None,2024-08-13 10h18.49.832387 -0400,
all_stimuli/unchosen_nsd_1000_images/unchosen_6010_cocoid_48385.png,61,0,0,0,1,2,1,"[9, 21, 31, 45, 56, 68, 69]",,,,,1,0,1,0,0,61,61,61,1237.5559431669972,,,,,,,,,,,,,,,,,,,,,,,,,,,,,,,,,,,,,,1237.5391984590024,1237.5393570419983,1237.539376708999,1237.5559431669972,1237.5559431669972,1237.5559431669972,1237.5559431669972,1240.5538823749957,1240.5538823749957,1241.5420392919987,1,1,1.0055717499999446,0.16995725000015227,None,1241.5428487089957,1241.5429411669975,None,1241.5430892090008,1241.5431387919962,None,,,,,,,,,,,,,1,2,0,0,2024-08-13_10h18.22.975,rtmindeye,2024.1.5,None,2024-08-13 10h18.49.832387 -0400,
all_stimuli/special515/special_19933.jpg,62,0,0,0,1,2,1,"[9, 21, 31, 45, 56, 68, 69]",,,,,1,0,1,0,0,62,62,62,1241.5582772089983,,,,,,,,,,,,,,,,,,,,,,,,,,,,,,,,,,,,,,1241.5436868339966,1241.5438514589987,1241.5438728750014,1241.5582772089983,1241.5582772089983,1241.5582772089983,1241.5582772089983,1244.5541153750019,1244.5541153750019,1245.5424907499983,1,1,0.7583540829946287,0.16700150000542635,None,1245.5433103749965,1245.5434011249963,None,1245.5435480419983,1245.5435969589962,None,1245.559811375002,1245.559811375002,,,,,,,,,,,1,2,0,0,2024-08-13_10h18.22.975,rtmindeye,2024.1.5,None,2024-08-13 10h18.49.832387 -0400,
all_stimuli/shared1000_notspecial/notspecial_12685.png,63,0,0,0,1,2,1,"[9, 21, 31, 45, 56, 68, 69]",,,,,1,0,1,0,0,63,63,63,1245.559811375002,,,,,,,,,,,,,,,,,,,,,,,,,,,,,,,,,,,,,,1245.5441317090008,1245.5442728749986,1245.5442935419997,1245.559811375002,1245.559811375002,1245.559811375002,1245.559811375002,1248.558077374997,1248.558077374997,1249.5426745419973,1,1,0.904827958001988,0.18294712500210153,None,1249.5434559170026,1249.543545667002,None,1249.5436918339983,1249.5437403749966,None,1249.5587611250012,1249.5587611250012,,,,,,,,,,,1,2,0,0,2024-08-13_10h18.22.975,rtmindeye,2024.1.5,None,2024-08-13 10h18.49.832387 -0400,
all_stimuli/unchosen_nsd_1000_images/unchosen_24_cocoid_51949.png,64,0,0,0,1,2,1,"[9, 21, 31, 45, 56, 68, 69]",,,,,1,0,1,0,0,64,64,64,1249.5587611250012,,,,,,,,,,,,,,,,,,,,,,,,,,,,,,,,,,,,,,1249.5442804589984,1249.5444209589987,1249.5444418339976,1249.5587611250012,1249.5587611250012,1249.5587611250012,1249.5587611250012,1252.5543742500013,1252.5543742500013,1253.541763125002,1,1,1.3519159159986884,0.18700083399744472,None,1253.5425514169983,1253.5426393750022,None,1253.5427867920007,1253.5428354169999,None,1253.557598792002,1253.557598792002,,,,,,,,,,,1,2,0,0,2024-08-13_10h18.22.975,rtmindeye,2024.1.5,None,2024-08-13 10h18.49.832387 -0400,
all_stimuli/MST_pairs1/pair_40_w_escalator2.jpg,65,0,0,0,1,2,1,"[9, 21, 31, 45, 56, 68, 69]",,,,,1,0,1,0,0,65,65,65,1253.557598792002,,,,,,,,,,,,,,,,,,,,,,,,,,,,,,,,,,,,,,1253.5433800419996,1253.5435204999958,1253.543540999999,1253.557598792002,1253.557598792002,1253.557598792002,1253.557598792002,1256.5543754169994,1256.5543754169994,1257.5427352089973,1,1,0.8601935830010916,0.17996983299963176,None,1257.5435431250007,1257.5436322499954,None,1257.5437966249956,1257.5438439999998,None,1257.5582025839976,1257.5582025839976,,,,,,,,,,,1,2,0,0,2024-08-13_10h18.22.975,rtmindeye,2024.1.5,None,2024-08-13 10h18.49.832387 -0400,
all_stimuli/special515/special_47293.jpg,66,0,1,0,1,2,1,"[9, 21, 31, 45, 56, 68, 69]",,,,,1,0,1,0,0,66,66,66,1257.5582025839976,,,,,,,,,,,,,,,,,,,,,,,,,,,,,,,,,,,,,,1257.5444123749985,1257.5445522500013,1257.5445728749983,1257.5582025839976,1257.5582025839976,1257.5582025839976,1257.5582025839976,1260.5543511669966,1260.5543511669966,1261.542350124997,1,0,1.0505558739969274,0.179010042003938,None,1261.5429959589965,1261.543067833998,None,1261.5431899999967,1261.5432316669976,None,1261.5581612919996,1261.5581612919996,,,,,,,,,,,1,2,0,0,2024-08-13_10h18.22.975,rtmindeye,2024.1.5,None,2024-08-13 10h18.49.832387 -0400,
all_stimuli/closest_pairs1/set_1_closest_to_pair_2_image_cocoid_51007.png,67,0,0,0,1,2,1,"[9, 21, 31, 45, 56, 68, 69]",,,,,1,0,1,0,0,67,67,67,1261.5581612919996,,,,,,,,,,,,,,,,,,,,,,,,,,,,,,,,,,,,,,1261.5436619999964,1261.5437788339987,1261.5437952089997,1261.5581612919996,1261.5581612919996,1261.5581612919996,1261.5581612919996,1264.5543621249963,1264.5543621249963,1265.542950834002,1,1,0.8097136240030522,0.19499420799547806,None,1265.543749999997,1265.5438366250019,None,1265.543989083999,1265.544037749998,None,1265.5542667499976,1265.5542667499976,,,,,,,,,,,1,2,0,0,2024-08-13_10h18.22.975,rtmindeye,2024.1.5,None,2024-08-13 10h18.49.832387 -0400,
blank.jpg,68,1,0,0,1,2,1,"[9, 21, 31, 45, 56, 68, 69]",,,,,1,0,1,0,0,68,68,68,1265.5542667499976,,,,,,,,,,,,,,,,,,,,,,,,,,,,,,,,,,,,,,1265.5445754169996,1265.5447176250018,1265.5447389999972,1265.5542667499976,1265.5542667499976,1265.5542667499976,1265.5542667499976,1268.5426760420014,1268.5426760420014,1269.5382687919991,None,0,,,None,1269.5388862089967,1269.5389753339987,None,1269.539112624996,1269.5391592500018,None,1269.548320875001,1269.548320875001,,,,,,,,,,,1,2,0,0,2024-08-13_10h18.22.975,rtmindeye,2024.1.5,None,2024-08-13 10h18.49.832387 -0400,
blank.jpg,69,1,0,1,1,2,0,"[9, 21, 31, 45, 56, 68, 69]",,,,,1,0,1,0,0,69,69,69,1269.548320875001,,,,,,,,,,,,,,,,,,,,,,,,,,,,,,,,,,,,,,1269.5396381669998,1269.539761,1269.539780166997,1269.548320875001,1269.548320875001,1269.548320875001,1269.548320875001,1272.5417687090012,1272.5417687090012,1273.538349041999,None,0,,,None,1273.5389317090012,1296.8609639999995,1,1296.861636624999,1313.5941424999983,equal,1273.5598535419995,1273.5598535419995,1273.5598535419995,1273.5598535419995,23.297547041001962,None,1296.8709610840015,1296.8709610840015,16.721714123996207,None,,,1,2,0,0,2024-08-13_10h18.22.975,rtmindeye,2024.1.5,None,2024-08-13 10h18.49.832387 -0400,
,,,,,,,,,,,,,1,0,1,0,,,,,,,,,,,,,,,,,,,,,,,,,,,,,,,,,,,,,,,,,,,,,,,,,,,,,,,,,,,,,,,,,,,,,,,,,,,,1,2,0,0,2024-08-13_10h18.22.975,rtmindeye,2024.1.5,None,2024-08-13 10h18.49.832387 -0400,
all_stimuli/special515/special_44720.jpg,0,0,0,0,2,2,1,"[9, 21, 31, 45, 56, 68, 69]",,,,,2,0,2,0,0,0,0,0,1313.6280185419964,,,,,,,,,,,,,,,,,,,,,,,,,,,,,,,,,,,,,,1313.6141937089997,1313.6145933750013,1313.6146111249982,1313.6280185419964,1313.6280185419964,1313.6280185419964,1313.6280185419964,1316.621826374998,1316.621826374998,1317.6221487500006,1,1,0.7885713319992647,0.17396404199826065,None,1317.6234155420025,1317.6235182090022,None,1317.6237604999988,1317.623905667002,None,,,,,,,,,,,,,1,2,0,0,2024-08-13_10h18.22.975,rtmindeye,2024.1.5,None,2024-08-13 10h18.49.832387 -0400,
all_stimuli/special515/special_54078.jpg,1,0,0,0,2,2,1,"[9, 21, 31, 45, 56, 68, 69]",,,,,2,0,2,0,0,1,1,1,1317.6377293339974,,,,,,,,,,,,,,,,,,,,,,,,,,,,,,,,,,,,,,1317.6249859169984,1317.6251639589973,1317.625186792,1317.6377293339974,1317.6377293339974,1317.6377293339974,1317.6377293339974,1320.6257914169983,1320.6257914169983,1321.6223925419981,1,1,0.9589097499992931,0.1569959580010618,None,1321.6231647500026,1321.6232480420003,None,1321.623372791997,1321.6234202499982,None,1321.6407559590007,1321.6407559590007,,,,,,,,,,,1,2,0,0,2024-08-13_10h18.22.975,rtmindeye,2024.1.5,None,2024-08-13 10h18.49.832387 -0400,
all_stimuli/shared1000_notspecial/notspecial_21703.png,2,0,0,0,2,2,1,"[9, 21, 31, 45, 56, 68, 69]",,,,,2,0,2,0,0,2,2,2,1321.6407559590007,,,,,,,,,,,,,,,,,,,,,,,,,,,,,,,,,,,,,,1321.623906791996,1321.6240229589966,1321.6240398340015,1321.6407559590007,1321.6407559590007,1321.6407559590007,1321.6407559590007,1324.6386297089994,1324.6386297089994,1325.626693291997,1,1,0.874913291001576,0.1609892909982591,None,1325.6273458750002,1325.6274145419957,None,1325.6275468749955,1325.627589249998,None,,,,,,,,,,,,,1,2,0,0,2024-08-13_10h18.22.975,rtmindeye,2024.1.5,None,2024-08-13 10h18.49.832387 -0400,
all_stimuli/special515/special_25588.jpg,3,0,0,0,2,2,1,"[9, 21, 31, 45, 56, 68, 69]",,,,,2,0,2,0,0,3,3,3,1325.6423778339959,,,,,,,,,,,,,,,,,,,,,,,,,,,,,,,,,,,,,,1325.6280201670015,1325.6281431669995,1325.6281606670018,1325.6423778339959,1325.6423778339959,1325.6423778339959,1325.6423778339959,1328.6385982919965,1328.6385982919965,1329.6272781250009,1,1,0.6433980410001823,0.15000249999866355,None,1329.628115708998,1329.628202916996,None,1329.6283542090023,1329.628403499999,None,1329.6420570420014,1329.6420570420014,,,,,,,,,,,1,2,0,0,2024-08-13_10h18.22.975,rtmindeye,2024.1.5,None,2024-08-13 10h18.49.832387 -0400,
all_stimuli/special515/special_40548.jpg,4,0,0,0,2,2,1,"[9, 21, 31, 45, 56, 68, 69]",,,,,2,0,2,0,0,4,4,4,1329.6420570420014,,,,,,,,,,,,,,,,,,,,,,,,,,,,,,,,,,,,,,1329.628958041998,1329.6291023750018,1329.6291233750017,1329.6420570420014,1329.6420570420014,1329.6420570420014,1329.6420570420014,1332.6388622090017,1332.6388622090017,1333.6258034589991,1,1,0.8057474579982227,0.1860890410025604,None,1333.6264347499964,1333.6265033750024,None,1333.6266306249963,1333.6266699999978,None,1333.6421072090016,1333.6421072090016,,,,,,,,,,,1,2,0,0,2024-08-13_10h18.22.975,rtmindeye,2024.1.5,None,2024-08-13 10h18.49.832387 -0400,
all_stimuli/MST_pairs1/pair_10_14_89.png,5,0,1,0,2,2,1,"[9, 21, 31, 45, 56, 68, 69]",,,,,2,0,2,0,0,5,5,5,1333.6421072090016,,,,,,,,,,,,,,,,,,,,,,,,,,,,,,,,,,,,,,1333.6270837089978,1333.6271951669987,1333.627211334002,1333.6421072090016,1333.6421072090016,1333.6421072090016,1333.6421072090016,1336.638645041996,1336.638645041996,1337.6269389169975,2,1,1.2567563750053523,0.15797274999931687,None,1337.6277350839955,1337.6278289170004,None,1337.6279773749993,1337.628028291998,None,1337.6423566669982,1337.6423566669982,,,,,,,,,,,1,2,0,0,2024-08-13_10h18.22.975,rtmindeye,2024.1.5,None,2024-08-13 10h18.49.832387 -0400,
all_stimuli/special515/special_53155.jpg,6,0,0,0,2,2,1,"[9, 21, 31, 45, 56, 68, 69]",,,,,2,0,2,0,0,6,6,6,1337.6423566669982,,,,,,,,,,,,,,,,,,,,,,,,,,,,,,,,,,,,,,1337.6285777090015,1337.628720959001,1337.628744499998,1337.6423566669982,1337.6423566669982,1337.6423566669982,1337.6423566669982,1340.638895791999,1340.638895791999,1341.6269119589997,1,1,0.7165369580034167,0.14900529199803714,None,1341.627722792,1341.6278120839997,None,1341.627959833997,1341.6280120419979,None,1341.6424971669985,1341.6424971669985,,,,,,,,,,,1,2,0,0,2024-08-13_10h18.22.975,rtmindeye,2024.1.5,None,2024-08-13 10h18.49.832387 -0400,
all_stimuli/special515/special_53570.jpg,7,0,0,0,2,2,1,"[9, 21, 31, 45, 56, 68, 69]",,,,,2,0,2,0,0,7,7,7,1341.6424971669985,,,,,,,,,,,,,,,,,,,,,,,,,,,,,,,,,,,,,,1341.6285387919997,1341.628682417002,1341.6287034170018,1341.6424971669985,1341.6424971669985,1341.6424971669985,1341.6424971669985,1344.638846875001,1344.638846875001,1345.6273949589959,1,1,0.9324706659972435,0.1619852500007255,None,1345.628194291996,1345.6282852919976,None,1345.628416833999,1345.628464249996,None,1345.6431125000017,1345.6431125000017,,,,,,,,,,,1,2,0,0,2024-08-13_10h18.22.975,rtmindeye,2024.1.5,None,2024-08-13 10h18.49.832387 -0400,
all_stimuli/special515/special_43224.jpg,8,0,0,0,2,2,1,"[9, 21, 31, 45, 56, 68, 69]",,,,,2,0,2,0,0,8,8,8,1345.6431125000017,,,,,,,,,,,,,,,,,,,,,,,,,,,,,,,,,,,,,,1345.6290167499974,1345.6291306249987,1345.6291473340025,1345.6431125000017,1345.6431125000017,1345.6431125000017,1345.6431125000017,1348.6388709589955,1348.6388709589955,1349.6389656249958,1,1,0.8838687079987722,0.17406937499617925,None,1349.639607584002,1349.639674291997,None,1349.6397895839982,1349.6398274999956,None,,,,,,,,,,,,,1,2,0,0,2024-08-13_10h18.22.975,rtmindeye,2024.1.5,None,2024-08-13 10h18.49.832387 -0400,
blank.jpg,9,1,0,0,2,2,1,"[9, 21, 31, 45, 56, 68, 69]",,,,,2,0,2,0,0,9,9,9,1349.6496418749957,,,,,,,,,,,,,,,,,,,,,,,,,,,,,,,,,,,,,,1349.6402565419994,1349.6403735420026,1349.6403902500024,1349.6496418749957,1349.6496418749957,1349.6496418749957,1349.6496418749957,1352.6428071249975,1352.6428071249975,1353.639149083996,None,0,,,None,1353.6397345000005,1353.6398167919979,None,1353.6399673339984,1353.6400174169976,None,1353.6549900839964,1353.6549900839964,,,,,,,,,,,1,2,0,0,2024-08-13_10h18.22.975,rtmindeye,2024.1.5,None,2024-08-13 10h18.49.832387 -0400,
all_stimuli/special515/special_65769.jpg,10,0,0,0,2,2,1,"[9, 21, 31, 45, 56, 68, 69]",,,,,2,0,2,0,0,10,10,10,1353.6549900839964,,,,,,,,,,,,,,,,,,,,,,,,,,,,,,,,,,,,,,1353.6405615839976,1353.6406995419966,1353.6407197500012,1353.6549900839964,1353.6549900839964,1353.6549900839964,1353.6549900839964,1356.6428309170005,1356.6428309170005,1357.6395073339954,1,1,1.1221268739973311,0.17509175000304822,None,1357.6402648340008,1357.6403480840017,None,1357.6404777499993,1357.6405244589987,None,1357.657476166998,1357.657476166998,,,,,,,,,,,1,2,0,0,2024-08-13_10h18.22.975,rtmindeye,2024.1.5,None,2024-08-13 10h18.49.832387 -0400,
all_stimuli/closest_pairs1/set_2_closest_to_pair_18_image_cocoid_15895.png,11,0,0,0,2,2,1,"[9, 21, 31, 45, 56, 68, 69]",,,,,2,0,2,0,0,11,11,11,1357.657476166998,,,,,,,,,,,,,,,,,,,,,,,,,,,,,,,,,,,,,,1357.6410173749973,1357.6411434170004,1357.641160416999,1357.657476166998,1357.657476166998,1357.657476166998,1357.657476166998,1360.6556458749983,1360.6556458749983,1361.6435015419993,1,1,0.7996853330041631,0.1479972910019569,None,1361.6442988339986,1361.6443897089994,None,1361.6445347920017,1361.6445862089968,None,,,,,,,,,,,,,1,2,0,0,2024-08-13_10h18.22.975,rtmindeye,2024.1.5,None,2024-08-13 10h18.49.832387 -0400,
