current_image,trial_index,is_blank_trial,is_repeat,is_new_run,run_num,sess_num,is_not_last_trial,all_blanks_list,practice.thisRepN,practice.thisTrialN,practice.thisN,practice.thisIndex,loop_runs.thisRepN,loop_runs.thisTrialN,loop_runs.thisN,loop_runs.thisIndex,loop_all_images.thisRepN,loop_all_images.thisTrialN,loop_all_images.thisN,loop_all_images.thisIndex,thisRow.t,notes,set_up.started,set_up.stopped,practice_continue.started,key_resp_6.started,text_6.started,practice_continue.stopped,key_resp_6.keys,key_resp_6.rt,key_resp_6.duration,practice_trial.started,image_2.started,press_if_repeat_2.started,polygon_3.started,all_keys_pressed_2.started,image_2.stopped,press_if_repeat_2.stopped,polygon_3.stopped,all_keys_pressed_2.stopped,practice_trial.stopped,press_if_repeat_2.keys,press_if_repeat_2.corr,press_if_repeat_2.rt,press_if_repeat_2.duration,all_keys_pressed_2.keys,testing_continue.started,key_resp_7.started,text_7.started,testing_continue.stopped,key_resp_7.keys,key_resp_7.rt,key_resp_7.duration,waiting_fmri.started,key_resp_2.started,text_3.started,waiting_fmri.stopped,key_resp_2.keys,key_resp_2.rt,key_resp_2.duration,set_skips_and_correct_key.started,set_skips_and_correct_key.stopped,trial.started,image.started,press_if_repeat.started,polygon.started,all_keys_pressed.started,image.stopped,press_if_repeat.stopped,trial.stopped,press_if_repeat.keys,press_if_repeat.corr,press_if_repeat.rt,press_if_repeat.duration,all_keys_pressed.keys,run_wait2_2.started,run_wait2_2.stopped,key_resp_5.keys,waiting_fmri_2.started,waiting_fmri_2.stopped,key_resp_4.keys,polygon.stopped,all_keys_pressed.stopped,key_resp_5.started,text_5.started,key_resp_5.rt,key_resp_5.duration,key_resp_4.started,text_4.started,key_resp_4.rt,key_resp_4.duration,all_keys_pressed.rt,all_keys_pressed.duration,participant,session (1 2 or 3),starting_run,skip_practice,date,expName,psychopyVersion,frameRate,expStart,
,,,,,,,,,,,,,,,,,,,,,,,0.0041265830004704185,0.004252165999787394,,,,,,,,,,,,,,,,,,,,,,,,,,,,,,,,,,,,,,,,,,,,,,,,,,,,,,,,,,,,,,,,,,,,,,1,3,0,0,2024-08-14_10h09.27.508,rtmindeye,2024.1.5,None,2024-08-14 10h09.43.169831 -0400,
,,,,,,,,,,,,,,,,,,,,,,,,,0.004263333001290448,0.014848416001768783,0.014848416001768783,28.25906550000218,1,27.190847623998707,None,,,,,,,,,,,,,,,,,,,,,,,,,,,,,,,,,,,,,,,,,,,,,,,,,,,,,,,,,,,,,,,1,3,0,0,2024-08-14_10h09.27.508,rtmindeye,2024.1.5,None,2024-08-14 10h09.43.169831 -0400,
practice_images/w_kitchen2.jpg,0,0,,,,,,,0,0,0,0,,,,,,,,,28.27441954099777,,,,,,,,,,,28.263171124999644,28.27441954099777,28.27441954099777,28.27441954099777,28.27441954099777,31.263203458001954,31.263203458001954,32.27247908300342,32.27247908300342,32.25895675000356,1,0,0.7680819579982199,0.18011725000542356,None,,,,,,,,,,,,,,,,,,,,,,,,,,,,,,,,,,,,,,,,,,,,,,,,1,3,0,0,2024-08-14_10h09.27.508,rtmindeye,2024.1.5,None,2024-08-14 10h09.43.169831 -0400,
practice_images/w_boardwalk2.jpg,1,0,,,,,,,0,1,1,1,,,,,,,,,32.27247908300342,,,,,,,,,,,32.26059354100289,32.27247908300342,32.27247908300342,32.27247908300342,32.27247908300342,35.26262062499882,35.26262062499882,36.27155166600278,36.27155166600278,36.259074957997655,1,0,0.7891382910020184,0.15498091700283112,None,,,,,,,,,,,,,,,,,,,,,,,,,,,,,,,,,,,,,,,,,,,,,,,,1,3,0,0,2024-08-14_10h09.27.508,rtmindeye,2024.1.5,None,2024-08-14 10h09.43.169831 -0400,
practice_images/w_monument2.jpg,2,0,,,,,,,0,2,2,2,,,,,,,,,36.27155166600278,,,,,,,,,,,36.26023775000067,36.27155166600278,36.27155166600278,36.27155166600278,36.27155166600278,39.262441124999896,39.262441124999896,40.2722702500032,40.2722702500032,40.259126458004175,1,0,0.8620958749961574,0.16601287500088802,None,,,,,,,,,,,,,,,,,,,,,,,,,,,,,,,,,,,,,,,,,,,,,,,,1,3,0,0,2024-08-14_10h09.27.508,rtmindeye,2024.1.5,None,2024-08-14 10h09.43.169831 -0400,
practice_images/w_auditorium2.jpg,3,0,,,,,,,0,3,3,3,,,,,,,,,40.2722702500032,,,,,,,,,,,40.26044600000023,40.2722702500032,40.2722702500032,40.2722702500032,40.2722702500032,43.26259241600201,43.26259241600201,44.269823250004265,44.269823250004265,44.25917612500052,1,0,0.8364580420020502,0.1570304579945514,None,,,,,,,,,,,,,,,,,,,,,,,,,,,,,,,,,,,,,,,,,,,,,,,,1,3,0,0,2024-08-14_10h09.27.508,rtmindeye,2024.1.5,None,2024-08-14 10h09.43.169831 -0400,
practice_images/w_kitchen2.jpg,4,0,,,,,,,0,4,4,4,,,,,,,,,44.269823250004265,,,,,,,,,,,44.260358250001445,44.269823250004265,44.269823250004265,44.269823250004265,44.269823250004265,47.26334499999939,47.26334499999939,48.27177725000365,48.27177725000365,48.259293583003455,2,0,1.0379741670039948,0.18494949999876553,None,,,,,,,,,,,,,,,,,,,,,,,,,,,,,,,,,,,,,,,,,,,,,,,,1,3,0,0,2024-08-14_10h09.27.508,rtmindeye,2024.1.5,None,2024-08-14 10h09.43.169831 -0400,
practice_images/w_auditorium1.jpg,5,0,,,,,,,0,5,5,5,,,,,,,,,48.27177725000365,,,,,,,,,,,48.26040541600378,48.27177725000365,48.27177725000365,48.27177725000365,48.27177725000365,51.26288729099906,51.26288729099906,52.27154824999889,52.27154824999889,52.259087958002056,1,0,0.9420340829965426,0.18401362500299,None,,,,,,,,,,,,,,,,,,,,,,,,,,,,,,,,,,,,,,,,,,,,,,,,1,3,0,0,2024-08-14_10h09.27.508,rtmindeye,2024.1.5,None,2024-08-14 10h09.43.169831 -0400,
practice_images/w_bedroom2.jpg,6,0,,,,,,,0,6,6,6,,,,,,,,,52.27154824999889,,,,,,,,,,,52.26024020800105,52.27154824999889,52.27154824999889,52.27154824999889,52.27154824999889,55.262814916000934,55.262814916000934,56.27261787500174,56.27261787500174,56.25935833300173,1,0,0.7653400409981259,0.15101979199971538,None,,,,,,,,,,,,,,,,,,,,,,,,,,,,,,,,,,,,,,,,,,,,,,,,1,3,0,0,2024-08-14_10h09.27.508,rtmindeye,2024.1.5,None,2024-08-14 10h09.43.169831 -0400,
practice_images/w_kitchen1.jpg,7,0,,,,,,,0,7,7,7,,,,,,,,,56.27261787500174,,,,,,,,,,,56.26048858300055,56.27261787500174,56.27261787500174,56.27261787500174,56.27261787500174,59.26378191600088,59.26378191600088,60.27152537499933,60.27152537499933,60.25929629099846,1,0,0.8953661660052603,0.1670210419979412,None,,,,,,,,,,,,,,,,,,,,,,,,,,,,,,,,,,,,,,,,,,,,,,,,1,3,0,0,2024-08-14_10h09.27.508,rtmindeye,2024.1.5,None,2024-08-14 10h09.43.169831 -0400,
practice_images/w_bedroom1.jpg,8,0,,,,,,,0,8,8,8,,,,,,,,,60.27152537499933,,,,,,,,,,,60.26045850000082,60.27152537499933,60.27152537499933,60.27152537499933,60.27152537499933,63.26372387500305,63.26372387500305,,,64.25922662499943,1,0,0.6934493329972611,0.16999937500077067,None,,,,,,,,,,,,,,,,,,,,,,,,,,,,,,,,,,,,,,,,,,,,,,,,1,3,0,0,2024-08-14_10h09.27.508,rtmindeye,2024.1.5,None,2024-08-14 10h09.43.169831 -0400,
practice_images/w_monument2.jpg,9,0,,,,,,,0,9,9,9,,,,,,,,,64.27015058300458,,,,,,,,,,,64.26043016600306,64.27015058300458,64.27015058300458,64.27015058300458,64.27015058300458,67.26309837499866,67.26309837499866,,,68.25934037499974,2,0,0.9299488739998196,0.15997424999659415,None,,,,,,,,,,,,,,,,,,,,,,,,,,,,,,,,,,,,,,,,,,,,,,,,1,3,0,0,2024-08-14_10h09.27.508,rtmindeye,2024.1.5,None,2024-08-14 10h09.43.169831 -0400,
,,,,,,,,,,,,,,,,,,,,,,,,,,,,,,,,,,,,,,,,,,,,,,,68.26048612500017,68.28374283300218,68.28374283300218,73.56009258300037,1,5.264561832998879,None,,,,,,,,,,,,,,,,,,,,,,,,,,,,,,,,,,,,,,,,,1,3,0,0,2024-08-14_10h09.27.508,rtmindeye,2024.1.5,None,2024-08-14 10h09.43.169831 -0400,
,,,,,,,,,,,,,,,,,,,,,,,,,,,,,,,,,,,,,,,,,,,,,,,,,,,,,,73.56016770800488,73.56803737500013,73.56803737500013,640.2023011659985,equal,566.6316227080024,None,,,,,,,,,,,,,,,,,,,,,,,,,,,,,,,,,,1,3,0,0,2024-08-14_10h09.27.508,rtmindeye,2024.1.5,None,2024-08-14 10h09.43.169831 -0400,
all_stimuli/special515/special_69839.jpg,0,0,0,0,0,3,1,"[9, 21, 31, 45, 56, 68, 69]",,,,,0,0,0,0,0,0,0,0,640.2405623329978,,,,,,,,,,,,,,,,,,,,,,,,,,,,,,,,,,,,,,,,640.2239620830005,640.2243419580045,640.2243604579999,640.2405623329978,640.2405623329978,640.2405623329978,640.2405623329978,643.2380439160042,643.2380439160042,644.2343623330016,1,1,0.6850079159994493,0.15198475000215694,None,644.235811999999,644.2359202080042,None,644.2362566660013,644.2363127909994,None,,,,,,,,,,,,,1,3,0,0,2024-08-14_10h09.27.508,rtmindeye,2024.1.5,None,2024-08-14 10h09.43.169831 -0400,
all_stimuli/closest_pairs2/set_3_closest_to_pair_37_image_cocoid_45923.png,1,0,0,0,0,3,1,"[9, 21, 31, 45, 56, 68, 69]",,,,,0,0,0,0,0,1,1,1,644.2546944159985,,,,,,,,,,,,,,,,,,,,,,,,,,,,,,,,,,,,,,,,644.2378187499999,644.2379799999981,644.2380061250005,644.2546944159985,644.2546944159985,644.2546944159985,644.2546944159985,647.2509441250004,647.2509441250004,648.2390203329996,1,1,0.666900958000042,0.15904354100348428,None,648.239856250002,648.2399473750047,None,648.2401141660011,648.2401673749991,None,,,,,,,,,,,,,1,3,0,0,2024-08-14_10h09.27.508,rtmindeye,2024.1.5,None,2024-08-14 10h09.43.169831 -0400,
all_stimuli/shared1000_notspecial/notspecial_28325.png,2,0,0,0,0,3,1,"[9, 21, 31, 45, 56, 68, 69]",,,,,0,0,0,0,0,2,2,2,648.2551309580012,,,,,,,,,,,,,,,,,,,,,,,,,,,,,,,,,,,,,,,,648.2407354579991,648.2409077909979,648.2409295830003,648.2551309580012,648.2551309580012,648.2551309580012,648.2551309580012,651.2510391250034,651.2510391250034,652.2391832080029,1,1,0.532551832999161,0.14604895799857331,None,652.2400327080031,652.2401190829987,None,652.2402696659992,652.240318958,None,652.2560475409991,652.2560475409991,,,,,,,,,,,1,3,0,0,2024-08-14_10h09.27.508,rtmindeye,2024.1.5,None,2024-08-14 10h09.43.169831 -0400,
all_stimuli/shared1000_notspecial/notspecial_46480.png,3,0,0,0,0,3,1,"[9, 21, 31, 45, 56, 68, 69]",,,,,0,0,0,0,0,3,3,3,652.2560475409991,,,,,,,,,,,,,,,,,,,,,,,,,,,,,,,,,,,,,,,,652.2408850830034,652.2410288329993,652.241050208002,652.2560475409991,652.2560475409991,652.2560475409991,652.2560475409991,655.2511387909981,655.2511387909981,656.2512722079991,1,1,0.5877392909969785,0.14897116700012702,None,656.2521244160016,656.2522129159988,None,656.2523738329983,656.2524242910004,None,,,,,,,,,,,,,1,3,0,0,2024-08-14_10h09.27.508,rtmindeye,2024.1.5,None,2024-08-14 10h09.43.169831 -0400,
all_stimuli/shared1000_notspecial/notspecial_48393.png,4,0,0,0,0,3,1,"[9, 21, 31, 45, 56, 68, 69]",,,,,0,0,0,0,0,4,4,4,656.2690030829981,,,,,,,,,,,,,,,,,,,,,,,,,,,,,,,,,,,,,,,,656.2529706249989,656.2531193329996,656.2531405830014,656.2690030829981,656.2690030829981,656.2690030829981,656.2690030829981,659.2678740830015,659.2678740830015,660.2559239160037,1,1,0.7028133330022683,0.1449672910021036,None,660.2567585409997,660.2568485829979,None,660.2570009580013,660.2570518330031,None,,,,,,,,,,,,,1,3,0,0,2024-08-14_10h09.27.508,rtmindeye,2024.1.5,None,2024-08-14 10h09.43.169831 -0400,
all_stimuli/closest_pairs2/set_3_closest_to_pair_27_image_cocoid_44058.png,5,0,0,0,0,3,1,"[9, 21, 31, 45, 56, 68, 69]",,,,,0,0,0,0,0,5,5,5,660.2726448329995,,,,,,,,,,,,,,,,,,,,,,,,,,,,,,,,,,,,,,,,660.2576202080018,660.257791707998,660.2578137079981,660.2726448329995,660.2726448329995,660.2726448329995,660.2726448329995,663.2678781659997,663.2678781659997,664.2554748750044,1,1,0.6212211249949178,0.15302341699862154,None,664.2562772910023,664.2563652079989,None,664.2565159580045,664.2565657079977,None,664.2719755409998,664.2719755409998,,,,,,,,,,,1,3,0,0,2024-08-14_10h09.27.508,rtmindeye,2024.1.5,None,2024-08-14 10h09.43.169831 -0400,
all_stimuli/shared1000_notspecial/notspecial_70947.png,6,0,0,0,0,3,1,"[9, 21, 31, 45, 56, 68, 69]",,,,,0,0,0,0,0,6,6,6,664.2719755409998,,,,,,,,,,,,,,,,,,,,,,,,,,,,,,,,,,,,,,,,664.2571155410042,664.2572591249991,664.2572803750008,664.2719755409998,664.2719755409998,664.2719755409998,664.2719755409998,667.2679897499984,667.2679897499984,668.2559176659997,1,1,0.7019589159972384,0.1609658750021481,None,668.2567420409978,668.2568344579995,None,668.2569857499984,668.2570387910018,None,668.2719138329994,668.2719138329994,,,,,,,,,,,1,3,0,0,2024-08-14_10h09.27.508,rtmindeye,2024.1.5,None,2024-08-14 10h09.43.169831 -0400,
all_stimuli/closest_pairs2/set_1_closest_to_pair_25_image_cocoid_58252.png,7,0,0,0,0,3,1,"[9, 21, 31, 45, 56, 68, 69]",,,,,0,0,0,0,0,7,7,7,668.2719138329994,,,,,,,,,,,,,,,,,,,,,,,,,,,,,,,,,,,,,,,,668.2575927080034,668.2577357080008,668.2577596660049,668.2719138329994,668.2719138329994,668.2719138329994,668.2719138329994,671.2679397910033,671.2679397910033,672.2564639580014,1,1,0.6690307910030242,0.1480359999986831,None,672.2573065830002,672.2573935830005,None,672.2575446660048,672.2575947910009,None,672.2875291660021,672.2875291660021,,,,,,,,,,,1,3,0,0,2024-08-14_10h09.27.508,rtmindeye,2024.1.5,None,2024-08-14 10h09.43.169831 -0400,
all_stimuli/MST_pairs2/pair_27_nsd_505_2_cocoid_31968.png,8,0,0,0,0,3,1,"[9, 21, 31, 45, 56, 68, 69]",,,,,0,0,0,0,0,8,8,8,672.2875291660021,,,,,,,,,,,,,,,,,,,,,,,,,,,,,,,,,,,,,,,,672.2581538750019,672.2582653749996,672.2582820000025,672.2875291660021,672.2875291660021,672.2875291660021,672.2875291660021,675.2846592080023,675.2846592080023,676.2682571250043,1,1,1.1105597920031869,0.15393120799853932,None,676.2690670000011,676.2691527909992,None,676.2693036249984,676.2693535409999,None,,,,,,,,,,,,,1,3,0,0,2024-08-14_10h09.27.508,rtmindeye,2024.1.5,None,2024-08-14 10h09.43.169831 -0400,
blank.jpg,9,1,0,0,0,3,1,"[9, 21, 31, 45, 56, 68, 69]",,,,,0,0,0,0,0,9,9,9,676.280103582998,,,,,,,,,,,,,,,,,,,,,,,,,,,,,,,,,,,,,,,,676.2699022500019,676.2704234580015,676.2704750000048,676.280103582998,676.280103582998,676.280103582998,676.280103582998,679.2720803330012,679.2720803330012,680.2686033330028,None,0,,,None,680.2692495829979,680.269337083002,None,680.2694857910028,680.2695318750048,None,680.2863172910002,680.2863172910002,,,,,,,,,,,1,3,0,0,2024-08-14_10h09.27.508,rtmindeye,2024.1.5,None,2024-08-14 10h09.43.169831 -0400,
all_stimuli/special515/special_21950.jpg,10,0,0,0,0,3,1,"[9, 21, 31, 45, 56, 68, 69]",,,,,0,0,0,0,0,10,10,10,680.2863172910002,,,,,,,,,,,,,,,,,,,,,,,,,,,,,,,,,,,,,,,,680.2700284160019,680.2701538330002,680.2701722499987,680.2863172910002,680.2863172910002,680.2863172910002,680.2863172910002,683.2849328750017,683.2849328750017,684.2735960409991,1,1,0.6957879580004374,0.15007524999964517,None,684.2743464160012,684.2744408750004,None,684.2745703330002,684.2746245410017,None,,,,,,,,,,,,,1,3,0,0,2024-08-14_10h09.27.508,rtmindeye,2024.1.5,None,2024-08-14 10h09.43.169831 -0400,
all_stimuli/shared1000_notspecial/notspecial_37801.png,11,0,0,0,0,3,1,"[9, 21, 31, 45, 56, 68, 69]",,,,,0,0,0,0,0,11,11,11,684.2905943750011,,,,,,,,,,,,,,,,,,,,,,,,,,,,,,,,,,,,,,,,684.2751622080032,684.2753955000007,684.2754485410042,684.2905943750011,684.2905943750011,684.2905943750011,684.2905943750011,687.2848995410022,687.2848995410022,688.2850937500043,1,1,0.6515880420047324,0.1530311249953229,None,688.2860300829998,688.2861352079999,None,688.2862667500012,688.286314666002,None,,,,,,,,,,,,,1,3,0,0,2024-08-14_10h09.27.508,rtmindeye,2024.1.5,None,2024-08-14 10h09.43.169831 -0400,
all_stimuli/shared1000_notspecial/notspecial_21508.png,12,0,0,0,0,3,1,"[9, 21, 31, 45, 56, 68, 69]",,,,,0,0,0,0,0,12,12,12,688.3026398750008,,,,,,,,,,,,,,,,,,,,,,,,,,,,,,,,,,,,,,,,688.2868218750009,688.2869917080025,688.2870121660017,688.3026398750008,688.3026398750008,688.3026398750008,688.3026398750008,691.3016730829986,691.3016730829986,692.2895259580037,1,1,0.6335839579987805,0.13802470899827313,None,692.2903708329977,692.2904608329991,None,692.2906391249999,692.2906921660033,None,,,,,,,,,,,,,1,3,0,0,2024-08-14_10h09.27.508,rtmindeye,2024.1.5,None,2024-08-14 10h09.43.169831 -0400,
all_stimuli/closest_pairs2/set_2_closest_to_pair_13_image_cocoid_28363.png,13,0,0,0,0,3,1,"[9, 21, 31, 45, 56, 68, 69]",,,,,0,0,0,0,0,13,13,13,692.3054234160008,,,,,,,,,,,,,,,,,,,,,,,,,,,,,,,,,,,,,,,,692.2912549160028,692.291405791002,692.2914255409996,692.3054234160008,692.3054234160008,692.3054234160008,692.3054234160008,695.3016760000028,695.3016760000028,696.2900648330033,1,1,0.6579474989994196,0.26596687500568805,None,696.2910287080012,696.2911236660002,None,696.291288458,696.2913441249984,None,696.3080567500001,696.3080567500001,,,,,,,,,,,1,3,0,0,2024-08-14_10h09.27.508,rtmindeye,2024.1.5,None,2024-08-14 10h09.43.169831 -0400,
all_stimuli/special515/special_57838.jpg,14,0,0,0,0,3,1,"[9, 21, 31, 45, 56, 68, 69]",,,,,0,0,0,0,0,14,14,14,696.3080567500001,,,,,,,,,,,,,,,,,,,,,,,,,,,,,,,,,,,,,,,,696.2922190000027,696.2924175000007,696.2924428750048,696.3080567500001,696.3080567500001,696.3080567500001,696.3080567500001,699.3069393750047,699.3069393750047,700.3017949999994,1,1,0.7343238749963348,0.131950125003641,None,700.3026746250034,700.3027629999997,None,700.302930165999,700.3029800000004,None,,,,,,,,,,,,,1,3,0,0,2024-08-14_10h09.27.508,rtmindeye,2024.1.5,None,2024-08-14 10h09.43.169831 -0400,
all_stimuli/MST_pairs2/pair_13_17_56.png,15,0,0,0,0,3,1,"[9, 21, 31, 45, 56, 68, 69]",,,,,0,0,0,0,0,15,15,15,700.321782250001,,,,,,,,,,,,,,,,,,,,,,,,,,,,,,,,,,,,,,,,700.3035243330014,700.3036724580015,700.3036962080005,700.321782250001,700.321782250001,700.321782250001,700.321782250001,703.3183777500017,703.3183777500017,704.3067900000024,1,1,0.845687374996487,0.12496154100517742,None,704.3076243329997,704.3077144999988,None,704.3078785830003,704.3079318329983,None,,,,,,,,,,,,,1,3,0,0,2024-08-14_10h09.27.508,rtmindeye,2024.1.5,None,2024-08-14 10h09.43.169831 -0400,
all_stimuli/shared1000_notspecial/notspecial_15025.png,16,0,0,0,0,3,1,"[9, 21, 31, 45, 56, 68, 69]",,,,,0,0,0,0,0,16,16,16,704.3245028750025,,,,,,,,,,,,,,,,,,,,,,,,,,,,,,,,,,,,,,,,704.3085041250015,704.3086796659991,704.3087007909999,704.3245028750025,704.3245028750025,704.3245028750025,704.3245028750025,707.3223661660013,707.3223661660013,708.3185640829979,1,1,0.7630081659954158,0.11105070800113026,None,708.3194809159977,708.3195708330022,None,708.319698583,708.3197611659998,None,,,,,,,,,,,,,1,3,0,0,2024-08-14_10h09.27.508,rtmindeye,2024.1.5,None,2024-08-14 10h09.43.169831 -0400,
all_stimuli/special515/special_13314.jpg,17,0,0,0,0,3,1,"[9, 21, 31, 45, 56, 68, 69]",,,,,0,0,0,0,0,17,17,17,708.3350439580026,,,,,,,,,,,,,,,,,,,,,,,,,,,,,,,,,,,,,,,,708.3202437910004,708.3204170410027,708.3204372079999,708.3350439580026,708.3350439580026,708.3350439580026,708.3350439580026,711.3222939999978,711.3222939999978,712.3191751249979,1,1,0.653476250001404,0.12202437499945518,None,712.320110624998,712.320213291001,None,712.3203686659981,712.3204227500028,None,712.3384926250001,712.3384926250001,,,,,,,,,,,1,3,0,0,2024-08-14_10h09.27.508,rtmindeye,2024.1.5,None,2024-08-14 10h09.43.169831 -0400,
all_stimuli/unchosen_nsd_1000_images/unchosen_8518_cocoid_70364.png,18,0,0,0,0,3,1,"[9, 21, 31, 45, 56, 68, 69]",,,,,0,0,0,0,0,18,18,18,712.3384926250001,,,,,,,,,,,,,,,,,,,,,,,,,,,,,,,,,,,,,,,,712.320988833002,712.3212624580046,712.3212948330038,712.3384926250001,712.3384926250001,712.3384926250001,712.3384926250001,715.3353948330041,715.3353948330041,716.3225602500024,1,1,0.7350691660030861,0.1260679999977583,None,716.3233857910018,716.3234725000002,None,716.3236271249989,716.3236774160032,None,,,,,,,,,,,,,1,3,0,0,2024-08-14_10h09.27.508,rtmindeye,2024.1.5,None,2024-08-14 10h09.43.169831 -0400,
all_stimuli/MST_pairs2/pair_15_19_0.png,19,0,0,0,0,3,1,"[9, 21, 31, 45, 56, 68, 69]",,,,,0,0,0,0,0,19,19,19,716.3410139999978,,,,,,,,,,,,,,,,,,,,,,,,,,,,,,,,,,,,,,,,716.3242539580024,716.3244035000025,716.3244247080002,716.3410139999978,716.3410139999978,716.3410139999978,716.3410139999978,719.3393825000021,719.3393825000021,720.3355979160042,1,1,0.7986560409990489,0.18496770899946569,None,720.3364768329993,720.3365822909982,None,720.3367161249989,720.336762040999,None,,,,,,,,,,,,,1,3,0,0,2024-08-14_10h09.27.508,rtmindeye,2024.1.5,None,2024-08-14 10h09.43.169831 -0400,
all_stimuli/special515/special_29886.jpg,20,0,0,0,0,3,1,"[9, 21, 31, 45, 56, 68, 69]",,,,,0,0,0,0,0,20,20,20,720.353299208,,,,,,,,,,,,,,,,,,,,,,,,,,,,,,,,,,,,,,,,720.3372666249998,720.3374401250039,720.3374579579977,720.353299208,720.353299208,720.353299208,720.353299208,723.3521787909995,723.3521787909995,724.3405639999983,1,1,0.656411541000125,0.11799700000119628,None,724.3414014160007,724.3414920830037,None,724.3416490829986,724.3416991659979,None,,,,,,,,,,,,,1,3,0,0,2024-08-14_10h09.27.508,rtmindeye,2024.1.5,None,2024-08-14 10h09.43.169831 -0400,
blank.jpg,21,1,0,0,0,3,1,"[9, 21, 31, 45, 56, 68, 69]",,,,,0,0,0,0,0,21,21,21,724.3689103330034,,,,,,,,,,,,,,,,,,,,,,,,,,,,,,,,,,,,,,,,724.3422697909991,724.342435874998,724.342457083003,724.3689103330034,724.3689103330034,724.3689103330034,724.3689103330034,727.3574809580023,727.3574809580023,728.3523415410018,None,0,,,None,728.3531924159979,728.3533046250013,None,728.3534664160034,728.3535236250027,None,,,,,,,,,,,,,1,3,0,0,2024-08-14_10h09.27.508,rtmindeye,2024.1.5,None,2024-08-14 10h09.43.169831 -0400,
all_stimuli/special515/special_40770.jpg,22,0,0,0,0,3,1,"[9, 21, 31, 45, 56, 68, 69]",,,,,0,0,0,0,0,22,22,22,728.3703043330024,,,,,,,,,,,,,,,,,,,,,,,,,,,,,,,,,,,,,,,,728.3540787500024,728.3542457500007,728.354263416004,728.3703043330024,728.3703043330024,728.3703043330024,728.3703043330024,731.3689616250049,731.3689616250049,732.3567876660018,1,1,0.6785655830026371,0.1409434999950463,None,732.3576495829984,732.3577544159998,None,732.3578855829983,732.3579382500029,None,,,,,,,,,,,,,1,3,0,0,2024-08-14_10h09.27.508,rtmindeye,2024.1.5,None,2024-08-14 10h09.43.169831 -0400,
all_stimuli/special515/special_26435.jpg,23,0,0,0,0,3,1,"[9, 21, 31, 45, 56, 68, 69]",,,,,0,0,0,0,0,23,23,23,732.3727671660017,,,,,,,,,,,,,,,,,,,,,,,,,,,,,,,,,,,,,,,,732.3585215830026,732.3587310000003,732.3587564160043,732.3727671660017,732.3727671660017,732.3727671660017,732.3727671660017,735.3688970000003,735.3688970000003,736.3572019159983,1,1,0.6880992500009597,0.13810150000063004,None,736.3580425000036,736.3581302500024,None,736.3582836249989,736.3583335410003,None,736.374525625004,736.374525625004,,,,,,,,,,,1,3,0,0,2024-08-14_10h09.27.508,rtmindeye,2024.1.5,None,2024-08-14 10h09.43.169831 -0400,
all_stimuli/shared1000_notspecial/notspecial_56290.png,24,0,0,0,0,3,1,"[9, 21, 31, 45, 56, 68, 69]",,,,,0,0,0,0,0,24,24,24,736.374525625004,,,,,,,,,,,,,,,,,,,,,,,,,,,,,,,,,,,,,,,,736.3588835830014,736.3590276250034,736.3590484160013,736.374525625004,736.374525625004,736.374525625004,736.374525625004,739.3728685829992,739.3728685829992,740.3690682079978,1,1,0.6074612910015276,0.13198900000134017,None,740.3699234579981,740.3700097910041,None,740.3701608330011,740.3702095000044,None,,,,,,,,,,,,,1,3,0,0,2024-08-14_10h09.27.508,rtmindeye,2024.1.5,None,2024-08-14 10h09.43.169831 -0400,
all_stimuli/special515/special_32053.jpg,25,0,0,0,0,3,1,"[9, 21, 31, 45, 56, 68, 69]",,,,,0,0,0,0,0,25,25,25,740.3865566250024,,,,,,,,,,,,,,,,,,,,,,,,,,,,,,,,,,,,,,,,740.3707580410046,740.3709151660005,740.3709325829986,740.3865566250024,740.3865566250024,740.3865566250024,740.3865566250024,743.3736485410045,743.3736485410045,744.3693257499981,1,1,0.6775228749975213,0.1599022079972201,None,744.3701168749976,744.3702193330028,None,744.3703490830012,744.3703952080032,None,744.3838596249989,744.3838596249989,,,,,,,,,,,1,3,0,0,2024-08-14_10h09.27.508,rtmindeye,2024.1.5,None,2024-08-14 10h09.43.169831 -0400,
all_stimuli/MST_pairs2/pair_37_w_airplane_interior2.jpg,26,0,0,0,0,3,1,"[9, 21, 31, 45, 56, 68, 69]",,,,,0,0,0,0,0,26,26,26,744.3838596249989,,,,,,,,,,,,,,,,,,,,,,,,,,,,,,,,,,,,,,,,744.3708792500038,744.3710017080011,744.3710215829997,744.3838596249989,744.3838596249989,744.3838596249989,744.3838596249989,747.3730805829982,747.3730805829982,748.3696127910007,1,1,0.6541789170005359,0.13500070800364483,None,748.3704184579983,748.3705014580046,None,748.3706305410014,748.3706750830024,None,748.3873387909989,748.3873387909989,,,,,,,,,,,1,3,0,0,2024-08-14_10h09.27.508,rtmindeye,2024.1.5,None,2024-08-14 10h09.43.169831 -0400,
all_stimuli/shared1000_notspecial/notspecial_26598.png,27,0,0,0,0,3,1,"[9, 21, 31, 45, 56, 68, 69]",,,,,0,0,0,0,0,27,27,27,748.3873387909989,,,,,,,,,,,,,,,,,,,,,,,,,,,,,,,,,,,,,,,,748.3711677079991,748.3712884580018,748.3713059580041,748.3873387909989,748.3873387909989,748.3873387909989,748.3873387909989,751.3858839160021,751.3858839160021,752.3731514160027,1,1,0.6707290830017882,0.11502187499718275,None,752.3739474160029,752.3740365000049,None,752.374196124998,752.3742459580026,None,,,,,,,,,,,,,1,3,0,0,2024-08-14_10h09.27.508,rtmindeye,2024.1.5,None,2024-08-14 10h09.43.169831 -0400,
all_stimuli/unchosen_nsd_1000_images/unchosen_8333_cocoid_19539.png,28,0,0,0,0,3,1,"[9, 21, 31, 45, 56, 68, 69]",,,,,0,0,0,0,0,28,28,28,752.3891637499983,,,,,,,,,,,,,,,,,,,,,,,,,,,,,,,,,,,,,,,,752.3748065830005,752.374957,752.3749787499983,752.3891637499983,752.3891637499983,752.3891637499983,752.3891637499983,755.3858796659988,755.3858796659988,756.3742926249979,1,1,0.696986916998867,0.12497570800042013,None,756.3750722080003,756.3751577080038,None,756.375308415998,756.3753582909994,None,756.3920854160024,756.3920854160024,,,,,,,,,,,1,3,0,0,2024-08-14_10h09.27.508,rtmindeye,2024.1.5,None,2024-08-14 10h09.43.169831 -0400,
all_stimuli/MST_pairs2/pair_11_15_89.png,29,0,0,0,0,3,1,"[9, 21, 31, 45, 56, 68, 69]",,,,,0,0,0,0,0,29,29,29,756.3920854160024,,,,,,,,,,,,,,,,,,,,,,,,,,,,,,,,,,,,,,,,756.3758874999985,756.3760298749985,756.3760510830034,756.3920854160024,756.3920854160024,756.3920854160024,756.3920854160024,759.3898361660031,759.3898361660031,760.3860615000012,1,1,0.778118332993472,0.1300121670064982,None,760.3869325409978,760.3870193330004,None,760.387188875,760.3872389579992,None,,,,,,,,,,,,,1,3,0,0,2024-08-14_10h09.27.508,rtmindeye,2024.1.5,None,2024-08-14 10h09.43.169831 -0400,
all_stimuli/special515/special_59585.jpg,30,0,0,0,0,3,1,"[9, 21, 31, 45, 56, 68, 69]",,,,,0,0,0,0,0,30,30,30,760.4027524580015,,,,,,,,,,,,,,,,,,,,,,,,,,,,,,,,,,,,,,,,760.3877771660045,760.3879275830041,760.3879490000036,760.4027524580015,760.4027524580015,760.4027524580015,760.4027524580015,763.3899370409999,763.3899370409999,764.3862077080048,1,1,0.8154902919995948,0.1520450830066693,None,764.387043666,764.3871302080006,None,764.3872967499992,764.3873466250006,None,764.398146958003,764.398146958003,,,,,,,,,,,1,3,0,0,2024-08-14_10h09.27.508,rtmindeye,2024.1.5,None,2024-08-14 10h09.43.169831 -0400,
blank.jpg,31,1,0,0,0,3,1,"[9, 21, 31, 45, 56, 68, 69]",,,,,0,0,0,0,0,31,31,31,764.398146958003,,,,,,,,,,,,,,,,,,,,,,,,,,,,,,,,,,,,,,,,764.3878941250005,764.3880379160037,764.388059416,764.398146958003,764.398146958003,764.398146958003,764.398146958003,767.3906730829985,767.3906730829985,768.3864527910046,None,0,,,None,768.3870071249985,768.3871037499994,None,768.3872640410045,768.3873243749986,None,768.403469249999,768.403469249999,,,,,,,,,,,1,3,0,0,2024-08-14_10h09.27.508,rtmindeye,2024.1.5,None,2024-08-14 10h09.43.169831 -0400,
all_stimuli/shared1000_notspecial/notspecial_4869.png,32,0,0,0,0,3,1,"[9, 21, 31, 45, 56, 68, 69]",,,,,0,0,0,0,0,32,32,32,768.403469249999,,,,,,,,,,,,,,,,,,,,,,,,,,,,,,,,,,,,,,,,768.3878715829997,768.3880144580035,768.3880355000001,768.403469249999,768.403469249999,768.403469249999,768.403469249999,771.3900450830042,771.3900450830042,772.386455083004,1,1,0.6629991660011001,0.1329723339949851,None,772.3873064159998,772.3873913749994,None,772.3875612499978,772.387609999998,None,772.402277000001,772.402277000001,,,,,,,,,,,1,3,0,0,2024-08-14_10h09.27.508,rtmindeye,2024.1.5,None,2024-08-14 10h09.43.169831 -0400,
all_stimuli/shared1000_notspecial/notspecial_25693.png,33,0,0,0,0,3,1,"[9, 21, 31, 45, 56, 68, 69]",,,,,0,0,0,0,0,33,33,33,772.402277000001,,,,,,,,,,,,,,,,,,,,,,,,,,,,,,,,,,,,,,,,772.388195790998,772.3883078750005,772.3883243750024,772.402277000001,772.402277000001,772.402277000001,772.402277000001,775.3914059160015,775.3914059160015,776.3864635830032,1,1,0.6771884999980102,0.1309659170001396,None,776.3872857500028,776.3873722080025,None,776.3875379579986,776.3875870830016,None,776.4030330410023,776.4030330410023,,,,,,,,,,,1,3,0,0,2024-08-14_10h09.27.508,rtmindeye,2024.1.5,None,2024-08-14 10h09.43.169831 -0400,
all_stimuli/special515/special_42946.jpg,34,0,0,0,0,3,1,"[9, 21, 31, 45, 56, 68, 69]",,,,,0,0,0,0,0,34,34,34,776.4030330410023,,,,,,,,,,,,,,,,,,,,,,,,,,,,,,,,,,,,,,,,776.388123165998,776.3882367080005,776.3882536660021,776.4030330410023,776.4030330410023,776.4030330410023,776.4030330410023,779.3907831250035,779.3907831250035,780.3863055830006,1,1,0.8454772500044783,0.1609976249965257,None,780.3871500000023,780.3872443750006,None,780.3873722499993,780.3874200409991,None,780.4032734580032,780.4032734580032,,,,,,,,,,,1,3,0,0,2024-08-14_10h09.27.508,rtmindeye,2024.1.5,None,2024-08-14 10h09.43.169831 -0400,
all_stimuli/shared1000_notspecial/notspecial_41482.png,35,0,0,0,0,3,1,"[9, 21, 31, 45, 56, 68, 69]",,,,,0,0,0,0,0,35,35,35,780.4032734580032,,,,,,,,,,,,,,,,,,,,,,,,,,,,,,,,,,,,,,,,780.3879077500023,780.3880411249993,780.388059416,780.4032734580032,780.4032734580032,780.4032734580032,780.4032734580032,783.3901059999989,783.3901059999989,784.3869199580004,1,1,0.7943291659976239,0.13697241699992446,None,784.3877137500021,784.3878033750007,None,784.3879285830044,784.387973375,None,784.4042751660018,784.4042751660018,,,,,,,,,,,1,3,0,0,2024-08-14_10h09.27.508,rtmindeye,2024.1.5,None,2024-08-14 10h09.43.169831 -0400,
all_stimuli/special515/special_67829.jpg,36,0,0,0,0,3,1,"[9, 21, 31, 45, 56, 68, 69]",,,,,0,0,0,0,0,36,36,36,784.4042751660018,,,,,,,,,,,,,,,,,,,,,,,,,,,,,,,,,,,,,,,,784.3887075829989,784.3889055830005,784.3889468749985,784.4042751660018,784.4042751660018,784.4042751660018,784.4042751660018,787.403024625004,787.403024625004,788.3907767080018,1,1,0.8203201249998529,0.12103337499866029,None,788.3914599580021,788.3915348750015,None,788.3916581660014,788.3916980409995,None,,,,,,,,,,,,,1,3,0,0,2024-08-14_10h09.27.508,rtmindeye,2024.1.5,None,2024-08-14 10h09.43.169831 -0400,
all_stimuli/special515/special_20442.jpg,37,0,0,0,0,3,1,"[9, 21, 31, 45, 56, 68, 69]",,,,,0,0,0,0,0,37,37,37,788.4062544160042,,,,,,,,,,,,,,,,,,,,,,,,,,,,,,,,,,,,,,,,788.3921355830025,788.3922738330002,788.3922906660009,788.4062544160042,788.4062544160042,788.4062544160042,788.4062544160042,791.4031914160005,791.4031914160005,792.3913117499978,1,1,0.7074666240005172,0.1370019170062733,None,792.3921075410035,792.3922006659996,None,792.3923324159987,792.3923790830013,None,792.406706791,792.406706791,,,,,,,,,,,1,3,0,0,2024-08-14_10h09.27.508,rtmindeye,2024.1.5,None,2024-08-14 10h09.43.169831 -0400,
all_stimuli/special515/special_25702.jpg,38,0,0,0,0,3,1,"[9, 21, 31, 45, 56, 68, 69]",,,,,0,0,0,0,0,38,38,38,792.406706791,,,,,,,,,,,,,,,,,,,,,,,,,,,,,,,,,,,,,,,,792.3929894579996,792.3932126250002,792.3932379580001,792.406706791,792.406706791,792.406706791,792.406706791,795.4031093329977,795.4031093329977,796.391297041002,1,1,0.770997208004701,0.1391132079952513,None,796.3921637500025,796.3922514160004,None,796.3924020409977,796.392456833004,None,796.4097969159993,796.4097969159993,,,,,,,,,,,1,3,0,0,2024-08-14_10h09.27.508,rtmindeye,2024.1.5,None,2024-08-14 10h09.43.169831 -0400,
all_stimuli/MST_pairs2/pair_17_21_0.png,39,0,0,0,0,3,1,"[9, 21, 31, 45, 56, 68, 69]",,,,,0,0,0,0,0,39,39,39,796.4097969159993,,,,,,,,,,,,,,,,,,,,,,,,,,,,,,,,,,,,,,,,796.3930088749985,796.3931560409983,796.3931772080032,796.4097969159993,796.4097969159993,796.4097969159993,796.4097969159993,799.406672916004,799.406672916004,800.4036810000034,1,1,0.7999733750039013,0.12303020800027298,None,800.4045636660012,800.4046634580009,None,800.4047948750012,800.4048408329982,None,,,,,,,,,,,,,1,3,0,0,2024-08-14_10h09.27.508,rtmindeye,2024.1.5,None,2024-08-14 10h09.43.169831 -0400,
all_stimuli/MST_pairs2/pair_7_10_89.png,40,0,0,0,0,3,1,"[9, 21, 31, 45, 56, 68, 69]",,,,,0,0,0,0,0,40,40,40,800.4261566249988,,,,,,,,,,,,,,,,,,,,,,,,,,,,,,,,,,,,,,,,800.4053465000034,800.406570666004,800.4065935830004,800.4261566249988,800.4261566249988,800.4261566249988,800.4261566249988,803.423869708,803.423869708,804.4071265829989,1,1,0.7706297080003424,0.14595904199813958,None,804.4079433330044,804.4080301659997,None,804.4081854579999,804.4082363330017,None,,,,,,,,,,,,,1,3,0,0,2024-08-14_10h09.27.508,rtmindeye,2024.1.5,None,2024-08-14 10h09.43.169831 -0400,
all_stimuli/special515/special_21601.jpg,41,0,0,0,0,3,1,"[9, 21, 31, 45, 56, 68, 69]",,,,,0,0,0,0,0,41,41,41,804.4229630000045,,,,,,,,,,,,,,,,,,,,,,,,,,,,,,,,,,,,,,,,804.4087824579983,804.4089323750013,804.4089542080037,804.4229630000045,804.4229630000045,804.4229630000045,804.4229630000045,807.4199230000013,807.4199230000013,808.4073286249986,1,1,0.870939874999749,0.15498970799671952,None,808.4081482500042,808.4082340829991,None,808.4083831660027,808.4084324580035,None,808.4249417910032,808.4249417910032,,,,,,,,,,,1,3,0,0,2024-08-14_10h09.27.508,rtmindeye,2024.1.5,None,2024-08-14 10h09.43.169831 -0400,
all_stimuli/unchosen_nsd_1000_images/unchosen_5823_cocoid_34094.png,42,0,0,0,0,3,1,"[9, 21, 31, 45, 56, 68, 69]",,,,,0,0,0,0,0,42,42,42,808.4249417910032,,,,,,,,,,,,,,,,,,,,,,,,,,,,,,,,,,,,,,,,808.4089912499985,808.4091357910002,808.4091575409984,808.4249417910032,808.4249417910032,808.4249417910032,808.4249417910032,811.4199479579984,811.4199479579984,812.4082631249985,1,1,0.6179927490011323,0.18699895899771946,None,812.4090816660027,812.409169999999,None,812.4093225830002,812.4093729579981,None,812.4260484999977,812.4260484999977,,,,,,,,,,,1,3,0,0,2024-08-14_10h09.27.508,rtmindeye,2024.1.5,None,2024-08-14 10h09.43.169831 -0400,
all_stimuli/MST_pairs2/pair_1_3_56.png,43,0,0,0,0,3,1,"[9, 21, 31, 45, 56, 68, 69]",,,,,0,0,0,0,0,43,43,43,812.4260484999977,,,,,,,,,,,,,,,,,,,,,,,,,,,,,,,,,,,,,,,,812.4099358750027,812.4100782500027,812.4100991660016,812.4260484999977,812.4260484999977,812.4260484999977,812.4260484999977,815.424142541,815.424142541,816.408686540999,1,1,0.7489792909982498,0.12497050000092713,None,816.4094696660031,816.4095555410022,None,816.4097052910001,816.4097547499987,None,816.4246376250012,816.4246376250012,,,,,,,,,,,1,3,0,0,2024-08-14_10h09.27.508,rtmindeye,2024.1.5,None,2024-08-14 10h09.43.169831 -0400,
all_stimuli/special515/special_9917.jpg,44,0,0,0,0,3,1,"[9, 21, 31, 45, 56, 68, 69]",,,,,0,0,0,0,0,44,44,44,816.4246376250012,,,,,,,,,,,,,,,,,,,,,,,,,,,,,,,,,,,,,,,,816.4102900409998,816.4104335829979,816.4104547910028,816.4246376250012,816.4246376250012,816.4246376250012,816.4246376250012,819.4201400829988,819.4201400829988,820.4075226249988,1,1,0.924471498998173,0.15196825000020908,None,820.4081554160002,820.4082243329976,None,820.4083505829985,820.4083905410007,None,820.4195042080028,820.4195042080028,,,,,,,,,,,1,3,0,0,2024-08-14_10h09.27.508,rtmindeye,2024.1.5,None,2024-08-14 10h09.43.169831 -0400,
blank.jpg,45,1,0,0,0,3,1,"[9, 21, 31, 45, 56, 68, 69]",,,,,0,0,0,0,0,45,45,45,820.4195042080028,,,,,,,,,,,,,,,,,,,,,,,,,,,,,,,,,,,,,,,,820.4088310830048,820.4089440410025,820.4089604160035,820.4195042080028,820.4195042080028,820.4195042080028,820.4195042080028,823.4073442910012,823.4073442910012,824.4039259580022,None,0,,,None,824.4045143330004,824.4046005830023,None,824.4047332080008,824.4047808329997,None,824.4210052080016,824.4210052080016,,,,,,,,,,,1,3,0,0,2024-08-14_10h09.27.508,rtmindeye,2024.1.5,None,2024-08-14 10h09.43.169831 -0400,
all_stimuli/shared1000_notspecial/notspecial_15492.png,46,0,0,0,0,3,1,"[9, 21, 31, 45, 56, 68, 69]",,,,,0,0,0,0,0,46,46,46,824.4210052080016,,,,,,,,,,,,,,,,,,,,,,,,,,,,,,,,,,,,,,,,824.4052592080043,824.4053781250041,824.4053954580013,824.4210052080016,824.4210052080016,824.4210052080016,824.4210052080016,827.4114384159984,827.4114384159984,828.4038515409993,1,1,0.836179040998104,0.14595816700602882,None,828.4046968750044,828.4047817500032,None,828.4049317079989,828.4049802910013,None,828.4222589159981,828.4222589159981,,,,,,,,,,,1,3,0,0,2024-08-14_10h09.27.508,rtmindeye,2024.1.5,None,2024-08-14 10h09.43.169831 -0400,
all_stimuli/MST_pairs2/pair_13_17_89.png,47,0,0,0,0,3,1,"[9, 21, 31, 45, 56, 68, 69]",,,,,0,0,0,0,0,47,47,47,828.4222589159981,,,,,,,,,,,,,,,,,,,,,,,,,,,,,,,,,,,,,,,,828.4055188330021,828.4056307080027,828.4056471660006,828.4222589159981,828.4222589159981,828.4222589159981,828.4222589159981,831.4201752500012,831.4201752500012,832.4079266250046,1,1,1.7629661669998313,0.16901462499663467,None,832.4087447909988,832.4088309159997,None,832.4090067080033,832.409057541001,None,,,,,,,,,,,,,1,3,0,0,2024-08-14_10h09.27.508,rtmindeye,2024.1.5,None,2024-08-14 10h09.43.169831 -0400,
all_stimuli/special515/special_13314.jpg,48,0,1,0,0,3,1,"[9, 21, 31, 45, 56, 68, 69]",,,,,0,0,0,0,0,48,48,48,832.4241796249989,,,,,,,,,,,,,,,,,,,,,,,,,,,,,,,,,,,,,,,,832.4096130830003,832.4097629579992,832.409783957999,832.4241796249989,832.4241796249989,832.4241796249989,832.4241796249989,835.4204315829993,835.4204315829993,836.4122871660002,2,1,0.845123875005811,0.15499295799963875,None,836.4129615830025,836.4130382500007,None,836.413158000003,836.4131972500036,None,,,,,,,,,,,,,1,3,0,0,2024-08-14_10h09.27.508,rtmindeye,2024.1.5,None,2024-08-14 10h09.43.169831 -0400,
all_stimuli/shared1000_notspecial/notspecial_35129.png,49,0,0,0,0,3,1,"[9, 21, 31, 45, 56, 68, 69]",,,,,0,0,0,0,0,49,49,49,836.4300702910041,,,,,,,,,,,,,,,,,,,,,,,,,,,,,,,,,,,,,,,,836.4136325,836.4137669999982,836.4137839579998,836.4300702910041,836.4300702910041,836.4300702910041,836.4300702910041,839.4243484580002,839.4243484580002,840.4209761660022,1,1,0.7272580829958315,0.14404820799973095,None,840.4219329160042,840.4220431659996,None,840.4221977499983,840.4222574579981,None,,,,,,,,,,,,,1,3,0,0,2024-08-14_10h09.27.508,rtmindeye,2024.1.5,None,2024-08-14 10h09.43.169831 -0400,
all_stimuli/shared1000_notspecial/notspecial_8318.png,50,0,0,0,0,3,1,"[9, 21, 31, 45, 56, 68, 69]",,,,,0,0,0,0,0,50,50,50,840.4387693329991,,,,,,,,,,,,,,,,,,,,,,,,,,,,,,,,,,,,,,,,840.4229261250002,840.4231486249992,840.4231820830028,840.4387693329991,840.4387693329991,840.4387693329991,840.4387693329991,843.4371643330014,843.4371643330014,844.4255290830042,1,1,0.9226584170028218,0.14396175000001676,None,844.4263332499977,844.4264239160038,None,844.4265619159996,844.426611750001,None,,,,,,,,,,,,,1,3,0,0,2024-08-14_10h09.27.508,rtmindeye,2024.1.5,None,2024-08-14 10h09.43.169831 -0400,
all_stimuli/unchosen_nsd_1000_images/unchosen_7019_cocoid_19605.png,51,0,0,0,0,3,1,"[9, 21, 31, 45, 56, 68, 69]",,,,,0,0,0,0,0,51,51,51,844.4427720000022,,,,,,,,,,,,,,,,,,,,,,,,,,,,,,,,,,,,,,,,844.4271616250044,844.4274349999978,844.4274618330019,844.4427720000022,844.4427720000022,844.4427720000022,844.4427720000022,847.4371450830004,847.4371450830004,848.4372778329998,1,1,0.7356334580035764,0.14405087499471847,None,848.4380735829982,848.4381595000013,None,848.4383075410005,848.4383577080007,None,,,,,,,,,,,,,1,3,0,0,2024-08-14_10h09.27.508,rtmindeye,2024.1.5,None,2024-08-14 10h09.43.169831 -0400,
all_stimuli/special515/special_42171.jpg,52,0,0,0,0,3,1,"[9, 21, 31, 45, 56, 68, 69]",,,,,0,0,0,0,0,52,52,52,848.4528982909978,,,,,,,,,,,,,,,,,,,,,,,,,,,,,,,,,,,,,,,,848.438888208002,848.4390382499987,848.439060208002,848.4528982909978,848.4528982909978,848.4528982909978,848.4528982909978,851.441072833004,851.441072833004,852.4376384159987,1,1,1.230672792000405,0.1609723329966073,None,852.4384409580016,852.4385226250015,None,852.4386520410044,852.4386977500035,None,852.4530772080034,852.4530772080034,,,,,,,,,,,1,3,0,0,2024-08-14_10h09.27.508,rtmindeye,2024.1.5,None,2024-08-14 10h09.43.169831 -0400,
all_stimuli/special515/special_59284.jpg,53,0,0,0,0,3,1,"[9, 21, 31, 45, 56, 68, 69]",,,,,0,0,0,0,0,53,53,53,852.4530772080034,,,,,,,,,,,,,,,,,,,,,,,,,,,,,,,,,,,,,,,,852.439177332999,852.4392980830016,852.4393154999998,852.4530772080034,852.4530772080034,852.4530772080034,852.4530772080034,855.4411085410029,855.4411085410029,856.4374830410015,1,1,0.7414347910016659,0.14801212499878602,None,856.4383058750027,856.4383914159989,None,856.4385586659992,856.4386072499983,None,856.4526184580027,856.4526184580027,,,,,,,,,,,1,3,0,0,2024-08-14_10h09.27.508,rtmindeye,2024.1.5,None,2024-08-14 10h09.43.169831 -0400,
all_stimuli/special515/special_31028.jpg,54,0,0,0,0,3,1,"[9, 21, 31, 45, 56, 68, 69]",,,,,0,0,0,0,0,54,54,54,856.4526184580027,,,,,,,,,,,,,,,,,,,,,,,,,,,,,,,,,,,,,,,,856.4391320830036,856.4392797910041,856.4393038330018,856.4526184580027,856.4526184580027,856.4526184580027,856.4526184580027,859.4419543750046,859.4419543750046,860.4379008750038,1,1,0.7250024160020985,0.14397416699648602,None,860.4387095409984,860.4387917499989,None,860.4389215830015,860.4389685409988,None,860.4552393330014,860.4552393330014,,,,,,,,,,,1,3,0,0,2024-08-14_10h09.27.508,rtmindeye,2024.1.5,None,2024-08-14 10h09.43.169831 -0400,
all_stimuli/shared1000_notspecial/notspecial_34089.png,55,0,0,0,0,3,1,"[9, 21, 31, 45, 56, 68, 69]",,,,,0,0,0,0,0,55,55,55,860.4552393330014,,,,,,,,,,,,,,,,,,,,,,,,,,,,,,,,,,,,,,,,860.4394580830049,860.4397437080042,860.4397796249978,860.4552393330014,860.4552393330014,860.4552393330014,860.4552393330014,863.454163082999,863.454163082999,864.4421120000043,1,1,0.8904108329952578,0.11906987499969546,None,864.4429350409991,864.4430283330003,None,864.4431894160007,864.4432388330024,None,,,,,,,,,,,,,1,3,0,0,2024-08-14_10h09.27.508,rtmindeye,2024.1.5,None,2024-08-14 10h09.43.169831 -0400,
blank.jpg,56,1,0,0,0,3,1,"[9, 21, 31, 45, 56, 68, 69]",,,,,0,0,0,0,0,56,56,56,864.4536181660005,,,,,,,,,,,,,,,,,,,,,,,,,,,,,,,,,,,,,,,,864.4438044159979,864.443973333,864.4439943329999,864.4536181660005,864.4536181660005,864.4536181660005,864.4536181660005,867.4414294160015,867.4414294160015,868.4381002500013,None,0,,,None,868.4386955000009,868.4387896250046,None,868.4389230829984,868.4389694999991,None,868.4554932500032,868.4554932500032,,,,,,,,,,,1,3,0,0,2024-08-14_10h09.27.508,rtmindeye,2024.1.5,None,2024-08-14 10h09.43.169831 -0400,
all_stimuli/shared1000_notspecial/notspecial_32643.png,57,0,0,0,0,3,1,"[9, 21, 31, 45, 56, 68, 69]",,,,,0,0,0,0,0,57,57,57,868.4554932500032,,,,,,,,,,,,,,,,,,,,,,,,,,,,,,,,,,,,,,,,868.439463499999,868.4396037500046,868.4396216660025,868.4554932500032,868.4554932500032,868.4554932500032,868.4554932500032,871.4541407910001,871.4541407910001,872.4408240000048,1,1,0.7572974989961949,0.15100733400322497,None,872.4414795000048,872.4415478750016,None,872.4416656660032,872.441704541001,None,,,,,,,,,,,,,1,3,0,0,2024-08-14_10h09.27.508,rtmindeye,2024.1.5,None,2024-08-14 10h09.43.169831 -0400,
all_stimuli/shared1000_notspecial/notspecial_62479.png,58,0,0,0,0,3,1,"[9, 21, 31, 45, 56, 68, 69]",,,,,0,0,0,0,0,58,58,58,872.4574039159997,,,,,,,,,,,,,,,,,,,,,,,,,,,,,,,,,,,,,,,,872.4421336660016,872.4422529160001,872.4422701250005,872.4574039159997,872.4574039159997,872.4574039159997,872.4574039159997,875.4541672080013,875.4541672080013,876.442198124998,1,1,1.3974675409990596,0.15300912499515107,None,876.4429706250012,876.4430560000037,None,876.4432027910007,876.4432522499992,None,876.4698882910016,876.4698882910016,,,,,,,,,,,1,3,0,0,2024-08-14_10h09.27.508,rtmindeye,2024.1.5,None,2024-08-14 10h09.43.169831 -0400,
all_stimuli/MST_pairs2/pair_31_nsd_694_1_cocoid_33866.png,59,0,0,0,0,3,1,"[9, 21, 31, 45, 56, 68, 69]",,,,,0,0,0,0,0,59,59,59,876.4698882910016,,,,,,,,,,,,,,,,,,,,,,,,,,,,,,,,,,,,,,,,876.4437832910044,876.4439264160028,876.4439477080014,876.4698882910016,876.4698882910016,876.4698882910016,876.4698882910016,879.4582287080048,879.4582287080048,880.4542481250028,1,1,1.3229976250004256,0.15505887500330573,None,880.4551102080004,880.4552122500027,None,880.4553430410015,880.4553892500044,None,,,,,,,,,,,,,1,3,0,0,2024-08-14_10h09.27.508,rtmindeye,2024.1.5,None,2024-08-14 10h09.43.169831 -0400,
all_stimuli/special515/special_9917.jpg,60,0,1,0,0,3,1,"[9, 21, 31, 45, 56, 68, 69]",,,,,0,0,0,0,0,60,60,60,880.4705797909992,,,,,,,,,,,,,,,,,,,,,,,,,,,,,,,,,,,,,,,,880.4558918750045,880.456048041,880.4560659999988,880.4705797909992,880.4705797909992,880.4705797909992,880.4705797909992,883.4577428330012,883.4577428330012,884.4547079160038,2,1,0.7823891660009394,0.15598095900350017,None,884.4555196250003,884.4556129160046,None,884.4557640830026,884.4558126659977,None,884.4731277079991,884.4731277079991,,,,,,,,,,,1,3,0,0,2024-08-14_10h09.27.508,rtmindeye,2024.1.5,None,2024-08-14 10h09.43.169831 -0400,
all_stimuli/shared1000_notspecial/notspecial_51051.png,61,0,0,0,0,3,1,"[9, 21, 31, 45, 56, 68, 69]",,,,,0,0,0,0,0,61,61,61,884.4731277079991,,,,,,,,,,,,,,,,,,,,,,,,,,,,,,,,,,,,,,,,884.4563404159999,884.4564878750025,884.4565089579992,884.4731277079991,884.4731277079991,884.4731277079991,884.4731277079991,887.4711565000034,887.4711565000034,888.4594022079982,1,1,0.8168998330002069,0.15202912499808008,None,888.460178416004,888.4602655409981,None,888.4604148750004,888.4604662499987,None,,,,,,,,,,,,,1,3,0,0,2024-08-14_10h09.27.508,rtmindeye,2024.1.5,None,2024-08-14 10h09.43.169831 -0400,
all_stimuli/special515/special_60845.jpg,62,0,0,0,0,3,1,"[9, 21, 31, 45, 56, 68, 69]",,,,,0,0,0,0,0,62,62,62,888.4747787910019,,,,,,,,,,,,,,,,,,,,,,,,,,,,,,,,,,,,,,,,888.4609990410027,888.4611567079992,888.4611784580047,888.4747787910019,888.4747787910019,888.4747787910019,888.4747787910019,891.4711670410034,891.4711670410034,892.4592968330035,1,1,0.6662804580046213,0.15596970899787266,None,892.4601258330003,892.4602125829988,None,892.4603610830018,892.460411,None,892.4758760410041,892.4758760410041,,,,,,,,,,,1,3,0,0,2024-08-14_10h09.27.508,rtmindeye,2024.1.5,None,2024-08-14 10h09.43.169831 -0400,
all_stimuli/MST_pairs2/pair_47_w_roller_coaster2.jpg,63,0,0,0,0,3,1,"[9, 21, 31, 45, 56, 68, 69]",,,,,0,0,0,0,0,63,63,63,892.4758760410041,,,,,,,,,,,,,,,,,,,,,,,,,,,,,,,,,,,,,,,,892.4609561660036,892.4611030000015,892.461129000003,892.4758760410041,892.4758760410041,892.4758760410041,892.4758760410041,895.4711473749994,895.4711473749994,896.4586134580022,1,1,0.6923199579978245,0.156942749999871,None,896.459426333,896.4595144999985,None,896.4596632500034,896.4597128329988,None,896.4775229580046,896.4775229580046,,,,,,,,,,,1,3,0,0,2024-08-14_10h09.27.508,rtmindeye,2024.1.5,None,2024-08-14 10h09.43.169831 -0400,
all_stimuli/unchosen_nsd_1000_images/unchosen_2580_cocoid_36342.png,64,0,0,0,0,3,1,"[9, 21, 31, 45, 56, 68, 69]",,,,,0,0,0,0,0,64,64,64,896.4775229580046,,,,,,,,,,,,,,,,,,,,,,,,,,,,,,,,,,,,,,,,896.4602729580001,896.4604157499998,896.4604370000015,896.4775229580046,896.4775229580046,896.4775229580046,896.4775229580046,899.4751021659977,899.4751021659977,900.4713792080001,1,1,0.6466634160024114,0.15602779199980432,None,900.4723926250008,900.4724883750023,None,900.4726319160036,900.4726774160008,None,,,,,,,,,,,,,1,3,0,0,2024-08-14_10h09.27.508,rtmindeye,2024.1.5,None,2024-08-14 10h09.43.169831 -0400,
all_stimuli/shared1000_notspecial/notspecial_52216.png,65,0,0,0,0,3,1,"[9, 21, 31, 45, 56, 68, 69]",,,,,0,0,0,0,0,65,65,65,900.4889910409984,,,,,,,,,,,,,,,,,,,,,,,,,,,,,,,,,,,,,,,,900.4731615409983,900.4733497499983,900.4733695000032,900.4889910409984,900.4889910409984,900.4889910409984,900.4889910409984,903.4879456249982,903.4879456249982,904.4758504159981,1,1,0.7022342079944792,0.15806745800364297,None,904.4766329999984,904.4767201249997,None,904.4768705000024,904.4769200829978,None,,,,,,,,,,,,,1,3,0,0,2024-08-14_10h09.27.508,rtmindeye,2024.1.5,None,2024-08-14 10h09.43.169831 -0400,
all_stimuli/MST_pairs2/pair_37_w_airplane_interior2.jpg,66,0,1,0,0,3,1,"[9, 21, 31, 45, 56, 68, 69]",,,,,0,0,0,0,0,66,66,66,904.5046637080013,,,,,,,,,,,,,,,,,,,,,,,,,,,,,,,,,,,,,,,,904.4774519580023,904.4776125830031,904.4776332910042,904.5046637080013,904.5046637080013,904.5046637080013,904.5046637080013,907.4918688329999,907.4918688329999,908.4880455829989,2,1,2.1476649579999503,0.1660482500010403,None,908.488913250003,908.4889995830017,None,908.4891551250039,908.4892042499996,None,,,,,,,,,,,,,1,3,0,0,2024-08-14_10h09.27.508,rtmindeye,2024.1.5,None,2024-08-14 10h09.43.169831 -0400,
all_stimuli/closest_pairs2/set_2_closest_to_pair_37_image_cocoid_25304.png,67,0,0,0,0,3,1,"[9, 21, 31, 45, 56, 68, 69]",,,,,0,0,0,0,0,67,67,67,908.5050160000028,,,,,,,,,,,,,,,,,,,,,,,,,,,,,,,,,,,,,,,,908.4897533750045,908.4899023329999,908.4899233329998,908.5050160000028,908.5050160000028,908.5050160000028,908.5050160000028,911.4919048330048,911.4919048330048,912.4886440410046,1,1,0.8803994580011931,0.15294912500394275,None,912.489521083,912.4896245409982,None,912.4897722500027,912.489820499999,None,912.499942082999,912.499942082999,,,,,,,,,,,1,3,0,0,2024-08-14_10h09.27.508,rtmindeye,2024.1.5,None,2024-08-14 10h09.43.169831 -0400,
blank.jpg,68,1,0,0,0,3,1,"[9, 21, 31, 45, 56, 68, 69]",,,,,0,0,0,0,0,68,68,68,912.499942082999,,,,,,,,,,,,,,,,,,,,,,,,,,,,,,,,,,,,,,,,912.4903370410029,912.4904778330019,912.4904960409986,912.499942082999,912.499942082999,912.499942082999,912.499942082999,915.4929716250044,915.4929716250044,916.4889439580002,None,0,,,None,916.4895399579982,916.4896429159999,None,916.4897745830021,916.4898377080026,None,916.4993826249993,916.4993826249993,,,,,,,,,,,1,3,0,0,2024-08-14_10h09.27.508,rtmindeye,2024.1.5,None,2024-08-14 10h09.43.169831 -0400,
blank.jpg,69,1,0,1,0,3,0,"[9, 21, 31, 45, 56, 68, 69]",,,,,0,0,0,0,0,69,69,69,916.4993826249993,,,,,,,,,,,,,,,,,,,,,,,,,,,,,,,,,,,,,,,,916.4904462909981,916.4906107499992,916.490631749999,916.4993826249993,916.4993826249993,916.4993826249993,916.4993826249993,919.4919194160029,919.4919194160029,920.488824,None,0,,,None,920.4894275830011,992.6779740409984,1,992.6786793749998,1037.5581209579977,equal,920.5113239999991,920.5113239999991,920.5113239999991,920.5113239999991,72.16226045800431,None,992.6887693750032,992.6887693750032,44.86146070800169,None,,,1,3,0,0,2024-08-14_10h09.27.508,rtmindeye,2024.1.5,None,2024-08-14 10h09.43.169831 -0400,
,,,,,,,,,,,,,0,0,0,0,,,,,,,,,,,,,,,,,,,,,,,,,,,,,,,,,,,,,,,,,,,,,,,,,,,,,,,,,,,,,,,,,,,,,,,,,,,,,,1,3,0,0,2024-08-14_10h09.27.508,rtmindeye,2024.1.5,None,2024-08-14 10h09.43.169831 -0400,
all_stimuli/shared1000_notspecial/notspecial_6713.png,0,0,0,0,1,3,1,"[9, 21, 31, 45, 56, 68, 69]",,,,,1,0,1,0,0,0,0,0,1037.5945026250047,,,,,,,,,,,,,,,,,,,,,,,,,,,,,,,,,,,,,,,,1037.579108291,1037.579724041003,1037.5797442080002,1037.5945026250047,1037.5945026250047,1037.5945026250047,1037.5945026250047,1040.5898964160006,1040.5898964160006,1041.5780039579986,1,1,0.7436277919987333,0.12702633300068555,None,1041.5793915410031,1041.579489415999,None,1041.5798224579994,1041.579877832999,None,1041.594243915999,1041.594243915999,,,,,,,,,,,1,3,0,0,2024-08-14_10h09.27.508,rtmindeye,2024.1.5,None,2024-08-14 10h09.43.169831 -0400,
all_stimuli/special515/special_40924.jpg,1,0,0,0,1,3,1,"[9, 21, 31, 45, 56, 68, 69]",,,,,1,0,1,0,0,1,1,1,1041.594243915999,,,,,,,,,,,,,,,,,,,,,,,,,,,,,,,,,,,,,,,,1041.5804648749981,1041.5805790829982,1041.5805962500017,1041.594243915999,1041.594243915999,1041.594243915999,1041.594243915999,1044.5899118750021,1044.5899118750021,1045.5780247500006,1,1,0.60797758300032,0.1699465420024353,None,1045.5788305829992,1045.5789197080012,None,1045.5790664160013,1045.5791151250014,None,1045.5937227500035,1045.5937227500035,,,,,,,,,,,1,3,0,0,2024-08-14_10h09.27.508,rtmindeye,2024.1.5,None,2024-08-14 10h09.43.169831 -0400,
all_stimuli/special515/special_32053.jpg,2,0,1,0,1,3,1,"[9, 21, 31, 45, 56, 68, 69]",,,,,1,0,1,0,0,2,2,2,1045.5937227500035,,,,,,,,,,,,,,,,,,,,,,,,,,,,,,,,,,,,,,,,1045.5796792500041,1045.579823416003,1045.5798475000047,1045.5937227500035,1045.5937227500035,1045.5937227500035,1045.5937227500035,1048.5899341250042,1048.5899341250042,1049.5778362080018,2,1,1.4936425000050804,0.17389524999452988,None,1049.578651666001,1049.5787481660009,None,1049.578879958004,1049.5789281660036,None,1049.5934382909982,1049.5934382909982,,,,,,,,,,,1,3,0,0,2024-08-14_10h09.27.508,rtmindeye,2024.1.5,None,2024-08-14 10h09.43.169831 -0400,
all_stimuli/special515/special_21601.jpg,3,0,1,0,1,3,1,"[9, 21, 31, 45, 56, 68, 69]",,,,,1,0,1,0,0,3,3,3,1049.5934382909982,,,,,,,,,,,,,,,,,,,,,,,,,,,,,,,,,,,,,,,,1049.579577083001,1049.579769750002,1049.5797992080043,1049.5934382909982,1049.5934382909982,1049.5934382909982,1049.5934382909982,1052.5899451250007,1052.5899451250007,1053.5775579160036,2,1,0.8718969999972614,0.1579924160032533,None,1053.5783413329991,1053.5784303750042,None,1053.5785798750003,1053.5786294159989,None,1053.5952437500018,1053.5952437500018,,,,,,,,,,,1,3,0,0,2024-08-14_10h09.27.508,rtmindeye,2024.1.5,None,2024-08-14 10h09.43.169831 -0400,
all_stimuli/unchosen_nsd_1000_images/unchosen_6647_cocoid_43085.png,4,0,0,0,1,3,1,"[9, 21, 31, 45, 56, 68, 69]",,,,,1,0,1,0,0,4,4,4,1053.5952437500018,,,,,,,,,,,,,,,,,,,,,,,,,,,,,,,,,,,,,,,,1053.5792058330044,1053.579348666004,1053.5793697910049,1053.5952437500018,1053.5952437500018,1053.5952437500018,1053.5952437500018,1056.5899124999996,1056.5899124999996,1057.5904329580007,1,1,1.1592166659975192,0.1559297499989043,None,1057.591310666001,1057.5914076660047,None,1057.5915458750023,1057.5915946250025,None,,,,,,,,,,,,,1,3,0,0,2024-08-14_10h09.27.508,rtmindeye,2024.1.5,None,2024-08-14 10h09.43.169831 -0400,
all_stimuli/special515/special_22530.jpg,5,0,0,0,1,3,1,"[9, 21, 31, 45, 56, 68, 69]",,,,,1,0,1,0,0,5,5,5,1057.6076772500019,,,,,,,,,,,,,,,,,,,,,,,,,,,,,,,,,,,,,,,,1057.5922061250021,1057.5923942500012,1057.592419875,1057.6076772500019,1057.6076772500019,1057.6076772500019,1057.6076772500019,1060.5953553330037,1060.5953553330037,1061.5904733330026,1,1,1.107756707999215,0.1890035410033306,None,1061.5912507500034,1061.5913377910038,None,1061.591487208003,1061.5915347909977,None,1061.6222734580006,1061.6222734580006,,,,,,,,,,,1,3,0,0,2024-08-14_10h09.27.508,rtmindeye,2024.1.5,None,2024-08-14 10h09.43.169831 -0400,
all_stimuli/MST_pairs2/pair_25_nsd_206_2_cocoid_32098.png,6,0,0,0,1,3,1,"[9, 21, 31, 45, 56, 68, 69]",,,,,1,0,1,0,0,6,6,6,1061.6222734580006,,,,,,,,,,,,,,,,,,,,,,,,,,,,,,,,,,,,,,,,1061.5920572500036,1061.5921998330014,1061.592220874998,1061.6222734580006,1061.6222734580006,1061.6222734580006,1061.6222734580006,1064.6108765829995,1064.6108765829995,1065.594792541,1,1,0.8772545419997186,0.1479607910005143,None,1065.5956238330036,1065.5957177079981,None,1065.5958716660025,1065.5959216250048,None,,,,,,,,,,,,,1,3,0,0,2024-08-14_10h09.27.508,rtmindeye,2024.1.5,None,2024-08-14 10h09.43.169831 -0400,
all_stimuli/shared1000_notspecial/notspecial_13230.png,7,0,0,0,1,3,1,"[9, 21, 31, 45, 56, 68, 69]",,,,,1,0,1,0,0,7,7,7,1065.6115756660001,,,,,,,,,,,,,,,,,,,,,,,,,,,,,,,,,,,,,,,,1065.5964740830022,1065.5966387080043,1065.5966594159981,1065.6115756660001,1065.6115756660001,1065.6115756660001,1065.6115756660001,1068.6068941659978,1068.6068941659978,1069.594288332999,1,1,0.8449828750017332,0.15799970799707808,None,1069.5949094160023,1069.5949790829982,None,1069.5951004160015,1069.5951377500023,None,1069.610087000001,1069.610087000001,,,,,,,,,,,1,3,0,0,2024-08-14_10h09.27.508,rtmindeye,2024.1.5,None,2024-08-14 10h09.43.169831 -0400,
all_stimuli/shared1000_notspecial/notspecial_8274.png,8,0,0,0,1,3,1,"[9, 21, 31, 45, 56, 68, 69]",,,,,1,0,1,0,0,8,8,8,1069.610087000001,,,,,,,,,,,,,,,,,,,,,,,,,,,,,,,,,,,,,,,,1069.5955759999997,1069.5956860410006,1069.5957021659997,1069.610087000001,1069.610087000001,1069.610087000001,1069.610087000001,1072.6069305830024,1072.6069305830024,1073.5940801660036,1,1,0.9045270410060766,0.1639699999941513,None,1073.5947081249979,1073.5947775410023,None,1073.5949067910042,1073.5949448329993,None,1073.6064078330019,1073.6064078330019,,,,,,,,,,,1,3,0,0,2024-08-14_10h09.27.508,rtmindeye,2024.1.5,None,2024-08-14 10h09.43.169831 -0400,
blank.jpg,9,1,0,0,1,3,1,"[9, 21, 31, 45, 56, 68, 69]",,,,,1,0,1,0,0,9,9,9,1073.6064078330019,,,,,,,,,,,,,,,,,,,,,,,,,,,,,,,,,,,,,,,,1073.5953635410042,1073.5954753330006,1073.5954915830007,1073.6064078330019,1073.6064078330019,1073.6064078330019,1073.6064078330019,1076.5951762910045,1076.5951762910045,1077.5907320410042,None,0,,,None,1077.5913005000039,1077.5913860830042,None,1077.5915588749995,1077.5916066249993,None,1077.6061287499979,1077.6061287499979,,,,,,,,,,,1,3,0,0,2024-08-14_10h09.27.508,rtmindeye,2024.1.5,None,2024-08-14 10h09.43.169831 -0400,
all_stimuli/special515/special_26435.jpg,10,0,1,0,1,3,1,"[9, 21, 31, 45, 56, 68, 69]",,,,,1,0,1,0,0,10,10,10,1077.6061287499979,,,,,,,,,,,,,,,,,,,,,,,,,,,,,,,,,,,,,,,,1077.5921438330042,1077.5922885410037,1077.5923096250044,1077.6061287499979,1077.6061287499979,1077.6061287499979,1077.6061287499979,1080.5952668750033,1080.5952668750033,1081.5908659999986,2,1,0.9335317079967353,0.15098225000110688,None,1081.5917133330004,1081.591802875002,None,1081.5919540000032,1081.5920027910033,None,1081.6068758750043,1081.6068758750043,,,,,,,,,,,1,3,0,0,2024-08-14_10h09.27.508,rtmindeye,2024.1.5,None,2024-08-14 10h09.43.169831 -0400,
all_stimuli/special515/special_59284.jpg,11,0,1,0,1,3,1,"[9, 21, 31, 45, 56, 68, 69]",,,,,1,0,1,0,0,11,11,11,1081.6068758750043,,,,,,,,,,,,,,,,,,,,,,,,,,,,,,,,,,,,,,,,1081.5925216250034,1081.5926357499993,1081.5926527499978,1081.6068758750043,1081.6068758750043,1081.6068758750043,1081.6068758750043,1084.5943889580012,1084.5943889580012,1085.5908963330003,2,1,0.8578366660003667,0.18003375000262167,None,1085.5917239580012,1085.5918159159992,None,1085.5919424579988,1085.5919875830004,None,1085.6081361660035,1085.6081361660035,,,,,,,,,,,1,3,0,0,2024-08-14_10h09.27.508,rtmindeye,2024.1.5,None,2024-08-14 10h09.43.169831 -0400,
all_stimuli/shared1000_notspecial/notspecial_49923.png,12,0,0,0,1,3,1,"[9, 21, 31, 45, 56, 68, 69]",,,,,1,0,1,0,0,12,12,12,1085.6081361660035,,,,,,,,,,,,,,,,,,,,,,,,,,,,,,,,,,,,,,,,1085.592474791003,1085.5925990410033,1085.5926164580014,1085.6081361660035,1085.6081361660035,1085.6081361660035,1085.6081361660035,1088.6071542909995,1088.6071542909995,1089.5911369160021,1,1,1.0846890000029816,0.15395591600099578,None,1089.5919676249978,1089.5920613749986,None,1089.5921896250002,1089.5922332080008,None,1089.609007416002,1089.609007416002,,,,,,,,,,,1,3,0,0,2024-08-14_10h09.27.508,rtmindeye,2024.1.5,None,2024-08-14 10h09.43.169831 -0400,
all_stimuli/special515/special_27878.jpg,13,0,0,0,1,3,1,"[9, 21, 31, 45, 56, 68, 69]",,,,,1,0,1,0,0,13,13,13,1089.609007416002,,,,,,,,,,,,,,,,,,,,,,,,,,,,,,,,,,,,,,,,1089.5930391250004,1089.5932392500035,1089.5932797080022,1089.609007416002,1089.609007416002,1089.609007416002,1089.609007416002,1092.607383333001,1092.607383333001,1093.5945028330025,1,1,0.8348546249981155,0.15103254099813057,None,1093.595154540999,1093.5952252499992,None,1093.5953435410047,1093.595382915999,None,,,,,,,,,,,,,1,3,0,0,2024-08-14_10h09.27.508,rtmindeye,2024.1.5,None,2024-08-14 10h09.43.169831 -0400,
all_stimuli/closest_pairs2/set_2_closest_to_pair_23_image_cocoid_10191.png,14,0,0,0,1,3,1,"[9, 21, 31, 45, 56, 68, 69]",,,,,1,0,1,0,0,14,14,14,1093.6105798749995,,,,,,,,,,,,,,,,,,,,,,,,,,,,,,,,,,,,,,,,1093.5958215409992,1093.5959397500046,1093.5959559160037,1093.6105798749995,1093.6105798749995,1093.6105798749995,1093.6105798749995,1096.607176999998,1096.607176999998,1097.5948344159988,2,0,1.6063652079974418,0.1449755420035217,None,1097.595634958001,1097.595721083002,None,1097.5958686660015,1097.5959165000022,None,1097.6110773330001,1097.6110773330001,,,,,,,,,,,1,3,0,0,2024-08-14_10h09.27.508,rtmindeye,2024.1.5,None,2024-08-14 10h09.43.169831 -0400,
all_stimuli/MST_pairs2/pair_1_3_56.png,15,0,1,0,1,3,1,"[9, 21, 31, 45, 56, 68, 69]",,,,,1,0,1,0,0,15,15,15,1097.6110773330001,,,,,,,,,,,,,,,,,,,,,,,,,,,,,,,,,,,,,,,,1097.5964634160046,1097.5965820409983,1097.5966014580044,1097.6110773330001,1097.6110773330001,1097.6110773330001,1097.6110773330001,1100.607358082998,1100.607358082998,1101.5957545409983,2,1,1.1209047919983277,0.14001804099825677,None,1101.5966766249985,1101.596764957998,None,1101.5969183749985,1101.596983000003,None,1101.6128519999984,1101.6128519999984,,,,,,,,,,,1,3,0,0,2024-08-14_10h09.27.508,rtmindeye,2024.1.5,None,2024-08-14 10h09.43.169831 -0400,
all_stimuli/shared1000_notspecial/notspecial_52527.png,16,0,0,0,1,3,1,"[9, 21, 31, 45, 56, 68, 69]",,,,,1,0,1,0,0,16,16,16,1101.6128519999984,,,,,,,,,,,,,,,,,,,,,,,,,,,,,,,,,,,,,,,,1101.597850625003,1101.5980501660015,1101.5980798750024,1101.6128519999984,1101.6128519999984,1101.6128519999984,1101.6128519999984,1104.6113433330029,1104.6113433330029,1105.6076155000046,2,0,1.4432308329996886,0.15993929199612467,None,1105.6084430830015,1105.608541624999,None,1105.608670540998,1105.6087221249982,None,,,,,,,,,,,,,1,3,0,0,2024-08-14_10h09.27.508,rtmindeye,2024.1.5,None,2024-08-14 10h09.43.169831 -0400,
all_stimuli/closest_pairs2/set_1_closest_to_pair_27_image_cocoid_71063.png,17,0,0,0,1,3,1,"[9, 21, 31, 45, 56, 68, 69]",,,,,1,0,1,0,0,17,17,17,1105.6237891249984,,,,,,,,,,,,,,,,,,,,,,,,,,,,,,,,,,,,,,,,1105.6095266659977,1105.6097171660003,1105.6097415830009,1105.6237891249984,1105.6237891249984,1105.6237891249984,1105.6237891249984,1108.6113172500045,1108.6113172500045,1109.6079494160003,1,1,0.8242803739994997,0.1450505839966354,None,1109.6087344160042,1109.608821624999,None,1109.608954000003,1109.6090007079983,None,1109.6254460409982,1109.6254460409982,,,,,,,,,,,1,3,0,0,2024-08-14_10h09.27.508,rtmindeye,2024.1.5,None,2024-08-14 10h09.43.169831 -0400,
all_stimuli/shared1000_notspecial/notspecial_57822.png,18,0,0,0,1,3,1,"[9, 21, 31, 45, 56, 68, 69]",,,,,1,0,1,0,0,18,18,18,1109.6254460409982,,,,,,,,,,,,,,,,,,,,,,,,,,,,,,,,,,,,,,,,1109.6094958329995,1109.6096160410016,1109.6096335410039,1109.6254460409982,1109.6254460409982,1109.6254460409982,1109.6254460409982,1112.6241966250018,1112.6241966250018,1113.6114510830012,1,1,0.888740999995207,0.15792812500149012,None,1113.6120722499982,1113.6121423330042,None,1113.6122600410017,1113.6123000830048,None,,,,,,,,,,,,,1,3,0,0,2024-08-14_10h09.27.508,rtmindeye,2024.1.5,None,2024-08-14 10h09.43.169831 -0400,
all_stimuli/special515/special_41653.jpg,19,0,0,0,1,3,1,"[9, 21, 31, 45, 56, 68, 69]",,,,,1,0,1,0,0,19,19,19,1113.6274814159988,,,,,,,,,,,,,,,,,,,,,,,,,,,,,,,,,,,,,,,,1113.6127635410012,1113.6128817499994,1113.6129009580036,1113.6274814159988,1113.6274814159988,1113.6274814159988,1113.6274814159988,1116.6241736250013,1116.6241736250013,1117.6116535410038,2,0,1.6067798330041114,0.15498599999409635,None,1117.612442083002,1117.6125322080043,None,1117.6126922910044,1117.612739958,None,1117.628772832999,1117.628772832999,,,,,,,,,,,1,3,0,0,2024-08-14_10h09.27.508,rtmindeye,2024.1.5,None,2024-08-14 10h09.43.169831 -0400,
all_stimuli/shared1000_notspecial/notspecial_29919.png,20,0,0,0,1,3,1,"[9, 21, 31, 45, 56, 68, 69]",,,,,1,0,1,0,0,20,20,20,1117.628772832999,,,,,,,,,,,,,,,,,,,,,,,,,,,,,,,,,,,,,,,,1117.6132882500024,1117.6134318330005,1117.6134529999981,1117.628772832999,1117.628772832999,1117.628772832999,1117.628772832999,1120.624202541003,1120.624202541003,1121.6123198330024,1,1,0.8974740420017042,0.14897820799524197,None,1121.6131247080048,1121.6132142499991,None,1121.6133614999999,1121.6134100409981,None,1121.623662375001,1121.623662375001,,,,,,,,,,,1,3,0,0,2024-08-14_10h09.27.508,rtmindeye,2024.1.5,None,2024-08-14 10h09.43.169831 -0400,
blank.jpg,21,1,0,0,1,3,1,"[9, 21, 31, 45, 56, 68, 69]",,,,,1,0,1,0,0,21,21,21,1121.623662375001,,,,,,,,,,,,,,,,,,,,,,,,,,,,,,,,,,,,,,,,1121.613939625,1121.6140503749994,1121.6140693749985,1121.623662375001,1121.623662375001,1121.623662375001,1121.623662375001,1124.6126705409988,1124.6126705409988,1125.6083450000006,None,0,,,None,1125.6089339160026,1125.6090143330002,None,1125.6091508750033,1125.6091979580015,None,1125.626528875,1125.626528875,,,,,,,,,,,1,3,0,0,2024-08-14_10h09.27.508,rtmindeye,2024.1.5,None,2024-08-14 10h09.43.169831 -0400,
all_stimuli/closest_pairs2/set_3_closest_to_pair_15_image_cocoid_53252.png,22,0,0,0,1,3,1,"[9, 21, 31, 45, 56, 68, 69]",,,,,1,0,1,0,0,22,22,22,1125.626528875,,,,,,,,,,,,,,,,,,,,,,,,,,,,,,,,,,,,,,,,1125.609754875004,1125.6099573329993,1125.6099854999993,1125.626528875,1125.626528875,1125.626528875,1125.626528875,1128.6244197080014,1128.6244197080014,1129.6115117080044,1,1,0.8938931240045349,0.15196383399597835,None,1129.612129000001,1129.6121980000025,None,1129.6123149160048,1129.612352958,None,,,,,,,,,,,,,1,3,0,0,2024-08-14_10h09.27.508,rtmindeye,2024.1.5,None,2024-08-14 10h09.43.169831 -0400,
all_stimuli/special515/special_32910.jpg,23,0,0,0,1,3,1,"[9, 21, 31, 45, 56, 68, 69]",,,,,1,0,1,0,0,23,23,23,1129.6277996659992,,,,,,,,,,,,,,,,,,,,,,,,,,,,,,,,,,,,,,,,1129.612772665998,1129.613173040998,1129.6131902499983,1129.6277996659992,1129.6277996659992,1129.6277996659992,1129.6277996659992,1132.6246927079992,1132.6246927079992,1133.612691125003,1,1,0.599646999995457,0.15501183299784316,None,1133.6135180830024,1133.6136052500005,None,1133.6137542080032,1133.613802083004,None,1133.6302199580023,1133.6302199580023,,,,,,,,,,,1,3,0,0,2024-08-14_10h09.27.508,rtmindeye,2024.1.5,None,2024-08-14 10h09.43.169831 -0400,
all_stimuli/shared1000_notspecial/notspecial_21318.png,24,0,0,0,1,3,1,"[9, 21, 31, 45, 56, 68, 69]",,,,,1,0,1,0,0,24,24,24,1133.6302199580023,,,,,,,,,,,,,,,,,,,,,,,,,,,,,,,,,,,,,,,,1133.6143642910029,1133.6145089580023,1133.6145298330011,1133.6302199580023,1133.6302199580023,1133.6302199580023,1133.6302199580023,1136.6280259160048,1136.6280259160048,1137.6249072499995,1,1,0.7122227500003646,0.14800458300305763,None,1137.6257718330016,1137.6258657500002,None,1137.6259992909982,1137.6260448329995,None,,,,,,,,,,,,,1,3,0,0,2024-08-14_10h09.27.508,rtmindeye,2024.1.5,None,2024-08-14 10h09.43.169831 -0400,
all_stimuli/unchosen_nsd_1000_images/unchosen_4580_cocoid_51652.png,25,0,0,0,1,3,1,"[9, 21, 31, 45, 56, 68, 69]",,,,,1,0,1,0,0,25,25,25,1137.6420790000047,,,,,,,,,,,,,,,,,,,,,,,,,,,,,,,,,,,,,,,,1137.6265340410027,1137.6268236250035,1137.6268662910006,1137.6420790000047,1137.6420790000047,1137.6420790000047,1137.6420790000047,1140.6294723750034,1140.6294723750034,1141.6251506250046,1,1,0.8404804579986376,0.12204541700339178,None,1141.6259767080046,1141.626067916004,None,1141.6261957500028,1141.6262466660046,None,1141.6423047909993,1141.6423047909993,,,,,,,,,,,1,3,0,0,2024-08-14_10h09.27.508,rtmindeye,2024.1.5,None,2024-08-14 10h09.43.169831 -0400,
all_stimuli/shared1000_notspecial/notspecial_24740.png,26,0,0,0,1,3,1,"[9, 21, 31, 45, 56, 68, 69]",,,,,1,0,1,0,0,26,26,26,1141.6423047909993,,,,,,,,,,,,,,,,,,,,,,,,,,,,,,,,,,,,,,,,1141.6267296660008,1141.626853916001,1141.6268712079982,1141.6423047909993,1141.6423047909993,1141.6423047909993,1141.6423047909993,1144.6412174159996,1144.6412174159996,1145.6252230410028,1,1,0.7643272499990417,0.1429587079983321,None,1145.6260524579993,1145.6261467910008,None,1145.6262773749986,1145.6263253750003,None,1145.6417184160018,1145.6417184160018,,,,,,,,,,,1,3,0,0,2024-08-14_10h09.27.508,rtmindeye,2024.1.5,None,2024-08-14 10h09.43.169831 -0400,
all_stimuli/shared1000_notspecial/notspecial_42126.png,27,0,0,0,1,3,1,"[9, 21, 31, 45, 56, 68, 69]",,,,,1,0,1,0,0,27,27,27,1145.6417184160018,,,,,,,,,,,,,,,,,,,,,,,,,,,,,,,,,,,,,,,,1145.627131125002,1145.6273335410006,1145.6273635000034,1145.6417184160018,1145.6417184160018,1145.6417184160018,1145.6417184160018,1148.6286821250033,1148.6286821250033,1149.6254278749984,1,1,0.8629516660002992,0.14095787499536527,None,1149.626376500004,1149.6264708329982,None,1149.6266212080009,1149.6266787080021,None,1149.6400588329998,1149.6400588329998,,,,,,,,,,,1,3,0,0,2024-08-14_10h09.27.508,rtmindeye,2024.1.5,None,2024-08-14 10h09.43.169831 -0400,
all_stimuli/MST_pairs2/pair_41_w_gym1.jpg,28,0,0,0,1,3,1,"[9, 21, 31, 45, 56, 68, 69]",,,,,1,0,1,0,0,28,28,28,1149.6400588329998,,,,,,,,,,,,,,,,,,,,,,,,,,,,,,,,,,,,,,,,1149.627243791001,1149.6274747080024,1149.6275381660016,1149.6400588329998,1149.6400588329998,1149.6400588329998,1149.6400588329998,1152.6286194159984,1152.6286194159984,1153.6249932909996,1,1,0.7966618329955963,0.13198195800214307,None,1153.625794874999,1153.625894375,None,1153.6260550000006,1153.626103708004,None,1153.6423009999999,1153.6423009999999,,,,,,,,,,,1,3,0,0,2024-08-14_10h09.27.508,rtmindeye,2024.1.5,None,2024-08-14 10h09.43.169831 -0400,
all_stimuli/shared1000_notspecial/notspecial_11566.png,29,0,0,0,1,3,1,"[9, 21, 31, 45, 56, 68, 69]",,,,,1,0,1,0,0,29,29,29,1153.6423009999999,,,,,,,,,,,,,,,,,,,,,,,,,,,,,,,,,,,,,,,,1153.6266331660008,1153.626775333003,1153.6267964580038,1153.6423009999999,1153.6423009999999,1153.6423009999999,1153.6423009999999,1156.6281095829981,1156.6281095829981,1157.6252621250023,1,1,0.8424747489989386,0.1629772089945618,None,1157.6260404159984,1157.6261244580019,None,1157.626251499998,1157.626296250004,None,1157.6416315000024,1157.6416315000024,,,,,,,,,,,1,3,0,0,2024-08-14_10h09.27.508,rtmindeye,2024.1.5,None,2024-08-14 10h09.43.169831 -0400,
all_stimuli/closest_pairs2/set_1_closest_to_pair_39_image_cocoid_54190.png,30,0,0,0,1,3,1,"[9, 21, 31, 45, 56, 68, 69]",,,,,1,0,1,0,0,30,30,30,1157.6416315000024,,,,,,,,,,,,,,,,,,,,,,,,,,,,,,,,,,,,,,,,1157.6267894999983,1157.6269093330047,1157.6269268750038,1157.6416315000024,1157.6416315000024,1157.6416315000024,1157.6416315000024,1160.6288422080033,1160.6288422080033,1161.625191750005,1,1,0.8822252079989994,0.15393949999997858,None,1161.626030708001,1161.6261165000033,None,1161.6262642910006,1161.6263122910023,None,1161.6360537910004,1161.6360537910004,,,,,,,,,,,1,3,0,0,2024-08-14_10h09.27.508,rtmindeye,2024.1.5,None,2024-08-14 10h09.43.169831 -0400,
blank.jpg,31,1,0,0,1,3,1,"[9, 21, 31, 45, 56, 68, 69]",,,,,1,0,1,0,0,31,31,31,1161.6360537910004,,,,,,,,,,,,,,,,,,,,,,,,,,,,,,,,,,,,,,,,1161.6268430409982,1161.6269551250007,1161.6269714160007,1161.6360537910004,1161.6360537910004,1161.6360537910004,1161.6360537910004,1164.628848708002,1164.628848708002,1165.6252674159987,None,0,,,None,1165.6258210410015,1165.6259041660014,None,1165.6260746660046,1165.6261250000025,None,1165.6406506249987,1165.6406506249987,,,,,,,,,,,1,3,0,0,2024-08-14_10h09.27.508,rtmindeye,2024.1.5,None,2024-08-14 10h09.43.169831 -0400,
all_stimuli/special515/special_25702.jpg,32,0,1,0,1,3,1,"[9, 21, 31, 45, 56, 68, 69]",,,,,1,0,1,0,0,32,32,32,1165.6406506249987,,,,,,,,,,,,,,,,,,,,,,,,,,,,,,,,,,,,,,,,1165.6266770830043,1165.626841833,1165.6268652500003,1165.6406506249987,1165.6406506249987,1165.6406506249987,1165.6406506249987,1168.6288607500028,1168.6288607500028,1169.625323250002,2,1,1.713317542002187,0.15099712499795714,None,1169.6261258329978,1169.6262142909982,None,1169.6263627910012,1169.6264110410048,None,1169.6568208750032,1169.6568208750032,,,,,,,,,,,1,3,0,0,2024-08-14_10h09.27.508,rtmindeye,2024.1.5,None,2024-08-14 10h09.43.169831 -0400,
all_stimuli/MST_pairs2/pair_21_nsd_48_1_cocoid_4899.png,33,0,0,0,1,3,1,"[9, 21, 31, 45, 56, 68, 69]",,,,,1,0,1,0,0,33,33,33,1169.6568208750032,,,,,,,,,,,,,,,,,,,,,,,,,,,,,,,,,,,,,,,,1169.6269181660027,1169.6270301660043,1169.6270491250034,1169.6568208750032,1169.6568208750032,1169.6568208750032,1169.6568208750032,1172.6456983750031,1172.6456983750031,1173.6298552080043,1,1,1.2861374159983825,0.151025250001112,None,1173.6306942910014,1173.6307892910045,None,1173.6309406250002,1173.6309905410017,None,,,,,,,,,,,,,1,3,0,0,2024-08-14_10h09.27.508,rtmindeye,2024.1.5,None,2024-08-14 10h09.43.169831 -0400,
all_stimuli/shared1000_notspecial/notspecial_6132.png,34,0,0,0,1,3,1,"[9, 21, 31, 45, 56, 68, 69]",,,,,1,0,1,0,0,34,34,34,1173.6473703330048,,,,,,,,,,,,,,,,,,,,,,,,,,,,,,,,,,,,,,,,1173.631569750003,1173.631735875002,1173.631759625001,1173.6473703330048,1173.6473703330048,1173.6473703330048,1173.6473703330048,1176.6456369160005,1176.6456369160005,1177.6419172079986,1,1,0.688673665994429,0.1539679170018644,None,1177.6428371660004,1177.6429406250027,None,1177.6430672909992,1177.6431177080012,None,,,,,,,,,,,,,1,3,0,0,2024-08-14_10h09.27.508,rtmindeye,2024.1.5,None,2024-08-14 10h09.43.169831 -0400,
all_stimuli/special515/special_24640.jpg,35,0,0,0,1,3,1,"[9, 21, 31, 45, 56, 68, 69]",,,,,1,0,1,0,0,35,35,35,1177.6580787909988,,,,,,,,,,,,,,,,,,,,,,,,,,,,,,,,,,,,,,,,1177.6436957080005,1177.6438955830017,1177.6439437500012,1177.6580787909988,1177.6580787909988,1177.6580787909988,1177.6580787909988,1180.64559,1180.64559,1181.6424547499992,1,1,0.7210280409999541,0.13693333300034283,None,1181.6434007499993,1181.6435077080023,None,1181.6436683749998,1181.6437221660017,None,1181.6610131659982,1181.6610131659982,,,,,,,,,,,1,3,0,0,2024-08-14_10h09.27.508,rtmindeye,2024.1.5,None,2024-08-14 10h09.43.169831 -0400,
all_stimuli/shared1000_notspecial/notspecial_27287.png,36,0,0,0,1,3,1,"[9, 21, 31, 45, 56, 68, 69]",,,,,1,0,1,0,0,36,36,36,1181.6610131659982,,,,,,,,,,,,,,,,,,,,,,,,,,,,,,,,,,,,,,,,1181.6443024160035,1181.6445582079978,1181.6446029580038,1181.6610131659982,1181.6610131659982,1181.6610131659982,1181.6610131659982,1184.6584144160006,1184.6584144160006,1185.6463060000024,1,1,0.8591811250007595,0.14393841599667212,None,1185.6471200000015,1185.6472115830038,None,1185.6473631250046,1185.6474170830043,None,,,,,,,,,,,,,1,3,0,0,2024-08-14_10h09.27.508,rtmindeye,2024.1.5,None,2024-08-14 10h09.43.169831 -0400,
all_stimuli/shared1000_notspecial/notspecial_69616.png,37,0,0,0,1,3,1,"[9, 21, 31, 45, 56, 68, 69]",,,,,1,0,1,0,0,37,37,37,1185.6622328329977,,,,,,,,,,,,,,,,,,,,,,,,,,,,,,,,,,,,,,,,1185.6479795830019,1185.6481533750048,1185.648176625,1185.6622328329977,1185.6622328329977,1185.6622328329977,1185.6622328329977,1188.658611166,1188.658611166,1189.6460858330029,1,1,0.7199892079952406,0.17600558300182456,None,1189.6468759999989,1189.6469624160018,None,1189.647108582998,1189.6471568749985,None,1189.6617590000023,1189.6617590000023,,,,,,,,,,,1,3,0,0,2024-08-14_10h09.27.508,rtmindeye,2024.1.5,None,2024-08-14 10h09.43.169831 -0400,
all_stimuli/shared1000_notspecial/notspecial_9722.png,38,0,0,0,1,3,1,"[9, 21, 31, 45, 56, 68, 69]",,,,,1,0,1,0,0,38,38,38,1189.6617590000023,,,,,,,,,,,,,,,,,,,,,,,,,,,,,,,,,,,,,,,,1189.6477016249992,1189.6478437910046,1189.6478647080003,1189.6617590000023,1189.6617590000023,1189.6617590000023,1189.6617590000023,1192.6586380000008,1192.6586380000008,1193.646045333,1,1,0.7575303750054445,0.1539193329954287,None,1193.6468285829978,1193.646915958001,None,1193.647073416003,1193.6471214999983,None,1193.6621595410033,1193.6621595410033,,,,,,,,,,,1,3,0,0,2024-08-14_10h09.27.508,rtmindeye,2024.1.5,None,2024-08-14 10h09.43.169831 -0400,
all_stimuli/special515/special_11932.jpg,39,0,0,0,1,3,1,"[9, 21, 31, 45, 56, 68, 69]",,,,,1,0,1,0,0,39,39,39,1193.6621595410033,,,,,,,,,,,,,,,,,,,,,,,,,,,,,,,,,,,,,,,,1193.6476627500015,1193.6478069160003,1193.6478274160036,1193.6621595410033,1193.6621595410033,1193.6621595410033,1193.6621595410033,1196.6586788330023,1196.6586788330023,1197.6468362500018,1,1,0.691192582999065,0.12994700000126613,None,1197.6476756659977,1197.6477664160047,None,1197.6479202499977,1197.64797025,None,1197.6625920830047,1197.6625920830047,,,,,,,,,,,1,3,0,0,2024-08-14_10h09.27.508,rtmindeye,2024.1.5,None,2024-08-14 10h09.43.169831 -0400,
all_stimuli/MST_pairs2/pair_49_w_yoga_studio2.jpg,40,0,0,0,1,3,1,"[9, 21, 31, 45, 56, 68, 69]",,,,,1,0,1,0,0,40,40,40,1197.6625920830047,,,,,,,,,,,,,,,,,,,,,,,,,,,,,,,,,,,,,,,,1197.6485166659986,1197.648630374999,1197.6486495830031,1197.6625920830047,1197.6625920830047,1197.6625920830047,1197.6625920830047,1200.6586813750037,1200.6586813750037,1201.6463302909979,1,1,0.9067759169993224,0.13304225000320002,None,1201.6471037910014,1201.6471921659977,None,1201.647344750003,1201.6473932500012,None,1201.663825583004,1201.663825583004,,,,,,,,,,,1,3,0,0,2024-08-14_10h09.27.508,rtmindeye,2024.1.5,None,2024-08-14 10h09.43.169831 -0400,
all_stimuli/special515/special_36974.jpg,41,0,0,0,1,3,1,"[9, 21, 31, 45, 56, 68, 69]",,,,,1,0,1,0,0,41,41,41,1201.663825583004,,,,,,,,,,,,,,,,,,,,,,,,,,,,,,,,,,,,,,,,1201.6479206660006,1201.6480661660025,1201.6480873330001,1201.663825583004,1201.663825583004,1201.663825583004,1201.663825583004,1204.6586593329994,1204.6586593329994,1205.6474028750017,1,1,1.0005779579951195,0.17307699999946635,None,1205.6483665409978,1205.648470207998,None,1205.6486259579979,1205.6486810830029,None,1205.6657584580025,1205.6657584580025,,,,,,,,,,,1,3,0,0,2024-08-14_10h09.27.508,rtmindeye,2024.1.5,None,2024-08-14 10h09.43.169831 -0400,
all_stimuli/shared1000_notspecial/notspecial_51171.png,42,0,0,0,1,3,1,"[9, 21, 31, 45, 56, 68, 69]",,,,,1,0,1,0,0,42,42,42,1205.6657584580025,,,,,,,,,,,,,,,,,,,,,,,,,,,,,,,,,,,,,,,,1205.6493192909984,1205.6494689579995,1205.649491958,1205.6657584580025,1205.6657584580025,1205.6657584580025,1205.6657584580025,1208.6628195410012,1208.6628195410012,1209.658990625001,1,1,0.7077386660021148,0.14491904199530836,None,1209.6598049579989,1209.659893750002,None,1209.6600370829983,1209.6600867079978,None,,,,,,,,,,,,,1,3,0,0,2024-08-14_10h09.27.508,rtmindeye,2024.1.5,None,2024-08-14 10h09.43.169831 -0400,
all_stimuli/shared1000_notspecial/notspecial_46136.png,43,0,0,0,1,3,1,"[9, 21, 31, 45, 56, 68, 69]",,,,,1,0,1,0,0,43,43,43,1209.6750018750026,,,,,,,,,,,,,,,,,,,,,,,,,,,,,,,,,,,,,,,,1209.660629625003,1209.6607782909996,1209.6607993750004,1209.6750018750026,1209.6750018750026,1209.6750018750026,1209.6750018750026,1212.6634653330038,1212.6634653330038,1213.659369041001,1,1,0.7125384999962989,0.12696533300186275,None,1213.660160708001,1213.660248500004,None,1213.660372958002,1213.6604193329986,None,1213.6760247499988,1213.6760247499988,,,,,,,,,,,1,3,0,0,2024-08-14_10h09.27.508,rtmindeye,2024.1.5,None,2024-08-14 10h09.43.169831 -0400,
all_stimuli/shared1000_notspecial/notspecial_24264.png,44,0,0,0,1,3,1,"[9, 21, 31, 45, 56, 68, 69]",,,,,1,0,1,0,0,44,44,44,1213.6760247499988,,,,,,,,,,,,,,,,,,,,,,,,,,,,,,,,,,,,,,,,1213.6608979579978,1213.6610171659995,1213.6610343749999,1213.6760247499988,1213.6760247499988,1213.6760247499988,1213.6760247499988,1216.6628710830046,1216.6628710830046,1217.6594006660016,1,1,0.7535627489996841,0.17100433399900794,None,1217.6603680830012,1217.6604629159992,None,1217.6606140000004,1217.6606669579996,None,1217.6720809160033,1217.6720809160033,,,,,,,,,,,1,3,0,0,2024-08-14_10h09.27.508,rtmindeye,2024.1.5,None,2024-08-14 10h09.43.169831 -0400,
blank.jpg,45,1,0,0,1,3,1,"[9, 21, 31, 45, 56, 68, 69]",,,,,1,0,1,0,0,45,45,45,1217.6720809160033,,,,,,,,,,,,,,,,,,,,,,,,,,,,,,,,,,,,,,,,1217.6612260410038,1217.6613720410023,1217.661393166003,1217.6720809160033,1217.6720809160033,1217.6720809160033,1217.6720809160033,1220.6639517500007,1220.6639517500007,1221.668093541004,None,0,,,None,1221.6685082500044,1221.6685685830016,None,1221.6686677500038,1221.668700166003,None,,,,,,,,,,,,,1,3,0,0,2024-08-14_10h09.27.508,rtmindeye,2024.1.5,None,2024-08-14 10h09.43.169831 -0400,
all_stimuli/closest_pairs2/set_3_closest_to_pair_41_image_cocoid_3641.png,46,0,0,0,1,3,1,"[9, 21, 31, 45, 56, 68, 69]",,,,,1,0,1,0,0,46,46,46,1221.683699125002,,,,,,,,,,,,,,,,,,,,,,,,,,,,,,,,,,,,,,,,1221.6690628330034,1221.6691827500035,1221.6691965830032,1221.683699125002,1221.683699125002,1221.683699125002,1221.683699125002,1224.6806193750017,1224.6806193750017,1225.6758011659986,1,1,0.9279297910034074,0.1469995419975021,None,1225.6766838330004,1225.6767743329983,None,1225.6769221659997,1225.6769717909992,None,,,,,,,,,,,,,1,3,0,0,2024-08-14_10h09.27.508,rtmindeye,2024.1.5,None,2024-08-14 10h09.43.169831 -0400,
all_stimuli/shared1000_notspecial/notspecial_5574.png,47,0,0,0,1,3,1,"[9, 21, 31, 45, 56, 68, 69]",,,,,1,0,1,0,0,47,47,47,1225.6927744159984,,,,,,,,,,,,,,,,,,,,,,,,,,,,,,,,,,,,,,,,1225.6775160410034,1225.6776670000036,1225.6776906660016,1225.6927744159984,1225.6927744159984,1225.6927744159984,1225.6927744159984,1228.6797715409994,1228.6797715409994,1229.6763860830033,1,1,0.747060458001215,0.15994691699597752,None,1229.6771716250005,1229.6772681250004,None,1229.6773997080018,1229.6774440410009,None,1229.6935442079994,1229.6935442079994,,,,,,,,,,,1,3,0,0,2024-08-14_10h09.27.508,rtmindeye,2024.1.5,None,2024-08-14 10h09.43.169831 -0400,
all_stimuli/shared1000_notspecial/notspecial_18505.png,48,0,0,0,1,3,1,"[9, 21, 31, 45, 56, 68, 69]",,,,,1,0,1,0,0,48,48,48,1229.6935442079994,,,,,,,,,,,,,,,,,,,,,,,,,,,,,,,,,,,,,,,,1229.6779377499988,1229.6780683329998,1229.6780856660043,1229.6935442079994,1229.6935442079994,1229.6935442079994,1229.6935442079994,1232.680586208,1232.680586208,1233.6764571250023,1,1,0.6202740410008118,0.12996783400012646,None,1233.67725375,1233.67733975,None,1233.6774671250023,1233.677511957998,None,1233.6937340410004,1233.6937340410004,,,,,,,,,,,1,3,0,0,2024-08-14_10h09.27.508,rtmindeye,2024.1.5,None,2024-08-14 10h09.43.169831 -0400,
all_stimuli/unchosen_nsd_1000_images/unchosen_1309_cocoid_33029.png,49,0,0,0,1,3,1,"[9, 21, 31, 45, 56, 68, 69]",,,,,1,0,1,0,0,49,49,49,1233.6937340410004,,,,,,,,,,,,,,,,,,,,,,,,,,,,,,,,,,,,,,,,1233.6779933330035,1233.6781123750043,1233.6781297909984,1233.6937340410004,1233.6937340410004,1233.6937340410004,1233.6937340410004,1236.692458999998,1236.692458999998,1237.6799685830047,1,1,0.6351545419965987,0.1569986250033253,None,1237.6807725000035,1237.6808612079985,None,1237.6810078330018,1237.6810601660036,None,,,,,,,,,,,,,1,3,0,0,2024-08-14_10h09.27.508,rtmindeye,2024.1.5,None,2024-08-14 10h09.43.169831 -0400,
all_stimuli/MST_pairs2/pair_19_nsd_25_1_cocoid_45006.png,50,0,0,0,1,3,1,"[9, 21, 31, 45, 56, 68, 69]",,,,,1,0,1,0,0,50,50,50,1237.710230124998,,,,,,,,,,,,,,,,,,,,,,,,,,,,,,,,,,,,,,,,1237.6816047079992,1237.6817684999987,1237.6817897500005,1237.710230124998,1237.710230124998,1237.710230124998,1237.710230124998,1240.6964160409989,1240.6964160409989,1241.6929393329992,1,1,0.9067156669989345,0.3629960830003256,None,1241.6938272910047,1241.6939429999984,None,1241.6940858750022,1241.6941321659979,None,,,,,,,,,,,,,1,3,0,0,2024-08-14_10h09.27.508,rtmindeye,2024.1.5,None,2024-08-14 10h09.43.169831 -0400,
all_stimuli/shared1000_notspecial/notspecial_31446.png,51,0,0,0,1,3,1,"[9, 21, 31, 45, 56, 68, 69]",,,,,1,0,1,0,0,51,51,51,1241.711099375003,,,,,,,,,,,,,,,,,,,,,,,,,,,,,,,,,,,,,,,,1241.6946547080006,1241.6948982500035,1241.6949391250018,1241.711099375003,1241.711099375003,1241.711099375003,1241.711099375003,1244.7093913330027,1244.7093913330027,1245.6975982500007,1,1,0.6728667079951265,0.1099744160019327,None,1245.6983723750018,1245.698462458,None,1245.698609375002,1245.698658207999,None,,,,,,,,,,,,,1,3,0,0,2024-08-14_10h09.27.508,rtmindeye,2024.1.5,None,2024-08-14 10h09.43.169831 -0400,
all_stimuli/special515/special_35798.jpg,52,0,0,0,1,3,1,"[9, 21, 31, 45, 56, 68, 69]",,,,,1,0,1,0,0,52,52,52,1245.7134391250001,,,,,,,,,,,,,,,,,,,,,,,,,,,,,,,,,,,,,,,,1245.699184791003,1245.6993339580004,1245.6993509579988,1245.7134391250001,1245.7134391250001,1245.7134391250001,1245.7134391250001,1248.7094641660005,1248.7094641660005,1249.6979112080007,1,1,0.6855672500023502,0.13101737500255695,None,1249.6986772079981,1249.6987656659985,None,1249.698911708001,1249.6989600410016,None,1249.7144145830025,1249.7144145830025,,,,,,,,,,,1,3,0,0,2024-08-14_10h09.27.508,rtmindeye,2024.1.5,None,2024-08-14 10h09.43.169831 -0400,
all_stimuli/shared1000_notspecial/notspecial_39553.png,53,0,0,0,1,3,1,"[9, 21, 31, 45, 56, 68, 69]",,,,,1,0,1,0,0,53,53,53,1249.7144145830025,,,,,,,,,,,,,,,,,,,,,,,,,,,,,,,,,,,,,,,,1249.6994863330037,1249.6996155000015,1249.6996317080047,1249.7144145830025,1249.7144145830025,1249.7144145830025,1249.7144145830025,1252.7096979159978,1252.7096979159978,1253.6978178749996,1,1,0.8826424579965533,0.1500013749973732,None,1253.6985873750018,1253.6986755830003,None,1253.69882125,1253.6988685410033,None,1253.7136167909994,1253.7136167909994,,,,,,,,,,,1,3,0,0,2024-08-14_10h09.27.508,rtmindeye,2024.1.5,None,2024-08-14 10h09.43.169831 -0400,
all_stimuli/shared1000_notspecial/notspecial_24649.png,54,0,0,0,1,3,1,"[9, 21, 31, 45, 56, 68, 69]",,,,,1,0,1,0,0,54,54,54,1253.7136167909994,,,,,,,,,,,,,,,,,,,,,,,,,,,,,,,,,,,,,,,,1253.699389583002,1253.6995347909979,1253.6995557499977,1253.7136167909994,1253.7136167909994,1253.7136167909994,1253.7136167909994,1256.7094285409985,1256.7094285409985,1257.6982853750014,1,1,0.6765223749971483,0.12494491600227775,None,1257.6991100829982,1257.6991959160005,None,1257.6993592910003,1257.6994085410042,None,1257.7143942500043,1257.7143942500043,,,,,,,,,,,1,3,0,0,2024-08-14_10h09.27.508,rtmindeye,2024.1.5,None,2024-08-14 10h09.43.169831 -0400,
all_stimuli/shared1000_notspecial/notspecial_49076.png,55,0,0,0,1,3,1,"[9, 21, 31, 45, 56, 68, 69]",,,,,1,0,1,0,0,55,55,55,1257.7143942500043,,,,,,,,,,,,,,,,,,,,,,,,,,,,,,,,,,,,,,,,1257.699963541003,1257.7001070000042,1257.7001281659977,1257.7143942500043,1257.7143942500043,1257.7143942500043,1257.7143942500043,1260.709528708001,1260.709528708001,1261.6977672909998,1,1,0.7438322079979116,0.13994325000385288,None,1261.6985866250034,1261.6986722080037,None,1261.698803708001,1261.6988551250033,None,1261.7263354160023,1261.7263354160023,,,,,,,,,,,1,3,0,0,2024-08-14_10h09.27.508,rtmindeye,2024.1.5,None,2024-08-14 10h09.43.169831 -0400,
blank.jpg,56,1,0,0,1,3,1,"[9, 21, 31, 45, 56, 68, 69]",,,,,1,0,1,0,0,56,56,56,1261.7263354160023,,,,,,,,,,,,,,,,,,,,,,,,,,,,,,,,,,,,,,,,1261.699402791004,1261.699520166003,1261.699537708002,1261.7263354160023,1261.7263354160023,1261.7263354160023,1261.7263354160023,1264.7144412499983,1264.7144412499983,1265.7097514159977,None,0,,,None,1265.7103609999976,1265.7104508330012,None,1265.7106286659982,1265.7106779160022,None,,,,,,,,,,,,,1,3,0,0,2024-08-14_10h09.27.508,rtmindeye,2024.1.5,None,2024-08-14 10h09.43.169831 -0400,
all_stimuli/shared1000_notspecial/notspecial_59039.png,57,0,0,0,1,3,1,"[9, 21, 31, 45, 56, 68, 69]",,,,,1,0,1,0,0,57,57,57,1265.727001666004,,,,,,,,,,,,,,,,,,,,,,,,,,,,,,,,,,,,,,,,1265.7112344580019,1265.7113824160042,1265.7114041250024,1265.727001666004,1265.727001666004,1265.727001666004,1265.727001666004,1268.7142297500031,1268.7142297500031,1269.7101889580008,1,1,0.7953532910032663,0.14494337500218535,None,1269.7111982080023,1269.7113182910034,None,1269.711490499998,1269.7115454160012,None,1269.7278062910045,1269.7278062910045,,,,,,,,,,,1,3,0,0,2024-08-14_10h09.27.508,rtmindeye,2024.1.5,None,2024-08-14 10h09.43.169831 -0400,
all_stimuli/special515/special_30081.jpg,58,0,0,0,1,3,1,"[9, 21, 31, 45, 56, 68, 69]",,,,,1,0,1,0,0,58,58,58,1269.7278062910045,,,,,,,,,,,,,,,,,,,,,,,,,,,,,,,,,,,,,,,,1269.7121218329994,1269.7122954160004,1269.7123170409977,1269.7278062910045,1269.7278062910045,1269.7278062910045,1269.7278062910045,1272.7264110830001,1272.7264110830001,1273.7148989580019,1,1,0.6725653749963385,0.11996400000498397,None,1273.7157095410003,1273.715807833003,None,1273.7159364160034,1273.715984458002,None,,,,,,,,,,,,,1,3,0,0,2024-08-14_10h09.27.508,rtmindeye,2024.1.5,None,2024-08-14 10h09.43.169831 -0400,
all_stimuli/shared1000_notspecial/notspecial_18796.png,59,0,0,0,1,3,1,"[9, 21, 31, 45, 56, 68, 69]",,,,,1,0,1,0,0,59,59,59,1273.7327432500024,,,,,,,,,,,,,,,,,,,,,,,,,,,,,,,,,,,,,,,,1273.7165380830047,1273.7167139579979,1273.716731583001,1273.7327432500024,1273.7327432500024,1273.7327432500024,1273.7327432500024,1276.7303713330039,1276.7303713330039,1277.7265630410038,1,1,0.8146585829963442,0.125065625004936,None,1277.7273734160044,1277.7274749159988,None,1277.7276235829995,1277.7276889999994,None,,,,,,,,,,,,,1,3,0,0,2024-08-14_10h09.27.508,rtmindeye,2024.1.5,None,2024-08-14 10h09.43.169831 -0400,
all_stimuli/closest_pairs2/set_1_closest_to_pair_33_image_cocoid_42820.png,60,0,0,0,1,3,1,"[9, 21, 31, 45, 56, 68, 69]",,,,,1,0,1,0,0,60,60,60,1277.7427234580027,,,,,,,,,,,,,,,,,,,,,,,,,,,,,,,,,,,,,,,,1277.728221958001,1277.7283698750034,1277.728391208002,1277.7427234580027,1277.7427234580027,1277.7427234580027,1277.7427234580027,1280.7315909579993,1280.7315909579993,1281.7272850410009,1,1,0.7737166239967337,0.13703429200540995,None,1281.728232333,1281.7283299160044,None,1281.7284818749977,1281.7285387080046,None,1281.7447790000006,1281.7447790000006,,,,,,,,,,,1,3,0,0,2024-08-14_10h09.27.508,rtmindeye,2024.1.5,None,2024-08-14 10h09.43.169831 -0400,
all_stimuli/special515/special_52931.jpg,61,0,0,0,1,3,1,"[9, 21, 31, 45, 56, 68, 69]",,,,,1,0,1,0,0,61,61,61,1281.7447790000006,,,,,,,,,,,,,,,,,,,,,,,,,,,,,,,,,,,,,,,,1281.7293714999978,1281.7295692910047,1281.7295948329993,1281.7447790000006,1281.7447790000006,1281.7447790000006,1281.7447790000006,1284.7431789580005,1284.7431789580005,1285.7305662910003,1,1,0.7356926659995224,0.11799770800280385,None,1285.7313650409997,1285.731453583001,None,1285.7316115830035,1285.731661208003,None,,,,,,,,,,,,,1,3,0,0,2024-08-14_10h09.27.508,rtmindeye,2024.1.5,None,2024-08-14 10h09.43.169831 -0400,
all_stimuli/shared1000_notspecial/notspecial_56418.png,62,0,0,0,1,3,1,"[9, 21, 31, 45, 56, 68, 69]",,,,,1,0,1,0,0,62,62,62,1285.748026166002,,,,,,,,,,,,,,,,,,,,,,,,,,,,,,,,,,,,,,,,1285.7322003750014,1285.7323506250032,1285.7323719580017,1285.748026166002,1285.748026166002,1285.748026166002,1285.748026166002,1288.743175458003,1288.743175458003,1289.7315730410046,1,1,0.7505175000042072,0.11000283299654257,None,1289.7324204160032,1289.7325060830044,None,1289.7326588750002,1289.7327079160023,None,1289.751317000002,1289.751317000002,,,,,,,,,,,1,3,0,0,2024-08-14_10h09.27.508,rtmindeye,2024.1.5,None,2024-08-14 10h09.43.169831 -0400,
all_stimuli/MST_pairs2/pair_7_10_56.png,63,0,0,0,1,3,1,"[9, 21, 31, 45, 56, 68, 69]",,,,,1,0,1,0,0,63,63,63,1289.751317000002,,,,,,,,,,,,,,,,,,,,,,,,,,,,,,,,,,,,,,,,1289.7332323330047,1289.7333481250025,1289.7333660000004,1289.751317000002,1289.751317000002,1289.751317000002,1289.751317000002,1292.7480412910008,1292.7480412910008,1293.743535540998,1,1,1.0432840419962304,0.13801404100377113,None,1293.7443489159996,1293.744447666002,None,1293.7445967079984,1293.744662625002,None,,,,,,,,,,,,,1,3,0,0,2024-08-14_10h09.27.508,rtmindeye,2024.1.5,None,2024-08-14 10h09.43.169831 -0400,
all_stimuli/shared1000_notspecial/notspecial_34418.png,64,0,0,0,1,3,1,"[9, 21, 31, 45, 56, 68, 69]",,,,,1,0,1,0,0,64,64,64,1293.7607575000002,,,,,,,,,,,,,,,,,,,,,,,,,,,,,,,,,,,,,,,,1293.745199875004,1293.7453482080018,1293.7453700410042,1293.7607575000002,1293.7607575000002,1293.7607575000002,1293.7607575000002,1296.748698041003,1296.748698041003,1297.7438750830042,1,1,0.7708670409992919,0.2050904999996419,None,1297.744670375003,1297.7447558330023,None,1297.7448905830024,1297.7449349160015,None,1297.7597885830037,1297.7597885830037,,,,,,,,,,,1,3,0,0,2024-08-14_10h09.27.508,rtmindeye,2024.1.5,None,2024-08-14 10h09.43.169831 -0400,
all_stimuli/shared1000_notspecial/notspecial_49969.png,65,0,0,0,1,3,1,"[9, 21, 31, 45, 56, 68, 69]",,,,,1,0,1,0,0,65,65,65,1297.7597885830037,,,,,,,,,,,,,,,,,,,,,,,,,,,,,,,,,,,,,,,,1297.7454064999984,1297.7456681250042,1297.7457042910028,1297.7597885830037,1297.7597885830037,1297.7597885830037,1297.7597885830037,1300.748409208005,1300.748409208005,1301.7438377910003,1,1,0.7499440829997184,0.12799033400369808,None,1301.7446165000001,1301.7447034580036,None,1301.744849583003,1301.7448975410007,None,1301.7597991660004,1301.7597991660004,,,,,,,,,,,1,3,0,0,2024-08-14_10h09.27.508,rtmindeye,2024.1.5,None,2024-08-14 10h09.43.169831 -0400,
all_stimuli/unchosen_nsd_1000_images/unchosen_3953_cocoid_27041.png,66,0,0,0,1,3,1,"[9, 21, 31, 45, 56, 68, 69]",,,,,1,0,1,0,0,66,66,66,1301.7597991660004,,,,,,,,,,,,,,,,,,,,,,,,,,,,,,,,,,,,,,,,1301.745417457998,1301.745577540998,1301.7455990829985,1301.7597991660004,1301.7597991660004,1301.7597991660004,1301.7597991660004,1304.7471930829997,1304.7471930829997,1305.7438196250005,1,1,0.9579541670027538,0.14800758299679728,None,1305.744618165998,1305.7447039580002,None,1305.7448502500047,1305.7448980830013,None,1305.764038333,1305.764038333,,,,,,,,,,,1,3,0,0,2024-08-14_10h09.27.508,rtmindeye,2024.1.5,None,2024-08-14 10h09.43.169831 -0400,
all_stimuli/special515/special_3157.jpg,67,0,0,0,1,3,1,"[9, 21, 31, 45, 56, 68, 69]",,,,,1,0,1,0,0,67,67,67,1305.764038333,,,,,,,,,,,,,,,,,,,,,,,,,,,,,,,,,,,,,,,,1305.7454169999983,1305.7455595409992,1305.7455989580048,1305.764038333,1305.764038333,1305.764038333,1305.764038333,1308.7602541660017,1308.7602541660017,1309.7482926660014,1,1,0.8438178330034134,0.15195804100221721,None,1309.7490990000006,1309.7491926250004,None,1309.7493458750032,1309.7494023750041,None,,,,,,,,,,,,,1,3,0,0,2024-08-14_10h09.27.508,rtmindeye,2024.1.5,None,2024-08-14 10h09.43.169831 -0400,
blank.jpg,68,1,0,0,1,3,1,"[9, 21, 31, 45, 56, 68, 69]",,,,,1,0,1,0,0,68,68,68,1309.7598510000025,,,,,,,,,,,,,,,,,,,,,,,,,,,,,,,,,,,,,,,,1309.749979375003,1309.7501460830026,1309.7501678749977,1309.7598510000025,1309.7598510000025,1309.7598510000025,1309.7598510000025,1312.7475436250024,1312.7475436250024,1313.743932958001,None,0,,,None,1313.7445007499991,1313.7445858749998,None,1313.744735375003,1313.7447848330048,None,1313.7532988329986,1313.7532988329986,,,,,,,,,,,1,3,0,0,2024-08-14_10h09.27.508,rtmindeye,2024.1.5,None,2024-08-14 10h09.43.169831 -0400,
blank.jpg,69,1,0,1,1,3,0,"[9, 21, 31, 45, 56, 68, 69]",,,,,1,0,1,0,0,69,69,69,1313.7532988329986,,,,,,,,,,,,,,,,,,,,,,,,,,,,,,,,,,,,,,,,1313.7453332910009,1313.7454733749983,1313.7454943330013,1313.7532988329986,1313.7532988329986,1313.7532988329986,1313.7532988329986,1316.7475657500036,1316.7475657500036,1317.7440097080034,None,0,,,None,1317.7447555410035,1321.8663266250005,1,1321.8671807080027,1335.8328332910023,equal,1317.7649827080022,1317.7649827080022,1317.7649827080022,1317.7649827080022,4.098149958001159,None,1321.8765347080043,1321.8765347080043,13.95176479100337,None,,,1,3,0,0,2024-08-14_10h09.27.508,rtmindeye,2024.1.5,None,2024-08-14 10h09.43.169831 -0400,
,,,,,,,,,,,,,1,0,1,0,,,,,,,,,,,,,,,,,,,,,,,,,,,,,,,,,,,,,,,,,,,,,,,,,,,,,,,,,,,,,,,,,,,,,,,,,,,,,,1,3,0,0,2024-08-14_10h09.27.508,rtmindeye,2024.1.5,None,2024-08-14 10h09.43.169831 -0400,
all_stimuli/special515/special_53727.jpg,0,0,0,0,2,3,1,"[9, 21, 31, 45, 56, 68, 69]",,,,,2,0,2,0,0,0,0,0,1335.8675145410016,,,,,,,,,,,,,,,,,,,,,,,,,,,,,,,,,,,,,,,,1335.8525042500041,1335.8529085410046,1335.8529268330021,1335.8675145410016,1335.8675145410016,1335.8675145410016,1335.8675145410016,1338.8646047500006,1338.8646047500006,1339.8607696250037,1,1,0.8907794159968034,0.13192916700063506,None,1339.8622141250016,1339.862311666002,None,1339.8626267500003,1339.8626692500038,None,,,,,,,,,,,,,1,3,0,0,2024-08-14_10h09.27.508,rtmindeye,2024.1.5,None,2024-08-14 10h09.43.169831 -0400,
all_stimuli/shared1000_notspecial/notspecial_56471.png,1,0,0,0,2,3,1,"[9, 21, 31, 45, 56, 68, 69]",,,,,2,0,2,0,0,1,1,1,1339.8787606660044,,,,,,,,,,,,,,,,,,,,,,,,,,,,,,,,,,,,,,,,1339.8632388330007,1339.8633582500042,1339.8633750829977,1339.8787606660044,1339.8787606660044,1339.8787606660044,1339.8787606660044,1342.877417290998,1342.877417290998,1343.866093208002,1,1,0.8135534160028328,0.13297208400035743,None,1343.8669123750005,1343.867005125001,None,1343.867170999998,1343.8672235830018,None,,,,,,,,,,,,,1,3,0,0,2024-08-14_10h09.27.508,rtmindeye,2024.1.5,None,2024-08-14 10h09.43.169831 -0400,
all_stimuli/special515/special_67829.jpg,2,0,1,0,2,3,1,"[9, 21, 31, 45, 56, 68, 69]",,,,,2,0,2,0,0,2,2,2,1343.8818350410002,,,,,,,,,,,,,,,,,,,,,,,,,,,,,,,,,,,,,,,,1343.867768958,1343.8679466660033,1343.867967625003,1343.8818350410002,1343.8818350410002,1343.8818350410002,1343.8818350410002,1346.8775012910046,1346.8775012910046,1347.8662278330012,1,0,0.7365025830004015,0.1060711669997545,None,1347.8669908750016,1347.8670782080007,None,1347.8672235830018,1347.8672719160022,None,1347.8827633750043,1347.8827633750043,,,,,,,,,,,1,3,0,0,2024-08-14_10h09.27.508,rtmindeye,2024.1.5,None,2024-08-14 10h09.43.169831 -0400,
all_stimuli/unchosen_nsd_1000_images/unchosen_415_cocoid_46296.png,3,0,0,0,2,3,1,"[9, 21, 31, 45, 56, 68, 69]",,,,,2,0,2,0,0,3,3,3,1347.8827633750043,,,,,,,,,,,,,,,,,,,,,,,,,,,,,,,,,,,,,,,,1347.8677934580046,1347.8679366659999,1347.8679577500006,1347.8827633750043,1347.8827633750043,1347.8827633750043,1347.8827633750043,1350.8776509579984,1350.8776509579984,1351.8775262499985,1,1,0.7146376669988967,0.2990150830009952,None,1351.878397458,1351.8784862079992,None,1351.878633458,1351.878682458002,None,,,,,,,,,,,,,1,3,0,0,2024-08-14_10h09.27.508,rtmindeye,2024.1.5,None,2024-08-14 10h09.43.169831 -0400,
all_stimuli/special515/special_7654.jpg,4,0,0,0,2,3,1,"[9, 21, 31, 45, 56, 68, 69]",,,,,2,0,2,0,0,4,4,4,1351.8942930410049,,,,,,,,,,,,,,,,,,,,,,,,,,,,,,,,,,,,,,,,1351.8792274160005,1351.8793686659992,1351.8793849580034,1351.8942930410049,1351.8942930410049,1351.8942930410049,1351.8942930410049,1354.8813722909981,1354.8813722909981,1355.8781171660012,1,1,0.6631689160058158,0.11604041700047674,None,1355.8789201660038,1355.879011750003,None,1355.8791397910027,1355.879186500002,None,1355.896090291004,1355.896090291004,,,,,,,,,,,1,3,0,0,2024-08-14_10h09.27.508,rtmindeye,2024.1.5,None,2024-08-14 10h09.43.169831 -0400,
all_stimuli/unchosen_nsd_1000_images/unchosen_765_cocoid_71502.png,5,0,0,0,2,3,1,"[9, 21, 31, 45, 56, 68, 69]",,,,,2,0,2,0,0,5,5,5,1355.896090291004,,,,,,,,,,,,,,,,,,,,,,,,,,,,,,,,,,,,,,,,1355.8796844579992,1355.8798095829989,1355.8798292080028,1355.896090291004,1355.896090291004,1355.896090291004,1355.896090291004,1358.894154499998,1358.894154499998,1359.8815674159996,1,1,0.6723940409938223,0.1109984170034295,None,1359.8821968330012,1359.8822659580037,None,1359.882385541001,1359.8824243330018,None,,,,,,,,,,,,,1,3,0,0,2024-08-14_10h09.27.508,rtmindeye,2024.1.5,None,2024-08-14 10h09.43.169831 -0400,
all_stimuli/shared1000_notspecial/notspecial_22886.png,6,0,0,0,2,3,1,"[9, 21, 31, 45, 56, 68, 69]",,,,,2,0,2,0,0,6,6,6,1359.8974103330038,,,,,,,,,,,,,,,,,,,,,,,,,,,,,,,,,,,,,,,,1359.882857208002,1359.8829746250049,1359.8829912080037,1359.8974103330038,1359.8974103330038,1359.8974103330038,1359.8974103330038,1362.8940007080018,1362.8940007080018,1363.8811579160028,1,1,0.7471501660038484,0.11209154199605109,None,1363.8819369999983,1363.8820229999983,None,1363.8821682080015,1363.8822159160045,None,1363.9091455410016,1363.9091455410016,,,,,,,,,,,1,3,0,0,2024-08-14_10h09.27.508,rtmindeye,2024.1.5,None,2024-08-14 10h09.43.169831 -0400,
all_stimuli/MST_pairs2/pair_23_nsd_156_1_cocoid_13522.png,7,0,0,0,2,3,1,"[9, 21, 31, 45, 56, 68, 69]",,,,,2,0,2,0,0,7,7,7,1363.9091455410016,,,,,,,,,,,,,,,,,,,,,,,,,,,,,,,,,,,,,,,,1363.8827393750034,1363.882882416001,1363.8829039160046,1363.9091455410016,1363.9091455410016,1363.9091455410016,1363.9091455410016,1366.8982835409988,1366.8982835409988,1367.8944905000026,2,0,1.4304771669994807,0.13703804099350236,None,1367.8953340410008,1367.8954220000014,None,1367.8955722910032,1367.8956328330023,None,,,,,,,,,,,,,1,3,0,0,2024-08-14_10h09.27.508,rtmindeye,2024.1.5,None,2024-08-14 10h09.43.169831 -0400,
all_stimuli/MST_pairs2/pair_5_8_0.png,8,0,0,0,2,3,1,"[9, 21, 31, 45, 56, 68, 69]",,,,,2,0,2,0,0,8,8,8,1367.9135022499977,,,,,,,,,,,,,,,,,,,,,,,,,,,,,,,,,,,,,,,,1367.8961619160036,1367.896312124998,1367.8963363750008,1367.9135022499977,1367.9135022499977,1367.9135022499977,1367.9135022499977,1370.911006250004,1370.911006250004,1371.898418416,1,1,0.8371729159989627,0.12201504199765623,None,1371.8992306250002,1371.8993185,None,1371.8994656249997,1371.899515916004,None,,,,,,,,,,,,,1,3,0,0,2024-08-14_10h09.27.508,rtmindeye,2024.1.5,None,2024-08-14 10h09.43.169831 -0400,
blank.jpg,9,1,0,0,2,3,1,"[9, 21, 31, 45, 56, 68, 69]",,,,,2,0,2,0,0,9,9,9,1371.9104205830008,,,,,,,,,,,,,,,,,,,,,,,,,,,,,,,,,,,,,,,,1371.900067333001,1371.900217125003,1371.9002389579982,1371.9104205830008,1371.9104205830008,1371.9104205830008,1371.9104205830008,1374.8989119160033,1374.8989119160033,1375.8948630829982,None,0,,,None,1375.8955621249988,1375.8956740409994,None,1375.8958269159994,1375.8958849580013,None,1375.9121963330035,1375.9121963330035,,,,,,,,,,,1,3,0,0,2024-08-14_10h09.27.508,rtmindeye,2024.1.5,None,2024-08-14 10h09.43.169831 -0400,
all_stimuli/special515/special_65069.jpg,10,0,0,0,2,3,1,"[9, 21, 31, 45, 56, 68, 69]",,,,,2,0,2,0,0,10,10,10,1375.9121963330035,,,,,,,,,,,,,,,,,,,,,,,,,,,,,,,,,,,,,,,,1375.896367082998,1375.8964891249998,1375.896506582998,1375.9121963330035,1375.9121963330035,1375.9121963330035,1375.9121963330035,1378.9111495410034,1378.9111495410034,1379.8991087500035,1,1,0.9385593330007396,0.14104933299677214,None,1379.8997733750002,1379.899846541004,None,1379.8999704160015,1379.900012375001,None,,,,,,,,,,,,,1,3,0,0,2024-08-14_10h09.27.508,rtmindeye,2024.1.5,None,2024-08-14 10h09.43.169831 -0400,
all_stimuli/closest_pairs2/set_1_closest_to_pair_7_image_cocoid_46943.png,11,0,0,0,2,3,1,"[9, 21, 31, 45, 56, 68, 69]",,,,,2,0,2,0,0,11,11,11,1379.9161332910007,,,,,,,,,,,,,,,,,,,,,,,,,,,,,,,,,,,,,,,,1379.900453125003,1379.9005911659988,1379.9006074999998,1379.9161332910007,1379.9161332910007,1379.9161332910007,1379.9161332910007,1382.9111783749977,1382.9111783749977,1383.9113980830007,1,1,0.7947491250015446,0.12295237500075018,None,1383.9123087500047,1383.9124429160001,None,1383.912585750004,1383.9126322500015,None,,,,,,,,,,,,,1,3,0,0,2024-08-14_10h09.27.508,rtmindeye,2024.1.5,None,2024-08-14 10h09.43.169831 -0400,
