current_image,is_repeat,trial_index,is_blank_trial,is_new_run,run_num,all_blanks_list,loop_all_images.thisRepN,loop_all_images.thisTrialN,loop_all_images.thisN,loop_all_images.thisIndex,thisRow.t,notes,set_up.started,set_up.stopped,waiting_fmri.started,key_resp_2.started,text_3.started,waiting_fmri.stopped,key_resp_2.keys,key_resp_2.rt,key_resp_2.duration,set_skips.started,set_skips.stopped,trial.started,trial.stopped,press_if_repeat.keys,blank_trial.started,blank_trial.stopped,key_resp_3.keys,run_wait2.started,run_wait2.stopped,key_resp_5.keys,waiting_fmri_2.started,waiting_fmri_2.stopped,key_resp_4.keys,participant,session,starting_run,,date,expName,psychopyVersion,frameRate,expStart,
,,,,,,,,,,,,,0.0373951870133169,0.03762803500285372,0.037649504985893145,0.04836171699571423,0.04836171699571423,1.2422779870103113,5,1.1902313760074321,None,,,,,,,,,,,,,,,1,001,16,,2024-04-09_13h41.04.066,replicate_nsd,2023.2.3,60.105488258179264,2024-04-09 13h41.17.774270 -0400,
images/7_12 copy 4.jpg,0,0,0,0,0,"[9, 19, 29, 39, 49, 59, 68, 69, 70, 71]",0,0,0,0,4.522571212000912,,,,,,,,,,,1.315729633992305,1.3158329429861624,1.3158400930115022,1.3205577629851177,None,1.3210503740119748,1.3210811899916735,None,1.3215300950105302,1.3215608389873523,None,1.322027302987408,1.32205455400981,None,1,001,16,,2024-04-09_13h41.04.066,replicate_nsd,2023.2.3,60.105488258179264,2024-04-09 13h41.17.774270 -0400,
images/19_40 copy 3.jpg,0,1,0,0,0,"[9, 19, 29, 39, 49, 59, 68, 69, 70, 71]",0,1,1,1,4.522571212000912,,,,,,,,,,,1.32269721099874,1.322806979995221,1.3228137219848577,1.32578494399786,None,1.3258654719975311,1.3258913010067772,None,1.3259557280107401,1.3259794779878575,None,1.3260402980085928,1.3260623120004311,None,1,001,16,,2024-04-09_13h41.04.066,replicate_nsd,2023.2.3,60.105488258179264,2024-04-09 13h41.17.774270 -0400,
images/18_28 copy 3.jpg,0,2,0,0,0,"[9, 19, 29, 39, 49, 59, 68, 69, 70, 71]",0,2,2,2,4.522571212000912,,,,,,,,,,,1.3262592990067787,1.3263634459872264,1.3263699460076168,1.3288662300037686,None,1.3289425199909601,1.3289677480061073,None,1.3290312259923667,1.3290539119916502,None,1.3291141059889924,1.3291355469846167,None,1,001,16,,2024-04-09_13h41.04.066,replicate_nsd,2023.2.3,60.105488258179264,2024-04-09 13h41.17.774270 -0400,
images/22_40 copy.jpg,0,3,0,0,0,"[9, 19, 29, 39, 49, 59, 68, 69, 70, 71]",0,3,3,3,4.522571212000912,,,,,,,,,,,1.329327382001793,1.329438223008765,1.3294448890083004,1.3320150229847059,None,1.3320965500024613,1.3321233080059756,None,1.3321910760132596,1.3322148860024754,None,1.3322786100034136,1.3323016120120883,None,1,001,16,,2024-04-09_13h41.04.066,replicate_nsd,2023.2.3,60.105488258179264,2024-04-09 13h41.17.774270 -0400,
images/14_40 copy 4.jpg,0,4,0,0,0,"[9, 19, 29, 39, 49, 59, 68, 69, 70, 71]",0,4,4,4,4.522571212000912,,,,,,,,,,,1.3325045089877676,1.3326144849997945,1.3326212510000914,1.3351883449940942,None,1.335268978989916,1.3352958860050421,None,1.3353633469960187,1.3353872039879207,None,1.3354511839861516,1.335474104998866,None,1,001,16,,2024-04-09_13h41.04.066,replicate_nsd,2023.2.3,60.105488258179264,2024-04-09 13h41.17.774270 -0400,
images/pair04 copy 5.jpg,0,5,0,0,0,"[9, 19, 29, 39, 49, 59, 68, 69, 70, 71]",0,5,5,5,4.522571212000912,,,,,,,,,,,1.3356761489994824,1.3357758400088642,1.3357826879946515,1.34195248701144,None,1.3420353900000919,1.3420624719874468,None,1.3421293979918119,1.3421547260077205,None,1.3422181890055072,1.34224128301139,None,1,001,16,,2024-04-09_13h41.04.066,replicate_nsd,2023.2.3,60.105488258179264,2024-04-09 13h41.17.774270 -0400,
images/22_12.jpg,0,6,0,0,0,"[9, 19, 29, 39, 49, 59, 68, 69, 70, 71]",0,6,6,6,4.522571212000912,,,,,,,,,,,1.342442707013106,1.3425692440068815,1.3425770440080669,1.3457997539953794,None,1.3458956420072354,1.34592596499715,None,1.3460040249919984,1.3460320179874543,None,1.3461055000079796,1.3461319709895179,None,1,001,16,,2024-04-09_13h41.04.066,replicate_nsd,2023.2.3,60.105488258179264,2024-04-09 13h41.17.774270 -0400,
images/8_28 copy 4.jpg,0,7,0,0,0,"[9, 19, 29, 39, 49, 59, 68, 69, 70, 71]",0,7,7,7,4.522571212000912,,,,,,,,,,,1.3463648589968216,1.3464934880030341,1.3465015499969013,1.3495483699953184,None,1.3496445959899575,1.3496754489897285,None,1.349752403999446,1.349780524004018,None,1.3498537210107315,1.3498799499939196,None,1,001,16,,2024-04-09_13h41.04.066,replicate_nsd,2023.2.3,60.105488258179264,2024-04-09 13h41.17.774270 -0400,
images/18_40 copy.jpg,0,8,0,0,0,"[9, 19, 29, 39, 49, 59, 68, 69, 70, 71]",0,8,8,8,4.522571212000912,,,,,,,,,,,1.3501138479914516,1.350231497985078,1.3502393329981714,1.3530921450001188,None,1.3532122990000062,1.3532507969939616,None,1.3533577519992832,1.3533932860009372,None,1.35349864300224,1.3535326679993887,None,1,001,16,,2024-04-09_13h41.04.066,replicate_nsd,2023.2.3,60.105488258179264,2024-04-09 13h41.17.774270 -0400,
images/blank.jpg,0,9,1,0,0,"[9, 19, 29, 39, 49, 59, 68, 69, 70, 71]",0,9,9,9,4.522571212000912,,,,,,,,,,,1.353825986996526,1.3539857460127678,1.353995573008433,1.3567421489860862,None,1.356860013998812,1.3568994200031739,None,1.3569969389936887,1.357031477993587,None,1.3571232990070712,1.3571557459945325,None,1,001,16,,2024-04-09_13h41.04.066,replicate_nsd,2023.2.3,60.105488258179264,2024-04-09 13h41.17.774270 -0400,
images/pair03 copy 7.jpg,0,10,0,0,0,"[9, 19, 29, 39, 49, 59, 68, 69, 70, 71]",0,10,10,10,4.522571212000912,,,,,,,,,,,1.3574475680070464,1.3576087759865914,1.3576187959988602,1.360806215001503,None,1.3608870719908737,1.3609129110118374,None,1.3609782840067055,1.3610017219907604,None,1.361063168005785,1.3610853359859902,None,1,001,16,,2024-04-09_13h41.04.066,replicate_nsd,2023.2.3,60.105488258179264,2024-04-09 13h41.17.774270 -0400,
images/8_28 copy.jpg,0,11,0,0,0,"[9, 19, 29, 39, 49, 59, 68, 69, 70, 71]",0,11,11,11,4.522571212000912,,,,,,,,,,,1.3612851620127913,1.3614154329989105,1.3614226100035012,1.3638852020085324,None,1.3639657530002296,1.3639910370111465,None,1.3640552810102236,1.3640782170114107,None,1.3641386929957662,1.3641616459935904,None,1,001,16,,2024-04-09_13h41.04.066,replicate_nsd,2023.2.3,60.105488258179264,2024-04-09 13h41.17.774270 -0400,
images/17_28 copy.jpg,0,12,0,0,0,"[9, 19, 29, 39, 49, 59, 68, 69, 70, 71]",0,12,12,12,4.522571212000912,,,,,,,,,,,1.364356690988643,1.3644635610107798,1.364470163010992,1.3669050780008547,None,1.3669813740125392,1.3670064120087773,None,1.3670691100123804,1.3670917220006231,None,1.3671512950095348,1.3671731869981159,None,1,001,16,,2024-04-09_13h41.04.066,replicate_nsd,2023.2.3,60.105488258179264,2024-04-09 13h41.17.774270 -0400,
images/pair11 copy 5.jpg,0,13,0,0,0,"[9, 19, 29, 39, 49, 59, 68, 69, 70, 71]",0,13,13,13,4.522571212000912,,,,,,,,,,,1.3673643599904608,1.3674694359942805,1.367476032988634,1.3710947149957065,None,1.3711795750132296,1.3712055390060414,None,1.3712714870052878,1.3712952740024775,None,1.3713570559921209,1.37137949798489,None,1,001,16,,2024-04-09_13h41.04.066,replicate_nsd,2023.2.3,60.105488258179264,2024-04-09 13h41.17.774270 -0400,
images/pair13.jpg,0,14,0,0,0,"[9, 19, 29, 39, 49, 59, 68, 69, 70, 71]",0,14,14,14,4.522571212000912,,,,,,,,,,,1.3715774299926125,1.371678728988627,1.3716854130034335,1.3744001490122173,None,1.374476989993127,1.3745033470040653,None,1.3745672540098894,1.3745905690011568,None,1.3746512020006776,1.3746730569982901,None,1,001,16,,2024-04-09_13h41.04.066,replicate_nsd,2023.2.3,60.105488258179264,2024-04-09 13h41.17.774270 -0400,
images/8_28 copy 3.jpg,0,15,0,0,0,"[9, 19, 29, 39, 49, 59, 68, 69, 70, 71]",0,15,15,15,4.522571212000912,,,,,,,,,,,1.3748671610082965,1.3749646070064045,1.3749710439878982,1.3772676830121782,None,1.3773439670039807,1.3773686139902566,None,1.3774311559973285,1.3774538850120734,None,1.3775143900129478,1.377536304993555,None,1,001,16,,2024-04-09_13h41.04.066,replicate_nsd,2023.2.3,60.105488258179264,2024-04-09 13h41.17.774270 -0400,
images/23_40 copy.jpg,0,16,0,0,0,"[9, 19, 29, 39, 49, 59, 68, 69, 70, 71]",0,16,16,16,4.522571212000912,,,,,,,,,,,1.377727921004407,1.377824507013429,1.3778309159970377,1.380748271010816,None,1.3808307140134275,1.380857415002538,None,1.3809248360048514,1.3809487530088518,None,1.3810115119849797,1.3810339760093484,None,1,001,16,,2024-04-09_13h41.04.066,replicate_nsd,2023.2.3,60.105488258179264,2024-04-09 13h41.17.774270 -0400,
images/23_40 copy 6.jpg,0,17,0,0,0,"[9, 19, 29, 39, 49, 59, 68, 69, 70, 71]",0,17,17,17,4.522571212000912,,,,,,,,,,,1.3812354840047192,1.3813452940084971,1.3813523029966746,1.3834550809988286,None,1.3835371999884956,1.3835648449894506,None,1.3836319750116672,1.3836559949850198,None,1.383718752011191,1.3837411289860029,None,1,001,16,,2024-04-09_13h41.04.066,replicate_nsd,2023.2.3,60.105488258179264,2024-04-09 13h41.17.774270 -0400,
images/20_40 copy 2.jpg,0,18,0,0,0,"[9, 19, 29, 39, 49, 59, 68, 69, 70, 71]",0,18,18,18,4.522571212000912,,,,,,,,,,,1.3839426840131637,1.3840532540052664,1.3840601590054575,1.3865945700090379,None,1.3866886440082453,1.3867157810018398,None,1.3867839149897918,1.3868162180006038,None,1.3868803929944988,1.3869030089990702,None,1,001,16,,2024-04-09_13h41.04.066,replicate_nsd,2023.2.3,60.105488258179264,2024-04-09 13h41.17.774270 -0400,
images/blank.jpg,0,19,1,0,0,"[9, 19, 29, 39, 49, 59, 68, 69, 70, 71]",0,19,19,19,4.522571212000912,,,,,,,,,,,1.3871031049930025,1.3872033089865,1.3872101689921692,1.3889853520086035,None,1.389067612006329,1.3890941249846946,None,1.3891602180083282,1.389189120993251,None,1.389252889988711,1.3892757809953764,None,1,001,16,,2024-04-09_13h41.04.066,replicate_nsd,2023.2.3,60.105488258179264,2024-04-09 13h41.17.774270 -0400,
images/12_28 copy.jpg,0,20,0,0,0,"[9, 19, 29, 39, 49, 59, 68, 69, 70, 71]",0,20,20,20,4.522571212000912,,,,,,,,,,,1.3894760700059123,1.389586623001378,1.3895935569889843,1.3923890400037635,None,1.3924715130124241,1.3924980089941528,None,1.3925648769945838,1.3925884790078271,None,1.3926516500068828,1.3926755390129983,None,1,001,16,,2024-04-09_13h41.04.066,replicate_nsd,2023.2.3,60.105488258179264,2024-04-09 13h41.17.774270 -0400,
images/6_0 copy 7.jpg,0,21,0,0,0,"[9, 19, 29, 39, 49, 59, 68, 69, 70, 71]",0,21,21,21,4.522571212000912,,,,,,,,,,,1.3928771159844473,1.3929793139977846,1.3929863650118932,1.3956911400018726,None,1.3957728680106811,1.3957988049951382,None,1.3958656179893296,1.3958897599950433,None,1.39595254699816,1.395975194987841,None,1,001,16,,2024-04-09_13h41.04.066,replicate_nsd,2023.2.3,60.105488258179264,2024-04-09 13h41.17.774270 -0400,
images/15_28 copy 3.jpg,0,22,0,0,0,"[9, 19, 29, 39, 49, 59, 68, 69, 70, 71]",0,22,22,22,4.522571212000912,,,,,,,,,,,1.3961772450129502,1.3962878219899721,1.396294737001881,1.398899663996417,None,1.3989818230038509,1.3990081769879907,None,1.3990741460002027,1.3990977339853998,None,1.399160227010725,1.399182444991311,None,1,001,16,,2024-04-09_13h41.04.066,replicate_nsd,2023.2.3,60.105488258179264,2024-04-09 13h41.17.774270 -0400,
images/14_28 copy 5.jpg,0,23,0,0,0,"[9, 19, 29, 39, 49, 59, 68, 69, 70, 71]",0,23,23,23,4.522571212000912,,,,,,,,,,,1.399383076990489,1.3994833450124133,1.399490148993209,1.4021684619947337,None,1.4022506969922688,1.4022769189905375,None,1.4023431609966792,1.4023675229982473,None,1.4024300609889906,1.4024525900022127,None,1,001,16,,2024-04-09_13h41.04.066,replicate_nsd,2023.2.3,60.105488258179264,2024-04-09 13h41.17.774270 -0400,
images/11_0 copy 2.jpg,0,24,0,0,0,"[9, 19, 29, 39, 49, 59, 68, 69, 70, 71]",0,24,24,24,4.522571212000912,,,,,,,,,,,1.4026546030072495,1.4027648899937049,1.4027717919962015,1.405570811999496,None,1.4056526549975388,1.4056796460063197,None,1.4057463800127152,1.4057703819999006,None,1.4058332639979199,1.4058554710063618,None,1,001,16,,2024-04-09_13h41.04.066,replicate_nsd,2023.2.3,60.105488258179264,2024-04-09 13h41.17.774270 -0400,
images/23_40 copy 4.jpg,0,25,0,0,0,"[9, 19, 29, 39, 49, 59, 68, 69, 70, 71]",0,25,25,25,4.522571212000912,,,,,,,,,,,1.406055567000294,1.4061564219882712,1.4061633560049813,1.4084461359889247,None,1.4085289099893998,1.4085555050114635,None,1.4086223659978714,1.4086461559927557,None,1.4087094299902674,1.4087320170074236,None,1,001,16,,2024-04-09_13h41.04.066,replicate_nsd,2023.2.3,60.105488258179264,2024-04-09 13h41.17.774270 -0400,
images/14_40 copy 7.jpg,0,26,0,0,0,"[9, 19, 29, 39, 49, 59, 68, 69, 70, 71]",0,26,26,26,4.522571212000912,,,,,,,,,,,1.4089328499976546,1.4090422070003115,1.4090489470108878,1.4113541360129602,None,1.4114364580018446,1.411462885007495,None,1.411530011013383,1.4115539850026835,None,1.4116180700075347,1.4116407399997115,None,1,001,16,,2024-04-09_13h41.04.066,replicate_nsd,2023.2.3,60.105488258179264,2024-04-09 13h41.17.774270 -0400,
images/24_40 copy 7.jpg,0,27,0,0,0,"[9, 19, 29, 39, 49, 59, 68, 69, 70, 71]",0,27,27,27,4.522571212000912,,,,,,,,,,,1.4118433769908734,1.4119523869885597,1.4119593059876934,1.4146195570065174,None,1.414700958004687,1.4147274839924648,None,1.4147946960001718,1.4148189800034743,None,1.4148827969911508,1.4149054329900537,None,1,001,16,,2024-04-09_13h41.04.066,replicate_nsd,2023.2.3,60.105488258179264,2024-04-09 13h41.17.774270 -0400,
images/21_0 copy 6.jpg,0,28,0,0,0,"[9, 19, 29, 39, 49, 59, 68, 69, 70, 71]",0,28,28,28,4.522571212000912,,,,,,,,,,,1.4151076969865244,1.4152084910019767,1.4152152779861353,1.4178250420081895,None,1.4179077509907074,1.4179339600086678,None,1.4180019449850079,1.418026789004216,None,1.4180911479925271,1.4181138289859518,None,1,001,16,,2024-04-09_13h41.04.066,replicate_nsd,2023.2.3,60.105488258179264,2024-04-09 13h41.17.774270 -0400,
images/blank.jpg,0,29,1,0,0,"[9, 19, 29, 39, 49, 59, 68, 69, 70, 71]",0,29,29,29,4.522571212000912,,,,,,,,,,,1.4183143819973338,1.41842444500071,1.4184313789883163,1.4201574159960728,None,1.420241713989526,1.4202683930052444,None,1.420335486996919,1.4203593370039016,None,1.420422889990732,1.4204455110011622,None,1,001,16,,2024-04-09_13h41.04.066,replicate_nsd,2023.2.3,60.105488258179264,2024-04-09 13h41.17.774270 -0400,
images/9_0 copy 7.jpg,0,30,0,0,0,"[9, 19, 29, 39, 49, 59, 68, 69, 70, 71]",0,30,30,30,4.522571212000912,,,,,,,,,,,1.4206535599951167,1.420763997011818,1.4207708099856973,1.423311616992578,None,1.4233990460052155,1.4234251620073337,None,1.423492553003598,1.4235164799902122,None,1.4235803489864338,1.4236028789891861,None,1,001,16,,2024-04-09_13h41.04.066,replicate_nsd,2023.2.3,60.105488258179264,2024-04-09 13h41.17.774270 -0400,
images/17_12 copy 3.jpg,0,31,0,0,0,"[9, 19, 29, 39, 49, 59, 68, 69, 70, 71]",0,31,31,31,4.522571212000912,,,,,,,,,,,1.423810924985446,1.4239142019941937,1.4239206979982555,1.4263335579889826,None,1.4264148529910017,1.4264419320097659,None,1.4265094439906534,1.4265331770002376,None,1.4265968989930116,1.426619664998725,None,1,001,16,,2024-04-09_13h41.04.066,replicate_nsd,2023.2.3,60.105488258179264,2024-04-09 13h41.17.774270 -0400,
images/16_28 copy 6.jpg,0,32,0,0,0,"[9, 19, 29, 39, 49, 59, 68, 69, 70, 71]",0,32,32,32,4.522571212000912,,,,,,,,,,,1.42682357999729,1.426944328006357,1.4269509910081979,1.4293626470025629,None,1.429462172993226,1.4294937920058146,None,1.4295719740039203,1.4296000869944692,None,1.4296729550114833,1.4296992550080176,None,1,001,16,,2024-04-09_13h41.04.066,replicate_nsd,2023.2.3,60.105488258179264,2024-04-09 13h41.17.774270 -0400,
images/24_40 copy 7.jpg,0,33,0,0,0,"[9, 19, 29, 39, 49, 59, 68, 69, 70, 71]",0,33,33,33,4.522571212000912,,,,,,,,,,,1.4299364059988875,1.4300802189973183,1.4300871739978902,1.4319456689991057,None,1.4320281010004692,1.4320541950000916,None,1.4321214229858015,1.432145380997099,None,1.4322086120082531,1.4322311040014029,None,1,001,16,,2024-04-09_13h41.04.066,replicate_nsd,2023.2.3,60.105488258179264,2024-04-09 13h41.17.774270 -0400,
images/pair10.jpg,0,34,0,0,0,"[9, 19, 29, 39, 49, 59, 68, 69, 70, 71]",0,34,34,34,4.522571212000912,,,,,,,,,,,1.4324338730075397,1.4325447180017363,1.4325516099925153,1.4358745949866716,None,1.4359568909858353,1.4359832459886093,None,1.4360510440019425,1.4360747459868435,None,1.436138563993154,1.4361612469947431,None,1,001,16,,2024-04-09_13h41.04.066,replicate_nsd,2023.2.3,60.105488258179264,2024-04-09 13h41.17.774270 -0400,
images/9_12 copy 2.jpg,0,35,0,0,0,"[9, 19, 29, 39, 49, 59, 68, 69, 70, 71]",0,35,35,35,4.522571212000912,,,,,,,,,,,1.43636196499574,1.4364744900085498,1.4364812900021207,1.4396880749845877,None,1.4397700779954903,1.439796499995282,None,1.4398636000114493,1.4398871650046203,None,1.439950038009556,1.4399729819851927,None,1,001,16,,2024-04-09_13h41.04.066,replicate_nsd,2023.2.3,60.105488258179264,2024-04-09 13h41.17.774270 -0400,
images/13_40 copy.jpg,0,36,0,0,0,"[9, 19, 29, 39, 49, 59, 68, 69, 70, 71]",0,36,36,36,4.522571212000912,,,,,,,,,,,1.4401749899843708,1.4402862929855473,1.4402930210053455,1.4430544200004078,None,1.443136735004373,1.4431635510118213,None,1.4432305980008096,1.443254429002991,None,1.4433171160053462,1.4433396559907123,None,1,001,16,,2024-04-09_13h41.04.066,replicate_nsd,2023.2.3,60.105488258179264,2024-04-09 13h41.17.774270 -0400,
images/pair01.jpg,0,37,0,0,0,"[9, 19, 29, 39, 49, 59, 68, 69, 70, 71]",0,37,37,37,4.522571212000912,,,,,,,,,,,1.4435400489892345,1.4436424440064002,1.443649118009489,1.4474169760069344,None,1.4474989479931537,1.4475254360004328,None,1.4475935210066382,1.4476173800067045,None,1.4476809760089964,1.4477039529883768,None,1,001,16,,2024-04-09_13h41.04.066,replicate_nsd,2023.2.3,60.105488258179264,2024-04-09 13h41.17.774270 -0400,
images/14_40 copy 7.jpg,0,38,0,0,0,"[9, 19, 29, 39, 49, 59, 68, 69, 70, 71]",0,38,38,38,4.522571212000912,,,,,,,,,,,1.4479071520036086,1.4480180339887738,1.4480250180058647,1.4505528179870453,None,1.4506357939972077,1.4506627790105995,None,1.4507310999906622,1.4507563959923573,None,1.4508206770115066,1.4508434619929176,None,1,001,16,,2024-04-09_13h41.04.066,replicate_nsd,2023.2.3,60.105488258179264,2024-04-09 13h41.17.774270 -0400,
images/blank.jpg,0,39,1,0,0,"[9, 19, 29, 39, 49, 59, 68, 69, 70, 71]",0,39,39,39,4.522571212000912,,,,,,,,,,,1.4510460110032,1.4511573899944779,1.451164330006577,1.4530414720065892,None,1.4531233810121194,1.453149545006454,None,1.453215615998488,1.4532388169900514,None,1.4533016679924913,1.4533239899901673,None,1,001,16,,2024-04-09_13h41.04.066,replicate_nsd,2023.2.3,60.105488258179264,2024-04-09 13h41.17.774270 -0400,
images/pair15 copy 7.jpg,0,40,0,0,0,"[9, 19, 29, 39, 49, 59, 68, 69, 70, 71]",0,40,40,40,4.522571212000912,,,,,,,,,,,1.4535447089874651,1.4536450959858485,1.4536518359964248,1.4575319279974792,None,1.4576148400083184,1.4576408530119807,None,1.4577096849970985,1.4577342240081634,None,1.4577980310132261,1.4578206099977251,None,1,001,16,,2024-04-09_13h41.04.066,replicate_nsd,2023.2.3,60.105488258179264,2024-04-09 13h41.17.774270 -0400,
images/15_0 copy.jpg,0,41,0,0,0,"[9, 19, 29, 39, 49, 59, 68, 69, 70, 71]",0,41,41,41,4.522571212000912,,,,,,,,,,,1.4580222019867506,1.4581315830000676,1.4581385230121668,1.4611955280124675,None,1.4612780039897189,1.461304383003153,None,1.4613714019942563,1.4613950150087476,None,1.4614584220107645,1.46148153100512,None,1,001,16,,2024-04-09_13h41.04.066,replicate_nsd,2023.2.3,60.105488258179264,2024-04-09 13h41.17.774270 -0400,
images/21_40.jpg,0,42,0,0,0,"[9, 19, 29, 39, 49, 59, 68, 69, 70, 71]",0,42,42,42,4.522571212000912,,,,,,,,,,,1.4616828419966623,1.461783534992719,1.4617901630117558,1.4646287609939463,None,1.4647111860103905,1.4647374259948265,None,1.4648052190023009,1.464829506992828,None,1.4648934710130561,1.4649161669949535,None,1,001,16,,2024-04-09_13h41.04.066,replicate_nsd,2023.2.3,60.105488258179264,2024-04-09 13h41.17.774270 -0400,
images/21_28 copy 7.jpg,0,43,0,0,0,"[9, 19, 29, 39, 49, 59, 68, 69, 70, 71]",0,43,43,43,4.522571212000912,,,,,,,,,,,1.46511853300035,1.4652297080028802,1.4652364260109607,1.4677305310033262,None,1.4678121370088775,1.4678384650032967,None,1.4679044270014856,1.4679280369891785,None,1.4679914060106967,1.4680140140117146,None,1,001,16,,2024-04-09_13h41.04.066,replicate_nsd,2023.2.3,60.105488258179264,2024-04-09 13h41.17.774270 -0400,
images/pair18 copy 2.jpg,0,44,0,0,0,"[9, 19, 29, 39, 49, 59, 68, 69, 70, 71]",0,44,44,44,4.522571212000912,,,,,,,,,,,1.4682154780020937,1.4683251990063582,1.4683320909971371,1.4721332979970612,None,1.4722159010125324,1.4722424040082842,None,1.4723100929986686,1.4723346089886036,None,1.4723989749909379,1.4724221049982589,None,1,001,16,,2024-04-09_13h41.04.066,replicate_nsd,2023.2.3,60.105488258179264,2024-04-09 13h41.17.774270 -0400,
images/20_28 copy 4.jpg,0,45,0,0,0,"[9, 19, 29, 39, 49, 59, 68, 69, 70, 71]",0,45,45,45,4.522571212000912,,,,,,,,,,,1.472625346010318,1.4727246619877405,1.472731243004091,1.475942294986453,None,1.4760240899922792,1.4760500859993044,None,1.4761181499925442,1.4761419899878092,None,1.476206661987817,1.476229602994863,None,1,001,16,,2024-04-09_13h41.04.066,replicate_nsd,2023.2.3,60.105488258179264,2024-04-09 13h41.17.774270 -0400,
images/6_40 copy 4.jpg,0,46,0,0,0,"[9, 19, 29, 39, 49, 59, 68, 69, 70, 71]",0,46,46,46,4.522571212000912,,,,,,,,,,,1.476432194991503,1.476542894000886,1.4765494840103202,1.4794333110039588,None,1.4795154469902627,1.4795415370026603,None,1.479609055997571,1.4796331670077052,None,1.4796963430126198,1.4797190749959555,None,1,001,16,,2024-04-09_13h41.04.066,replicate_nsd,2023.2.3,60.105488258179264,2024-04-09 13h41.17.774270 -0400,
images/10_28 copy 4.jpg,0,47,0,0,0,"[9, 19, 29, 39, 49, 59, 68, 69, 70, 71]",0,47,47,47,4.522571212000912,,,,,,,,,,,1.4799206260067876,1.480030031001661,1.4800367470015772,1.4825859699922148,None,1.482667845004471,1.4826938149926718,None,1.4827612660010345,1.482785142987268,None,1.482849232997978,1.4828720719960984,None,1,001,16,,2024-04-09_13h41.04.066,replicate_nsd,2023.2.3,60.105488258179264,2024-04-09 13h41.17.774270 -0400,
images/21_12 copy 4.jpg,0,48,0,0,0,"[9, 19, 29, 39, 49, 59, 68, 69, 70, 71]",0,48,48,48,4.522571212000912,,,,,,,,,,,1.483084356004838,1.4832000930036884,1.4832068420073483,1.4858845570124686,None,1.485966534994077,1.485993165988475,None,1.486060164985247,1.4860841360059567,None,1.4861482859996613,1.4861708969983738,None,1,001,16,,2024-04-09_13h41.04.066,replicate_nsd,2023.2.3,60.105488258179264,2024-04-09 13h41.17.774270 -0400,
images/blank.jpg,0,49,1,0,0,"[9, 19, 29, 39, 49, 59, 68, 69, 70, 71]",0,49,49,49,4.522571212000912,,,,,,,,,,,1.4863732130033895,1.4864834230102133,1.4864902319968678,1.488182853005128,None,1.4882653999957256,1.4882923570112325,None,1.4883597749867477,1.4883843600109685,None,1.4884485630027484,1.488471410004422,None,1,001,16,,2024-04-09_13h41.04.066,replicate_nsd,2023.2.3,60.105488258179264,2024-04-09 13h41.17.774270 -0400,
images/7_0 copy 3.jpg,0,50,0,0,0,"[9, 19, 29, 39, 49, 59, 68, 69, 70, 71]",0,50,50,50,4.522571212000912,,,,,,,,,,,1.488673509011278,1.4887837459973525,1.4887905140058137,1.4914452960074414,None,1.4915273799852002,1.4915534849860705,None,1.491619967011502,1.491644024004927,None,1.4917065300105605,1.4917288710130379,None,1,001,16,,2024-04-09_13h41.04.066,replicate_nsd,2023.2.3,60.105488258179264,2024-04-09 13h41.17.774270 -0400,
images/22_12 copy 7.jpg,0,51,0,0,0,"[9, 19, 29, 39, 49, 59, 68, 69, 70, 71]",0,51,51,51,4.522571212000912,,,,,,,,,,,1.4919316029991023,1.4920404749864247,1.4920472649973817,1.4942802950099576,None,1.4943625509913545,1.4943894089956302,None,1.4944561599986628,1.494480063993251,None,1.4945433579850942,1.494565972010605,None,1,001,16,,2024-04-09_13h41.04.066,replicate_nsd,2023.2.3,60.105488258179264,2024-04-09 13h41.17.774270 -0400,
images/18_28 copy.jpg,0,52,0,0,0,"[9, 19, 29, 39, 49, 59, 68, 69, 70, 71]",0,52,52,52,4.522571212000912,,,,,,,,,,,1.4947655909927562,1.4948757200036198,1.494882705010241,1.4971398760098964,None,1.4972222069918644,1.4972487229970284,None,1.4973152919847053,1.497339343011845,None,1.4974019190121908,1.4974241660092957,None,1,001,16,,2024-04-09_13h41.04.066,replicate_nsd,2023.2.3,60.105488258179264,2024-04-09 13h41.17.774270 -0400,
images/10_28 copy.jpg,0,53,0,0,0,"[9, 19, 29, 39, 49, 59, 68, 69, 70, 71]",0,53,53,53,4.522571212000912,,,,,,,,,,,1.4976248329912778,1.4977350700064562,1.4977416899928357,1.4999827530118637,None,1.5000647180131637,1.5000906350032892,None,1.5001571839966346,1.5001807679946069,None,1.5002440779935569,1.5002664109924808,None,1,001,16,,2024-04-09_13h41.04.066,replicate_nsd,2023.2.3,60.105488258179264,2024-04-09 13h41.17.774270 -0400,
images/pair11 copy 2.jpg,0,54,0,0,0,"[9, 19, 29, 39, 49, 59, 68, 69, 70, 71]",0,54,54,54,4.522571212000912,,,,,,,,,,,1.5004729710053653,1.5005832969909534,1.500590157986153,1.503752346005058,None,1.5038353790005203,1.5038618230028078,None,1.5039289009873755,1.503952680999646,None,1.5040164579986595,1.5040391999937128,None,1,001,16,,2024-04-09_13h41.04.066,replicate_nsd,2023.2.3,60.105488258179264,2024-04-09 13h41.17.774270 -0400,
images/15_0.jpg,0,55,0,0,0,"[9, 19, 29, 39, 49, 59, 68, 69, 70, 71]",0,55,55,55,4.522571212000912,,,,,,,,,,,1.5042410290043335,1.504351993004093,1.5043588640110102,1.507206826005131,None,1.5072893970063888,1.507316194998566,None,1.507384339987766,1.5074084519874305,None,1.5074713320063893,1.5074941359926015,None,1,001,16,,2024-04-09_13h41.04.066,replicate_nsd,2023.2.3,60.105488258179264,2024-04-09 13h41.17.774270 -0400,
images/15_12 copy 3.jpg,0,56,0,0,0,"[9, 19, 29, 39, 49, 59, 68, 69, 70, 71]",0,56,56,56,4.522571212000912,,,,,,,,,,,1.5076956870034337,1.507807246001903,1.5078139879915398,1.510636564984452,None,1.5107193010044284,1.5107454750104807,None,1.5108122729870956,1.5108360050071497,None,1.5108985459955875,1.5109209200018086,None,1,001,16,,2024-04-09_13h41.04.066,replicate_nsd,2023.2.3,60.105488258179264,2024-04-09 13h41.17.774270 -0400,
images/18_40 copy 4.jpg,0,57,0,0,0,"[9, 19, 29, 39, 49, 59, 68, 69, 70, 71]",0,57,57,57,4.522571212000912,,,,,,,,,,,1.511160864989506,1.5112635960103944,1.511270279996097,1.513619020988699,None,1.5137017499946523,1.513728190009715,None,1.5137963090091944,1.513820054999087,None,1.5138840019935742,1.5139063250098843,None,1,001,16,,2024-04-09_13h41.04.066,replicate_nsd,2023.2.3,60.105488258179264,2024-04-09 13h41.17.774270 -0400,
images/23_28 copy 3.jpg,0,58,0,0,0,"[9, 19, 29, 39, 49, 59, 68, 69, 70, 71]",0,58,58,58,4.522571212000912,,,,,,,,,,,1.5141108119860291,1.514221841993276,1.5142285090114456,1.5169968259870075,None,1.517079217999708,1.5171056000108365,None,1.5171726609987672,1.517196292988956,None,1.5172595400072169,1.517283346009208,None,1,001,16,,2024-04-09_13h41.04.066,replicate_nsd,2023.2.3,60.105488258179264,2024-04-09 13h41.17.774270 -0400,
images/blank.jpg,0,59,1,0,0,"[9, 19, 29, 39, 49, 59, 68, 69, 70, 71]",0,59,59,59,4.522571212000912,,,,,,,,,,,1.5174873959913384,1.5175988039991353,1.5176056869968306,1.5193074790004175,None,1.5193899399891961,1.5194162350089755,None,1.5194828000094276,1.5195067290042061,None,1.5195700179901905,1.5195926259912085,None,1,001,16,,2024-04-09_13h41.04.066,replicate_nsd,2023.2.3,60.105488258179264,2024-04-09 13h41.17.774270 -0400,
images/15_28 copy 4.jpg,0,60,0,0,0,"[9, 19, 29, 39, 49, 59, 68, 69, 70, 71]",0,60,60,60,4.522571212000912,,,,,,,,,,,1.5197939979843795,1.5198951360071078,1.5199017970007844,1.5226408219896257,None,1.522722777997842,1.5227493300044443,None,1.5228164639847819,1.522840207995614,None,1.5229033759969752,1.5229260449996218,None,1,001,16,,2024-04-09_13h41.04.066,replicate_nsd,2023.2.3,60.105488258179264,2024-04-09 13h41.17.774270 -0400,
images/6_40 copy.jpg,0,61,0,0,0,"[9, 19, 29, 39, 49, 59, 68, 69, 70, 71]",0,61,61,61,4.522571212000912,,,,,,,,,,,1.5231260650034528,1.5232265669910703,1.5232333849999122,1.52556238201214,None,1.5256449530133978,1.5256710700050462,None,1.5257378290116321,1.5257615500013344,None,1.5258244439901318,1.5258469649998005,None,1,001,16,,2024-04-09_13h41.04.066,replicate_nsd,2023.2.3,60.105488258179264,2024-04-09 13h41.17.774270 -0400,
images/13_28.jpg,0,62,0,0,0,"[9, 19, 29, 39, 49, 59, 68, 69, 70, 71]",0,62,62,62,4.522571212000912,,,,,,,,,,,1.5260481020086445,1.5261582479870412,1.5261649029853288,1.5287744759989437,None,1.5288567609968595,1.5288832999940496,None,1.5289508129935712,1.5289751339878421,None,1.5290386459964793,1.5290611689852085,None,1,001,16,,2024-04-09_13h41.04.066,replicate_nsd,2023.2.3,60.105488258179264,2024-04-09 13h41.17.774270 -0400,
images/24_0 copy 7.jpg,0,63,0,0,0,"[9, 19, 29, 39, 49, 59, 68, 69, 70, 71]",0,63,63,63,4.522571212000912,,,,,,,,,,,1.529263186006574,1.5293746200040914,1.5293814709875733,1.5319445499917492,None,1.5320271470118314,1.5320538250089157,None,1.53212073398754,1.5321448099857662,None,1.5322083359933458,1.5322307609894779,None,1,001,16,,2024-04-09_13h41.04.066,replicate_nsd,2023.2.3,60.105488258179264,2024-04-09 13h41.17.774270 -0400,
images/5_12 copy 7.jpg,0,64,0,0,0,"[9, 19, 29, 39, 49, 59, 68, 69, 70, 71]",0,64,64,64,4.522571212000912,,,,,,,,,,,1.5324324340035673,1.5325329699844588,1.5325397530104965,1.5354241559980437,None,1.5355064850009512,1.5355327719880734,None,1.5356000530009624,1.5356240379915107,None,1.5356868100061547,1.5357089489989448,None,1,001,16,,2024-04-09_13h41.04.066,replicate_nsd,2023.2.3,60.105488258179264,2024-04-09 13h41.17.774270 -0400,
images/18_0 copy.jpg,0,65,0,0,0,"[9, 19, 29, 39, 49, 59, 68, 69, 70, 71]",0,65,65,65,4.522571212000912,,,,,,,,,,,1.5359101409849245,1.5360118680109736,1.536018498998601,1.5385339980130084,None,1.538617089012405,1.5386434840038419,None,1.538710919994628,1.5387346720090136,None,1.538798821013188,1.5388212669931818,None,1,001,16,,2024-04-09_13h41.04.066,replicate_nsd,2023.2.3,60.105488258179264,2024-04-09 13h41.17.774270 -0400,
images/pair13 copy 7.jpg,0,66,0,0,0,"[9, 19, 29, 39, 49, 59, 68, 69, 70, 71]",0,66,66,66,4.522571212000912,,,,,,,,,,,1.5390246209863108,1.5391346660035197,1.539141610992374,1.542318247986259,None,1.5424009340058547,1.5424269800132606,None,1.5424946179846302,1.542518097005086,None,1.5425818740040995,1.5426046059874352,None,1,001,16,,2024-04-09_13h41.04.066,replicate_nsd,2023.2.3,60.105488258179264,2024-04-09 13h41.17.774270 -0400,
images/18_40 copy 2.jpg,0,67,0,0,0,"[9, 19, 29, 39, 49, 59, 68, 69, 70, 71]",0,67,67,67,4.522571212000912,,,,,,,,,,,1.542808035010239,1.5429187080007978,1.5429253990005236,1.5458079180098139,None,1.5458902720129117,1.5459167379885912,None,1.5459836639929563,1.5460071960114874,None,1.5460707810125314,1.5460932170099113,None,1,001,16,,2024-04-09_13h41.04.066,replicate_nsd,2023.2.3,60.105488258179264,2024-04-09 13h41.17.774270 -0400,
images/blank.jpg,0,68,1,0,0,"[9, 19, 29, 39, 49, 59, 68, 69, 70, 71]",0,68,68,68,4.522571212000912,,,,,,,,,,,1.5462962609890383,1.5464069379959255,1.5464136679947842,1.548380146996351,None,1.54846281700884,1.5484893259999808,None,1.5485559249937069,1.5485799220041372,None,1.5486436070059426,1.548665604001144,None,1,001,16,,2024-04-09_13h41.04.066,replicate_nsd,2023.2.3,60.105488258179264,2024-04-09 13h41.17.774270 -0400,
images/blank.jpg,0,69,1,0,0,"[9, 19, 29, 39, 49, 59, 68, 69, 70, 71]",0,69,69,69,4.522571212000912,,,,,,,,,,,1.5488670440099668,1.5489678269950673,1.5489744340011384,1.5506863849877845,None,1.55076904600719,1.5507951230101753,None,1.550862178002717,1.550885725999251,None,1.5509490089898463,1.5509718029934447,None,1,001,16,,2024-04-09_13h41.04.066,replicate_nsd,2023.2.3,60.105488258179264,2024-04-09 13h41.17.774270 -0400,
images/blank.jpg,0,70,1,0,0,"[9, 19, 29, 39, 49, 59, 68, 69, 70, 71]",0,70,70,70,4.522571212000912,,,,,,,,,,,1.551174997992348,1.5512849139922764,1.5512917609885335,1.5530360869888682,None,1.5531189980101772,1.553145563986618,None,1.5532132599910256,1.5532370870059822,None,1.5533015849941876,1.5533247150015086,None,1,001,16,,2024-04-09_13h41.04.066,replicate_nsd,2023.2.3,60.105488258179264,2024-04-09 13h41.17.774270 -0400,
images/blank.jpg,0,71,1,1,0,"[9, 19, 29, 39, 49, 59, 68, 69, 70, 71]",0,71,71,71,4.522571212000912,,,,,,,,,,,1.553546612005448,1.5536470410006586,1.5536534329876304,1.5553665070037823,None,1.5554489319911227,1.5554752209864091,None,1.555542026006151,1.5555655579955783,None,1.5556287830113433,1.5556513929914217,None,1,001,16,,2024-04-09_13h41.04.066,replicate_nsd,2023.2.3,60.105488258179264,2024-04-09 13h41.17.774270 -0400,
images/22_40 copy.jpg,0,0,0,0,1,"[9, 19, 31, 42, 56, 68, 69, 70, 71]",0,72,72,72,4.522571212000912,,,,,,,,,,,1.5558549760025926,1.55596557300305,1.555972419999307,1.5578785020043142,None,1.5579607099934947,1.5579874019895215,None,1.5580536230118014,1.5580779520096257,None,1.5581413450127002,1.5581640189921018,None,1,001,16,,2024-04-09_13h41.04.066,replicate_nsd,2023.2.3,60.105488258179264,2024-04-09 13h41.17.774270 -0400,
images/8_0 copy 3.jpg,0,1,0,0,1,"[9, 19, 31, 42, 56, 68, 69, 70, 71]",0,73,73,73,4.522571212000912,,,,,,,,,,,1.558366189012304,1.5584761470090598,1.5584829839935992,1.5611629629856907,None,1.5612454389920458,1.5612715269962791,None,1.5613388050114736,1.5613626650010701,None,1.561426175001543,1.5614486259873956,None,1,001,16,,2024-04-09_13h41.04.066,replicate_nsd,2023.2.3,60.105488258179264,2024-04-09 13h41.17.774270 -0400,
images/14_0 copy 2.jpg,0,2,0,0,1,"[9, 19, 31, 42, 56, 68, 69, 70, 71]",0,74,74,74,4.522571212000912,,,,,,,,,,,1.5616504079953302,1.5617509949952364,1.5617576249933336,1.564273158001015,None,1.564354614005424,1.5643809759931173,None,1.5644477210007608,1.5644713600049727,None,1.5645336970046628,1.5645557169918902,None,1,001,16,,2024-04-09_13h41.04.066,replicate_nsd,2023.2.3,60.105488258179264,2024-04-09 13h41.17.774270 -0400,
images/5_28 copy 3.jpg,0,3,0,0,1,"[9, 19, 31, 42, 56, 68, 69, 70, 71]",0,75,75,75,4.522571212000912,,,,,,,,,,,1.5647558670025319,1.5648659500002395,1.5648726400104351,1.567539465992013,None,1.5676216559950262,1.5676477740053087,None,1.567714672011789,1.5677386290044524,None,1.567800944991177,1.5678232079953887,None,1,001,16,,2024-04-09_13h41.04.066,replicate_nsd,2023.2.3,60.105488258179264,2024-04-09 13h41.17.774270 -0400,
images/20_28 copy 4.jpg,0,4,0,0,1,"[9, 19, 31, 42, 56, 68, 69, 70, 71]",0,76,76,76,4.522571212000912,,,,,,,,,,,1.5680239190114662,1.5681349450023845,1.5681416149891447,1.5701255899912212,None,1.5702162949892227,1.570243466005195,None,1.5703097450023051,1.5703332280099858,None,1.5703968860034365,1.5704213370045181,None,1,001,16,,2024-04-09_13h41.04.066,replicate_nsd,2023.2.3,60.105488258179264,2024-04-09 13h41.17.774270 -0400,
images/8_0 copy.jpg,0,5,0,0,1,"[9, 19, 31, 42, 56, 68, 69, 70, 71]",0,77,77,77,4.522571212000912,,,,,,,,,,,1.5706285779888276,1.5707373220066074,1.5707440119876992,1.5731130439962726,None,1.5731943339924328,1.5732205690001138,None,1.573287242994411,1.573310792009579,None,1.5733742419979535,1.5733969509892631,None,1,001,16,,2024-04-09_13h41.04.066,replicate_nsd,2023.2.3,60.105488258179264,2024-04-09 13h41.17.774270 -0400,
images/12_40 copy 3.jpg,0,6,0,0,1,"[9, 19, 31, 42, 56, 68, 69, 70, 71]",0,78,78,78,4.522571212000912,,,,,,,,,,,1.5735998759919312,1.5737004299880937,1.5737070699979085,1.5762874229985755,None,1.5763696870126296,1.576395940996008,None,1.576462842989713,1.576486942009069,None,1.576550688012503,1.5765733050066046,None,1,001,16,,2024-04-09_13h41.04.066,replicate_nsd,2023.2.3,60.105488258179264,2024-04-09 13h41.17.774270 -0400,
images/13_40 copy 7.jpg,0,7,0,0,1,"[9, 19, 31, 42, 56, 68, 69, 70, 71]",0,79,79,79,4.522571212000912,,,,,,,,,,,1.576774385990575,1.576884415000677,1.5768912810017355,1.5791883610072546,None,1.5792702460021246,1.5792966049921233,None,1.5793625839869492,1.5793861109996215,None,1.579448472999502,1.5794709580077324,None,1,001,16,,2024-04-09_13h41.04.066,replicate_nsd,2023.2.3,60.105488258179264,2024-04-09 13h41.17.774270 -0400,
images/15_12 copy 3.jpg,0,8,0,0,1,"[9, 19, 31, 42, 56, 68, 69, 70, 71]",0,80,80,80,4.522571212000912,,,,,,,,,,,1.579671891988255,1.5797823329921812,1.5797891399997752,1.581767197989393,None,1.581849328998942,1.5818759120011237,None,1.5819427479873411,1.5819665000017267,None,1.5820301519997884,1.5820525469898712,None,1,001,16,,2024-04-09_13h41.04.066,replicate_nsd,2023.2.3,60.105488258179264,2024-04-09 13h41.17.774270 -0400,
images/blank.jpg,0,9,1,0,1,"[9, 19, 31, 42, 56, 68, 69, 70, 71]",0,81,81,81,4.522571212000912,,,,,,,,,,,1.582255362009164,1.5823655640124343,1.582372361997841,1.584003288007807,None,1.5840859079908114,1.5841123939899262,None,1.584179741999833,1.584203411010094,None,1.5842673069855664,1.5842900880088564,None,1,001,16,,2024-04-09_13h41.04.066,replicate_nsd,2023.2.3,60.105488258179264,2024-04-09 13h41.17.774270 -0400,
images/12_12 copy 2.jpg,0,10,0,0,1,"[9, 19, 31, 42, 56, 68, 69, 70, 71]",0,82,82,82,4.522571212000912,,,,,,,,,,,1.5844931890023872,1.5846034419955686,1.5846100919879973,1.5870474360126536,None,1.5871283400047105,1.5871541560045443,None,1.587220310990233,1.587244266003836,None,1.587307222012896,1.5873298030055594,None,1,001,16,,2024-04-09_13h41.04.066,replicate_nsd,2023.2.3,60.105488258179264,2024-04-09 13h41.17.774270 -0400,
images/6_40 copy 6.jpg,0,11,0,0,1,"[9, 19, 31, 42, 56, 68, 69, 70, 71]",0,83,83,83,4.522571212000912,,,,,,,,,,,1.5875290900003165,1.5876382869901136,1.5876452249940485,1.5898567349941004,None,1.5899386100063566,1.5899654589884449,None,1.5900330859876703,1.5900569479854312,None,1.5901201560045592,1.5901428940123878,None,1,001,16,,2024-04-09_13h41.04.066,replicate_nsd,2023.2.3,60.105488258179264,2024-04-09 13h41.17.774270 -0400,
images/6_28 copy 6.jpg,0,12,0,0,1,"[9, 19, 31, 42, 56, 68, 69, 70, 71]",0,84,84,84,4.522571212000912,,,,,,,,,,,1.590346534998389,1.5904565700038802,1.5904633789905347,1.5929973679885734,None,1.5930797139881179,1.593106476997491,None,1.593174398993142,1.5931985870120116,None,1.5932625900022686,1.5932851189863868,None,1,001,16,,2024-04-09_13h41.04.066,replicate_nsd,2023.2.3,60.105488258179264,2024-04-09 13h41.17.774270 -0400,
images/19_12 copy 6.jpg,0,13,0,0,1,"[9, 19, 31, 42, 56, 68, 69, 70, 71]",0,85,85,85,4.522571212000912,,,,,,,,,,,1.5934872869984247,1.5935878249874804,1.5935946030076593,1.5959965999936685,None,1.5960778899898287,1.59610390898888,None,1.5961700929910876,1.5961939799890388,None,1.5962572369899135,1.5962801339919679,None,1,001,16,,2024-04-09_13h41.04.066,replicate_nsd,2023.2.3,60.105488258179264,2024-04-09 13h41.17.774270 -0400,
images/pair08 copy.jpg,0,14,0,0,1,"[9, 19, 31, 42, 56, 68, 69, 70, 71]",0,86,86,86,4.522571212000912,,,,,,,,,,,1.5964811159938108,1.5965840620046947,1.596590731991455,1.600143207993824,None,1.6002229829900898,1.6002488450030796,None,1.6003143530106172,1.6003373250132427,None,1.6003982019901741,1.6004201580071822,None,1,001,16,,2024-04-09_13h41.04.066,replicate_nsd,2023.2.3,60.105488258179264,2024-04-09 13h41.17.774270 -0400,
images/24_12 copy 7.jpg,0,15,0,0,1,"[9, 19, 31, 42, 56, 68, 69, 70, 71]",0,87,87,87,4.522571212000912,,,,,,,,,,,1.6006153050111607,1.6007223099877592,1.6007288529945072,1.6034823610098101,None,1.6035623950010631,1.6035895819950383,None,1.6036554730089847,1.6036787219927646,None,1.6037403469963465,1.6037619370035827,None,1,001,16,,2024-04-09_13h41.04.066,replicate_nsd,2023.2.3,60.105488258179264,2024-04-09 13h41.17.774270 -0400,
images/7_12 copy 2.jpg,0,16,0,0,1,"[9, 19, 31, 42, 56, 68, 69, 70, 71]",0,88,88,88,4.522571212000912,,,,,,,,,,,1.603961117012659,1.6040679319994524,1.6040743599878624,1.6063144649961032,None,1.60640568198869,1.606429586012382,None,1.6064896569878329,1.6065111159987282,None,1.6065685490029864,1.6065890020108782,None,1,001,16,,2024-04-09_13h41.04.066,replicate_nsd,2023.2.3,60.105488258179264,2024-04-09 13h41.17.774270 -0400,
images/12_28 copy 5.jpg,0,17,0,0,1,"[9, 19, 31, 42, 56, 68, 69, 70, 71]",0,89,89,89,4.522571212000912,,,,,,,,,,,1.6067714300006628,1.6068633899849374,1.6068693599954713,1.6088656299980357,None,1.608936973992968,1.6089597299869638,None,1.6090175150020514,1.6090379150118679,None,1.6090931690123398,1.6091128379921429,None,1,001,16,,2024-04-09_13h41.04.066,replicate_nsd,2023.2.3,60.105488258179264,2024-04-09 13h41.17.774270 -0400,
images/6_0.jpg,0,18,0,0,1,"[9, 19, 31, 42, 56, 68, 69, 70, 71]",0,90,90,90,4.522571212000912,,,,,,,,,,,1.6092867770057637,1.609390497993445,1.6093961209990084,1.6113704380113631,None,1.6114369780116249,1.6114581619913224,None,1.6115123229974415,1.611531868984457,None,1.6115833919902798,1.61160145199392,None,1,001,16,,2024-04-09_13h41.04.066,replicate_nsd,2023.2.3,60.105488258179264,2024-04-09 13h41.17.774270 -0400,
images/blank.jpg,0,19,1,0,1,"[9, 19, 31, 42, 56, 68, 69, 70, 71]",0,91,91,91,4.522571212000912,,,,,,,,,,,1.611764986999333,1.61184788600076,1.6118532390100881,1.6132329959946219,None,1.6132994850049727,1.6133211189880967,None,1.61337563599227,1.6133951299998444,None,1.613446825009305,1.6134650360036176,None,1,001,16,,2024-04-09_13h41.04.066,replicate_nsd,2023.2.3,60.105488258179264,2024-04-09 13h41.17.774270 -0400,
images/21_12 copy.jpg,0,20,0,0,1,"[9, 19, 31, 42, 56, 68, 69, 70, 71]",0,92,92,92,4.522571212000912,,,,,,,,,,,1.6136273430020083,1.6137104269873817,1.613715865998529,1.6156732109957375,None,1.6157402519893367,1.615761819994077,None,1.6158159099868499,1.6158352319907863,None,1.6158867519989144,1.6159048239933327,None,1,001,16,,2024-04-09_13h41.04.066,replicate_nsd,2023.2.3,60.105488258179264,2024-04-09 13h41.17.774270 -0400,
images/15_40.jpg,0,21,0,0,1,"[9, 19, 31, 42, 56, 68, 69, 70, 71]",0,93,93,93,4.522571212000912,,,,,,,,,,,1.6160688599920832,1.616152267990401,1.6161577329912689,1.6183618269860744,None,1.6184285430063028,1.618449944013264,None,1.618504287005635,1.6185234430013224,None,1.6185751779994462,1.6185930430074222,None,1,001,16,,2024-04-09_13h41.04.066,replicate_nsd,2023.2.3,60.105488258179264,2024-04-09 13h41.17.774270 -0400,
images/20_12 copy 4.jpg,0,22,0,0,1,"[9, 19, 31, 42, 56, 68, 69, 70, 71]",0,94,94,94,4.522571212000912,,,,,,,,,,,1.6187575460062362,1.6188400620012544,1.6188455219962634,1.6211594390042592,None,1.621224925009301,1.6212458189984318,None,1.6212988090119325,1.6213176739984192,None,1.6213686210103333,1.6213866710022558,None,1,001,16,,2024-04-09_13h41.04.066,replicate_nsd,2023.2.3,60.105488258179264,2024-04-09 13h41.17.774270 -0400,
images/12_40 copy 2.jpg,0,23,0,0,1,"[9, 19, 31, 42, 56, 68, 69, 70, 71]",0,95,95,95,4.522571212000912,,,,,,,,,,,1.6215477329969872,1.6216293459874578,1.6216345999855548,1.6235657299985178,None,1.6236323289922439,1.6236537740041967,None,1.6237084250024054,1.6237282000074629,None,1.6237799089867622,1.6237984980107285,None,1,001,16,,2024-04-09_13h41.04.066,replicate_nsd,2023.2.3,60.105488258179264,2024-04-09 13h41.17.774270 -0400,
images/16_0 copy.jpg,0,24,0,0,1,"[9, 19, 31, 42, 56, 68, 69, 70, 71]",0,96,96,96,4.522571212000912,,,,,,,,,,,1.6239633520017378,1.6240458989923354,1.6240512779913843,1.626239131001057,None,1.6263054579903837,1.6263269379851408,None,1.626381226000376,1.6264007519930601,None,1.6264521320117638,1.6264706290094182,None,1,001,16,,2024-04-09_13h41.04.066,replicate_nsd,2023.2.3,60.105488258179264,2024-04-09 13h41.17.774270 -0400,
images/15_28 copy 6.jpg,0,25,0,0,1,"[9, 19, 31, 42, 56, 68, 69, 70, 71]",0,97,97,97,4.522571212000912,,,,,,,,,,,1.6266351350059267,1.6267169539933093,1.6267223939939868,1.628778299986152,None,1.6288444320089184,1.6288661739963572,None,1.6289209719980136,1.6289407429867424,None,1.6289924849988893,1.629011235985672,None,1,001,16,,2024-04-09_13h41.04.066,replicate_nsd,2023.2.3,60.105488258179264,2024-04-09 13h41.17.774270 -0400,
images/8_28 copy 5.jpg,0,26,0,0,1,"[9, 19, 31, 42, 56, 68, 69, 70, 71]",0,98,98,98,4.522571212000912,,,,,,,,,,,1.6291783330088947,1.6292716799944174,1.629277213010937,1.6312289650086313,None,1.6312962569936644,1.6313180919969454,None,1.631372559000738,1.6313919879903551,None,1.631443316990044,1.6314615239971317,None,1,001,16,,2024-04-09_13h41.04.066,replicate_nsd,2023.2.3,60.105488258179264,2024-04-09 13h41.17.774270 -0400,
images/14_28.jpg,0,27,0,0,1,"[9, 19, 31, 42, 56, 68, 69, 70, 71]",0,99,99,99,4.522571212000912,,,,,,,,,,,1.6316278709855396,1.63171039998997,1.6317158800084144,1.633700016012881,None,1.633766418992309,1.6337886429973878,None,1.6338428049930371,1.633862296002917,None,1.6339135470043402,1.6339320869883522,None,1,001,16,,2024-04-09_13h41.04.066,replicate_nsd,2023.2.3,60.105488258179264,2024-04-09 13h41.17.774270 -0400,
images/22_0 copy.jpg,0,28,0,0,1,"[9, 19, 31, 42, 56, 68, 69, 70, 71]",0,100,100,100,4.522571212000912,,,,,,,,,,,1.6340962150134146,1.6341788739955518,1.634184266004013,1.6363241260114592,None,1.6363980240130331,1.636419990012655,None,1.636474739992991,1.6364946390094701,None,1.6366292349994183,1.636647620005533,None,1,001,16,,2024-04-09_13h41.04.066,replicate_nsd,2023.2.3,60.105488258179264,2024-04-09 13h41.17.774270 -0400,
images/9_40 copy 6.jpg,0,29,0,0,1,"[9, 19, 31, 42, 56, 68, 69, 70, 71]",0,101,101,101,4.522571212000912,,,,,,,,,,,1.6370105689857155,1.637137015000917,1.6371433429885656,1.640464382013306,None,1.6405315489973873,1.6405527589959092,None,1.6406060220033396,1.6406252660090104,None,1.6406758679950144,1.6406945360067766,None,1,001,16,,2024-04-09_13h41.04.066,replicate_nsd,2023.2.3,60.105488258179264,2024-04-09 13h41.17.774270 -0400,
images/16_12 copy 3.jpg,0,30,0,0,1,"[9, 19, 31, 42, 56, 68, 69, 70, 71]",0,102,102,102,4.522571212000912,,,,,,,,,,,1.6409902200102806,1.6411398070049472,1.641169259994058,1.6435234920063522,None,1.6435940869851038,1.6436154610128142,None,1.6436702480132226,1.6436899440013804,None,1.6437409450009,1.6437599250057247,None,1,001,16,,2024-04-09_13h41.04.066,replicate_nsd,2023.2.3,60.105488258179264,2024-04-09 13h41.17.774270 -0400,
images/blank.jpg,0,31,1,0,1,"[9, 19, 31, 42, 56, 68, 69, 70, 71]",0,103,103,103,4.522571212000912,,,,,,,,,,,1.6439268899848685,1.6440113320131786,1.6440167549881153,1.6453547730052378,None,1.6454192789969966,1.6454400660004467,None,1.645540310011711,1.6455950409872457,None,1.6456851070106495,1.6457032710022759,None,1,001,16,,2024-04-09_13h41.04.066,replicate_nsd,2023.2.3,60.105488258179264,2024-04-09 13h41.17.774270 -0400,
images/5_28 copy 3.jpg,0,32,0,0,1,"[9, 19, 31, 42, 56, 68, 69, 70, 71]",0,104,104,104,4.522571212000912,,,,,,,,,,,1.6458646779938135,1.6459464220097288,1.6459517079929356,1.6476679909974337,None,1.647735297010513,1.6477566369867418,None,1.6478115179925226,1.6478313860134222,None,1.647883516998263,1.6479022320127115,None,1,001,16,,2024-04-09_13h41.04.066,replicate_nsd,2023.2.3,60.105488258179264,2024-04-09 13h41.17.774270 -0400,
images/16_12 copy 7.jpg,0,33,0,0,1,"[9, 19, 31, 42, 56, 68, 69, 70, 71]",0,105,105,105,4.522571212000912,,,,,,,,,,,1.648068376001902,1.6481641349964775,1.6481696359987836,1.6501597989990842,None,1.6502264279988594,1.650248247984564,None,1.6503029369923752,1.6503222369938157,None,1.6503736689919606,1.6503920099930838,None,1,001,16,,2024-04-09_13h41.04.066,replicate_nsd,2023.2.3,60.105488258179264,2024-04-09 13h41.17.774270 -0400,
images/8_40 copy 5.jpg,0,34,0,0,1,"[9, 19, 31, 42, 56, 68, 69, 70, 71]",0,106,106,106,4.522571212000912,,,,,,,,,,,1.6505574930051807,1.6506482459953986,1.6506537350069266,1.6528920079872478,None,1.6529583949886728,1.652979853010038,None,1.6530339489981998,1.653053115005605,None,1.6531048270117026,1.653123174997745,None,1,001,16,,2024-04-09_13h41.04.066,replicate_nsd,2023.2.3,60.105488258179264,2024-04-09 13h41.17.774270 -0400,
images/12_12 copy 4.jpg,0,35,0,0,1,"[9, 19, 31, 42, 56, 68, 69, 70, 71]",0,107,107,107,4.522571212000912,,,,,,,,,,,1.6532878679863643,1.6533771129907109,1.6533825419901405,1.6554111980076414,None,1.6554783110041171,1.655499526008498,None,1.655553045013221,1.6556093260005582,None,1.6557296740065794,1.655747823009733,None,1,001,16,,2024-04-09_13h41.04.066,replicate_nsd,2023.2.3,60.105488258179264,2024-04-09 13h41.17.774270 -0400,
images/6_12 copy 7.jpg,0,36,0,0,1,"[9, 19, 31, 42, 56, 68, 69, 70, 71]",0,108,108,108,4.522571212000912,,,,,,,,,,,1.6560356609988958,1.6562590099929366,1.656283035990782,1.6587133310094941,None,1.6587803720030934,1.6588019290065859,None,1.658856663008919,1.6588757279969286,None,1.6589273019926623,1.6589454250060953,None,1,001,16,,2024-04-09_13h41.04.066,replicate_nsd,2023.2.3,60.105488258179264,2024-04-09 13h41.17.774270 -0400,
images/8_12.jpg,0,37,0,0,1,"[9, 19, 31, 42, 56, 68, 69, 70, 71]",0,109,109,109,4.522571212000912,,,,,,,,,,,1.6591104390099645,1.6591942470113281,1.659199538989924,1.6613748979871161,None,1.6614418700046372,1.661463286000071,None,1.6615179110085592,1.6615376890113112,None,1.6615897369920276,1.6616084369888995,None,1,001,16,,2024-04-09_13h41.04.066,replicate_nsd,2023.2.3,60.105488258179264,2024-04-09 13h41.17.774270 -0400,
images/14_0 copy 6.jpg,0,38,0,0,1,"[9, 19, 31, 42, 56, 68, 69, 70, 71]",0,110,110,110,4.522571212000912,,,,,,,,,,,1.6617729449935723,1.6618553599982988,1.661861005006358,1.6639686409907881,None,1.6640360110031907,1.6640574909979478,None,1.6641122210130561,1.664131672005169,None,1.664183849003166,1.664202210988151,None,1,001,16,,2024-04-09_13h41.04.066,replicate_nsd,2023.2.3,60.105488258179264,2024-04-09 13h41.17.774270 -0400,
images/17_12 copy 2.jpg,0,39,0,0,1,"[9, 19, 31, 42, 56, 68, 69, 70, 71]",0,111,111,111,4.522571212000912,,,,,,,,,,,1.6643679850094486,1.6644508450117428,1.6644561929861084,1.6663608670060057,None,1.6664283399877604,1.666449428012129,None,1.6665039809886366,1.6665237880079076,None,1.6665761129988823,1.666594629001338,None,1,001,16,,2024-04-09_13h41.04.066,replicate_nsd,2023.2.3,60.105488258179264,2024-04-09 13h41.17.774270 -0400,
images/pair11 copy 7.jpg,0,40,0,0,1,"[9, 19, 31, 42, 56, 68, 69, 70, 71]",0,112,112,112,4.522571212000912,,,,,,,,,,,1.6667596340121236,1.6668430810095742,1.6668486100097653,1.6696301340125501,None,1.6696982180001214,1.669719719007844,None,1.6697748950100504,1.6697942329919897,None,1.6698463940119836,1.6698651099868584,None,1,001,16,,2024-04-09_13h41.04.066,replicate_nsd,2023.2.3,60.105488258179264,2024-04-09 13h41.17.774270 -0400,
images/21_40 copy.jpg,0,41,0,0,1,"[9, 19, 31, 42, 56, 68, 69, 70, 71]",0,113,113,113,4.522571212000912,,,,,,,,,,,1.6700387349992525,1.6701222909905482,1.670127766992664,1.6727101650030818,None,1.6727774849859998,1.6727991999941878,None,1.672853705007583,1.6728733310010284,None,1.6729250829957891,1.6729433510045055,None,1,001,16,,2024-04-09_13h41.04.066,replicate_nsd,2023.2.3,60.105488258179264,2024-04-09 13h41.17.774270 -0400,
images/blank.jpg,0,42,1,0,1,"[9, 19, 31, 42, 56, 68, 69, 70, 71]",0,114,114,114,4.522571212000912,,,,,,,,,,,1.67310720399837,1.6731899369915482,1.6731954000133555,1.6747734810051043,None,1.674840554012917,1.6748618810088374,None,1.6749480589933228,1.6749682209920138,None,1.675021294009639,1.6750398490112275,None,1,001,16,,2024-04-09_13h41.04.066,replicate_nsd,2023.2.3,60.105488258179264,2024-04-09 13h41.17.774270 -0400,
images/18_0 copy 2.jpg,0,43,0,0,1,"[9, 19, 31, 42, 56, 68, 69, 70, 71]",0,115,115,115,4.522571212000912,,,,,,,,,,,1.6752052409865428,1.675288280006498,1.6752937950077467,1.6772957149951253,None,1.677363061986398,1.6773846290016081,None,1.6774393059895374,1.6774583859951235,None,1.6775110210001003,1.677529220993165,None,1,001,16,,2024-04-09_13h41.04.066,replicate_nsd,2023.2.3,60.105488258179264,2024-04-09 13h41.17.774270 -0400,
images/8_40 copy 2.jpg,0,44,0,0,1,"[9, 19, 31, 42, 56, 68, 69, 70, 71]",0,116,116,116,4.522571212000912,,,,,,,,,,,1.6776941120042466,1.6778006849926896,1.6778063660021871,1.679762865009252,None,1.6798305340053048,1.6798518399882596,None,1.67990669599385,1.6799262310087215,None,1.6799780100118369,1.6799966960097663,None,1,001,16,,2024-04-09_13h41.04.066,replicate_nsd,2023.2.3,60.105488258179264,2024-04-09 13h41.17.774270 -0400,
images/7_12 copy 5.jpg,0,45,0,0,1,"[9, 19, 31, 42, 56, 68, 69, 70, 71]",0,117,117,117,4.522571212000912,,,,,,,,,,,1.6801616649900097,1.6802436590078287,1.6802491600101348,1.6821993679914158,None,1.6822663139901124,1.6822877720114775,None,1.6823431559896562,1.6823629940045066,None,1.6824151370092295,1.6824337340076454,None,1,001,16,,2024-04-09_13h41.04.066,replicate_nsd,2023.2.3,60.105488258179264,2024-04-09 13h41.17.774270 -0400,
images/10_12 copy 7.jpg,0,46,0,0,1,"[9, 19, 31, 42, 56, 68, 69, 70, 71]",0,118,118,118,4.522571212000912,,,,,,,,,,,1.6826000419969205,1.682691010995768,1.6826965039945208,1.684805091994349,None,1.6848727409960702,1.6848944679950364,None,1.684949324990157,1.6849687549984083,None,1.6850203619978856,1.685038813011488,None,1,001,16,,2024-04-09_13h41.04.066,replicate_nsd,2023.2.3,60.105488258179264,2024-04-09 13h41.17.774270 -0400,
images/23_12 copy 3.jpg,0,47,0,0,1,"[9, 19, 31, 42, 56, 68, 69, 70, 71]",0,119,119,119,4.522571212000912,,,,,,,,,,,1.6852038789947983,1.6852859510108829,1.68529142299667,1.687514524004655,None,1.687581386999227,1.6876029869890772,None,1.6876573949994054,1.6876768709917087,None,1.6877287350071128,1.6877475169894751,None,1,001,16,,2024-04-09_13h41.04.066,replicate_nsd,2023.2.3,60.105488258179264,2024-04-09 13h41.17.774270 -0400,
images/pair18 copy 4.jpg,0,48,0,0,1,"[9, 19, 31, 42, 56, 68, 69, 70, 71]",0,120,120,120,4.522571212000912,,,,,,,,,,,1.6879125889972784,1.688002732989844,1.6880083050054964,1.690986158006126,None,1.6910542259865906,1.6910758670128416,None,1.691130285995314,1.6911498550034594,None,1.691200867004227,1.691219464992173,None,1,001,16,,2024-04-09_13h41.04.066,replicate_nsd,2023.2.3,60.105488258179264,2024-04-09 13h41.17.774270 -0400,
images/10_0 copy 3.jpg,0,49,0,0,1,"[9, 19, 31, 42, 56, 68, 69, 70, 71]",0,121,121,121,4.522571212000912,,,,,,,,,,,1.6913852870056871,1.691468684002757,1.691473932005465,1.694016333000036,None,1.6940817869908642,1.6941029150038958,None,1.6941569870105013,1.6941768210090231,None,1.6942287670099176,1.6942472369992174,None,1,001,16,,2024-04-09_13h41.04.066,replicate_nsd,2023.2.3,60.105488258179264,2024-04-09 13h41.17.774270 -0400,
images/9_0 copy 5.jpg,0,50,0,0,1,"[9, 19, 31, 42, 56, 68, 69, 70, 71]",0,122,122,122,4.522571212000912,,,,,,,,,,,1.6944103160058148,1.6945005629968364,1.6945059449935798,1.6965991600009147,None,1.6966648820089176,1.6966861530090682,None,1.6967395009996835,1.6967587120016105,None,1.6968086939887144,1.6968262709851842,None,1,001,16,,2024-04-09_13h41.04.066,replicate_nsd,2023.2.3,60.105488258179264,2024-04-09 13h41.17.774270 -0400,
images/pair04 copy 4.jpg,0,51,0,0,1,"[9, 19, 31, 42, 56, 68, 69, 70, 71]",0,123,123,123,4.522571212000912,,,,,,,,,,,1.696986958006164,1.6970776609960012,1.697083204984665,1.6997642790083773,None,1.6998282879940234,1.6998491490085144,None,1.6999019290087745,1.699921130988514,None,1.699971355003072,1.6999893480096944,None,1,001,16,,2024-04-09_13h41.04.066,replicate_nsd,2023.2.3,60.105488258179264,2024-04-09 13h41.17.774270 -0400,
images/8_0 copy 6.jpg,0,52,0,0,1,"[9, 19, 31, 42, 56, 68, 69, 70, 71]",0,124,124,124,4.522571212000912,,,,,,,,,,,1.7001495209988207,1.7002308430091944,1.7002361879858654,1.7025208029954229,None,1.7025848609919194,1.7026059250056278,None,1.7026592429901939,1.7026782569882926,None,1.7027281110058539,1.7027463160047773,None,1,001,16,,2024-04-09_13h41.04.066,replicate_nsd,2023.2.3,60.105488258179264,2024-04-09 13h41.17.774270 -0400,
images/5_0 copy 2.jpg,0,53,0,0,1,"[9, 19, 31, 42, 56, 68, 69, 70, 71]",0,125,125,125,4.522571212000912,,,,,,,,,,,1.7029065300012007,1.7029950380092487,1.70300048799254,1.705145773012191,None,1.7052095319959335,1.7052306149853393,None,1.7052839630050585,1.7053029389935546,None,1.7053536059975158,1.705371413991088,None,1,001,16,,2024-04-09_13h41.04.066,replicate_nsd,2023.2.3,60.105488258179264,2024-04-09 13h41.17.774270 -0400,
images/pair01 copy 7.jpg,0,54,0,0,1,"[9, 19, 31, 42, 56, 68, 69, 70, 71]",0,126,126,126,4.522571212000912,,,,,,,,,,,1.7055373309995048,1.7056178789935075,1.7056231790047605,1.7084000959875993,None,1.708463324001059,1.7084838640003,None,1.7085355400049593,1.7085543670109473,None,1.7086042829905637,1.7086225530074444,None,1,001,16,,2024-04-09_13h41.04.066,replicate_nsd,2023.2.3,60.105488258179264,2024-04-09 13h41.17.774270 -0400,
images/11_28.jpg,0,55,0,0,1,"[9, 19, 31, 42, 56, 68, 69, 70, 71]",0,127,127,127,4.522571212000912,,,,,,,,,,,1.7087813729885966,1.7088736039877404,1.70887900001253,1.711273594002705,None,1.7113391240127385,1.7113609449879732,None,1.7114144059887622,1.711433861986734,None,1.7114857010019477,1.7115040429926012,None,1,001,16,,2024-04-09_13h41.04.066,replicate_nsd,2023.2.3,60.105488258179264,2024-04-09 13h41.17.774270 -0400,
images/blank.jpg,0,56,1,0,1,"[9, 19, 31, 42, 56, 68, 69, 70, 71]",0,128,128,128,4.522571212000912,,,,,,,,,,,1.7116681229963433,1.711758715013275,1.7117639759962913,1.7132726839918178,None,1.713337708992185,1.71335860399995,None,1.7134117019886617,1.713430581992725,None,1.7134804439847358,1.7134981460112613,None,1,001,16,,2024-04-09_13h41.04.066,replicate_nsd,2023.2.3,60.105488258179264,2024-04-09 13h41.17.774270 -0400,
images/18_28 copy 7.jpg,0,57,0,0,1,"[9, 19, 31, 42, 56, 68, 69, 70, 71]",0,129,129,129,4.522571212000912,,,,,,,,,,,1.7136580490041524,1.7137404480017722,1.7137458359939046,1.7155097349896096,None,1.7155732109968085,1.715593798988266,None,1.7156459979887586,1.71566475299187,None,1.7157145829987712,1.7157325409934856,None,1,001,16,,2024-04-09_13h41.04.066,replicate_nsd,2023.2.3,60.105488258179264,2024-04-09 13h41.17.774270 -0400,
images/16_28 copy 7.jpg,0,58,0,0,1,"[9, 19, 31, 42, 56, 68, 69, 70, 71]",0,130,130,130,4.522571212000912,,,,,,,,,,,1.7158935299958102,1.7159741380019113,1.7159794500039425,1.7177437859936617,None,1.7178094520058949,1.71783064599731,None,1.7178835019876715,1.7179028769896831,None,1.7179535739996936,1.7179717689868994,None,1,001,16,,2024-04-09_13h41.04.066,replicate_nsd,2023.2.3,60.105488258179264,2024-04-09 13h41.17.774270 -0400,
images/20_0 copy 4.jpg,0,59,0,0,1,"[9, 19, 31, 42, 56, 68, 69, 70, 71]",0,131,131,131,4.522571212000912,,,,,,,,,,,1.7181340829993133,1.7182240459951572,1.7182293999940157,1.720287323987577,None,1.7203506359946914,1.7203717830125242,None,1.7204243589949328,1.7204436720057856,None,1.720493708999129,1.7205122770101298,None,1,001,16,,2024-04-09_13h41.04.066,replicate_nsd,2023.2.3,60.105488258179264,2024-04-09 13h41.17.774270 -0400,
images/7_40 copy.jpg,0,60,0,0,1,"[9, 19, 31, 42, 56, 68, 69, 70, 71]",0,132,132,132,4.522571212000912,,,,,,,,,,,1.720718967000721,1.72080155700678,1.7208069869957399,1.7229261820029933,None,1.7229896420030855,1.7230107650102582,None,1.7230637790053152,1.7230828079918865,None,1.7231334979878739,1.7231517329928465,None,1,001,16,,2024-04-09_13h41.04.066,replicate_nsd,2023.2.3,60.105488258179264,2024-04-09 13h41.17.774270 -0400,
images/21_40 copy 6.jpg,0,61,0,0,1,"[9, 19, 31, 42, 56, 68, 69, 70, 71]",0,133,133,133,4.522571212000912,,,,,,,,,,,1.7233156849979423,1.7234084270021413,1.7234138899948448,1.7252242609974928,None,1.7252881150052417,1.7253092039900366,None,1.7253618719987571,1.725380811985815,None,1.7254310339922085,1.7254489779879805,None,1,001,16,,2024-04-09_13h41.04.066,replicate_nsd,2023.2.3,60.105488258179264,2024-04-09 13h41.17.774270 -0400,
images/19_0 copy 5.jpg,0,62,0,0,1,"[9, 19, 31, 42, 56, 68, 69, 70, 71]",0,134,134,134,4.522571212000912,,,,,,,,,,,1.7256397170131095,1.7257308269909117,1.7257362109958194,1.7277529670100193,None,1.7278169589990284,1.7278383660013787,None,1.7278905560087878,1.727909468987491,None,1.727960093994625,1.727978490991518,None,1,001,16,,2024-04-09_13h41.04.066,replicate_nsd,2023.2.3,60.105488258179264,2024-04-09 13h41.17.774270 -0400,
images/14_40 copy 2.jpg,0,63,0,0,1,"[9, 19, 31, 42, 56, 68, 69, 70, 71]",0,135,135,135,4.522571212000912,,,,,,,,,,,1.7281412809970789,1.72823136599618,1.728236866008956,1.730028552992735,None,1.7300928730110172,1.7301141509960871,None,1.7301672399917152,1.7301861029991414,None,1.7302364940114785,1.7302543800033163,None,1,001,16,,2024-04-09_13h41.04.066,replicate_nsd,2023.2.3,60.105488258179264,2024-04-09 13h41.17.774270 -0400,
images/7_40 copy 6.jpg,0,64,0,0,1,"[9, 19, 31, 42, 56, 68, 69, 70, 71]",0,136,136,136,4.522571212000912,,,,,,,,,,,1.7304141510103364,1.73049618199002,1.7305015939928126,1.7324148319894448,None,1.7324780260096304,1.7324992550129537,None,1.732552111003315,1.732571022992488,None,1.7326209050079342,1.7326388240035158,None,1,001,16,,2024-04-09_13h41.04.066,replicate_nsd,2023.2.3,60.105488258179264,2024-04-09 13h41.17.774270 -0400,
images/11_0 copy 5.jpg,0,65,0,0,1,"[9, 19, 31, 42, 56, 68, 69, 70, 71]",0,137,137,137,4.522571212000912,,,,,,,,,,,1.7327990790072363,1.732880447001662,1.7328858849941753,1.7347511640109587,None,1.734813597984612,1.7348338910087477,None,1.7348859749909025,1.7349045010050759,None,1.734954793995712,1.7349727810069453,None,1,001,16,,2024-04-09_13h41.04.066,replicate_nsd,2023.2.3,60.105488258179264,2024-04-09 13h41.17.774270 -0400,
images/9_40 copy 3.jpg,0,66,0,0,1,"[9, 19, 31, 42, 56, 68, 69, 70, 71]",0,138,138,138,4.522571212000912,,,,,,,,,,,1.7351328440126963,1.735221629991429,1.7352269559924025,1.737013511999976,None,1.7370749860128853,1.737095385993598,None,1.737146900006337,1.7371659459895454,None,1.7372154009935912,1.7372334919928107,None,1,001,16,,2024-04-09_13h41.04.066,replicate_nsd,2023.2.3,60.105488258179264,2024-04-09 13h41.17.774270 -0400,
images/pair01 copy 2.jpg,0,67,0,0,1,"[9, 19, 31, 42, 56, 68, 69, 70, 71]",0,139,139,139,4.522571212000912,,,,,,,,,,,1.7373926620057318,1.7374738389917184,1.7374791099864524,1.7402144579973537,None,1.7402798630064353,1.7403012209979352,None,1.7403544079861604,1.7403738249849994,None,1.740425257012248,1.7404437350051012,None,1,001,16,,2024-04-09_13h41.04.066,replicate_nsd,2023.2.3,60.105488258179264,2024-04-09 13h41.17.774270 -0400,
images/blank.jpg,0,68,1,0,1,"[9, 19, 31, 42, 56, 68, 69, 70, 71]",0,140,140,140,4.522571212000912,,,,,,,,,,,1.7406072370067704,1.7406998630031012,1.7407054890063591,1.7426136560097802,None,1.7426796949876007,1.7427012039988767,None,1.7427549780113623,1.7427743120060768,None,1.7428262369940057,1.7428446240082849,None,1,001,16,,2024-04-09_13h41.04.066,replicate_nsd,2023.2.3,60.105488258179264,2024-04-09 13h41.17.774270 -0400,
images/blank.jpg,0,69,1,0,1,"[9, 19, 31, 42, 56, 68, 69, 70, 71]",0,141,141,141,4.522571212000912,,,,,,,,,,,1.743009683006676,1.7431002199882641,1.7431056229979731,1.7446929459983949,None,1.7447573500103317,1.7447788070130628,None,1.7448333869979251,1.7448530230030883,None,1.7449051220028196,1.7449237600085326,None,1,001,16,,2024-04-09_13h41.04.066,replicate_nsd,2023.2.3,60.105488258179264,2024-04-09 13h41.17.774270 -0400,
images/blank.jpg,0,70,1,0,1,"[9, 19, 31, 42, 56, 68, 69, 70, 71]",0,142,142,142,4.522571212000912,,,,,,,,,,,1.7450873269990552,1.7451698720105924,1.7451754079957027,1.7465865559934173,None,1.7466509850055445,1.7466722810058855,None,1.7467272380017675,1.7467467079986818,None,1.746798542997567,1.7468172739900183,None,1,001,16,,2024-04-09_13h41.04.066,replicate_nsd,2023.2.3,60.105488258179264,2024-04-09 13h41.17.774270 -0400,
images/blank.jpg,0,71,1,1,1,"[9, 19, 31, 42, 56, 68, 69, 70, 71]",0,143,143,143,4.522571212000912,,,,,,,,,,,1.7469825109874364,1.7470658200036269,1.7470713279908523,1.7484104149916675,None,1.7484770030132495,1.7484984580078162,None,1.7485528329852968,1.748572406009771,None,1.7486246849875897,1.7486432550067548,None,1,001,16,,2024-04-09_13h41.04.066,replicate_nsd,2023.2.3,60.105488258179264,2024-04-09 13h41.17.774270 -0400,
images/15_28.jpg,0,0,0,0,2,"[9, 19, 29, 39, 49, 59, 68, 69, 70, 71]",0,144,144,144,4.522571212000912,,,,,,,,,,,1.7488071300031152,1.7488978029869031,1.7489034300087951,1.75092275699717,None,1.7509891449881252,1.7510108260030393,None,1.751064812997356,1.7510840040049516,None,1.7511354720045347,1.751153635996161,None,1,001,16,,2024-04-09_13h41.04.066,replicate_nsd,2023.2.3,60.105488258179264,2024-04-09 13h41.17.774270 -0400,
images/pair09 copy 7.jpg,0,1,0,0,2,"[9, 19, 29, 39, 49, 59, 68, 69, 70, 71]",0,145,145,145,4.522571212000912,,,,,,,,,,,1.751318069989793,1.7514024029951543,1.7514078230015002,1.7544478210038505,None,1.7545151939848438,1.754538123990642,None,1.7545932570064906,1.7546129550028127,None,1.7546650170115754,1.7546838170092087,None,1,001,16,,2024-04-09_13h41.04.066,replicate_nsd,2023.2.3,60.105488258179264,2024-04-09 13h41.17.774270 -0400,
images/16_28 copy 6.jpg,0,2,0,0,2,"[9, 19, 29, 39, 49, 59, 68, 69, 70, 71]",0,146,146,146,4.522571212000912,,,,,,,,,,,1.7548484459985048,1.7549393440131098,1.7549447549972683,1.757065287005389,None,1.7571316710091196,1.7571530679997522,None,1.7572082570113707,1.7572280149906874,None,1.7572804299998097,1.7572992900095414,None,1,001,16,,2024-04-09_13h41.04.066,replicate_nsd,2023.2.3,60.105488258179264,2024-04-09 13h41.17.774270 -0400,
images/16_12 copy 3.jpg,0,3,0,0,2,"[9, 19, 29, 39, 49, 59, 68, 69, 70, 71]",0,147,147,147,4.522571212000912,,,,,,,,,,,1.75746433500899,1.7575476820056792,1.757553094998002,1.7593104669940658,None,1.7593767610087525,1.759398358000908,None,1.759452780999709,1.7594724420050625,None,1.75952388899168,1.7595422609883826,None,1,001,16,,2024-04-09_13h41.04.066,replicate_nsd,2023.2.3,60.105488258179264,2024-04-09 13h41.17.774270 -0400,
images/13_12.jpg,0,4,0,0,2,"[9, 19, 29, 39, 49, 59, 68, 69, 70, 71]",0,148,148,148,4.522571212000912,,,,,,,,,,,1.7597085149900522,1.7597925580048468,1.7597979319980368,1.7620479380129836,None,1.7621144510048907,1.7621356699964963,None,1.7621900409867521,1.7622094189864583,None,1.7622619489848148,1.7622804080019705,None,1,001,16,,2024-04-09_13h41.04.066,replicate_nsd,2023.2.3,60.105488258179264,2024-04-09 13h41.17.774270 -0400,
images/14_28 copy 7.jpg,0,5,0,0,2,"[9, 19, 29, 39, 49, 59, 68, 69, 70, 71]",0,149,149,149,4.522571212000912,,,,,,,,,,,1.7624449330032803,1.7625281949876808,1.7625336589990184,1.7644738249946386,None,1.7645406750089023,1.764562225987902,None,1.7646176170092076,1.7646371700102463,None,1.764689998992253,1.7647084720083512,None,1,001,16,,2024-04-09_13h41.04.066,replicate_nsd,2023.2.3,60.105488258179264,2024-04-09 13h41.17.774270 -0400,
images/9_12 copy 4.jpg,0,6,0,0,2,"[9, 19, 29, 39, 49, 59, 68, 69, 70, 71]",0,150,150,150,4.522571212000912,,,,,,,,,,,1.764875002001645,1.764965445996495,1.7649709259858355,1.7668956260022242,None,1.7669629720039666,1.7669843889889307,None,1.7670391100109555,1.7670581820129883,None,1.7671105629997328,1.7671286989934742,None,1,001,16,,2024-04-09_13h41.04.066,replicate_nsd,2023.2.3,60.105488258179264,2024-04-09 13h41.17.774270 -0400,
images/6_28 copy 3.jpg,0,7,0,0,2,"[9, 19, 29, 39, 49, 59, 68, 69, 70, 71]",0,151,151,151,4.522571212000912,,,,,,,,,,,1.767294227000093,1.76737869498902,1.7673841700016055,1.7693475609994493,None,1.7694144650013186,1.7694360240129754,None,1.7694902739895042,1.7695097679970786,None,1.7695611869858112,1.7695794590108562,None,1,001,16,,2024-04-09_13h41.04.066,replicate_nsd,2023.2.3,60.105488258179264,2024-04-09 13h41.17.774270 -0400,
images/21_12 copy 3.jpg,0,8,0,0,2,"[9, 19, 29, 39, 49, 59, 68, 69, 70, 71]",0,152,152,152,4.522571212000912,,,,,,,,,,,1.76974445299129,1.7698276980081573,1.7698331779974978,1.7717353400075808,None,1.771802030998515,1.7718235829961486,None,1.7718787459889427,1.7718986260006204,None,1.771950920985546,1.7719690160010941,None,1,001,16,,2024-04-09_13h41.04.066,replicate_nsd,2023.2.3,60.105488258179264,2024-04-09 13h41.17.774270 -0400,
images/blank.jpg,0,9,1,0,2,"[9, 19, 29, 39, 49, 59, 68, 69, 70, 71]",0,153,153,153,4.522571212000912,,,,,,,,,,,1.7721361040021293,1.772245372994803,1.7722510760067962,1.773738293995848,None,1.7738049250037875,1.7738260829937644,None,1.7738798790087458,1.7738991820078809,None,1.7739508360100444,1.7739692670002114,None,1,001,16,,2024-04-09_13h41.04.066,replicate_nsd,2023.2.3,60.105488258179264,2024-04-09 13h41.17.774270 -0400,
images/9_40 copy 7.jpg,0,10,0,0,2,"[9, 19, 29, 39, 49, 59, 68, 69, 70, 71]",0,154,154,154,4.522571212000912,,,,,,,,,,,1.7741347549890634,1.7742189379932825,1.7742244449909776,1.7761106530088,None,1.7761775020044297,1.7761992209998425,None,1.7762537710077595,1.7762727930094115,None,1.776324790000217,1.77634294598829,None,1,001,16,,2024-04-09_13h41.04.066,replicate_nsd,2023.2.3,60.105488258179264,2024-04-09 13h41.17.774270 -0400,
images/pair17.jpg,0,11,0,0,2,"[9, 19, 29, 39, 49, 59, 68, 69, 70, 71]",0,155,155,155,4.522571212000912,,,,,,,,,,,1.7765072319889441,1.7765898309880868,1.7765951819892507,1.7794803839933593,None,1.7795483029913157,1.7795699650014285,None,1.7796245589852333,1.7796440630045254,None,1.7796954530058429,1.7797138649912085,None,1,001,16,,2024-04-09_13h41.04.066,replicate_nsd,2023.2.3,60.105488258179264,2024-04-09 13h41.17.774270 -0400,
images/12_0.jpg,0,12,0,0,2,"[9, 19, 29, 39, 49, 59, 68, 69, 70, 71]",0,156,156,156,4.522571212000912,,,,,,,,,,,1.7798784250044264,1.7799626769847237,1.779968185001053,1.7825307940074708,None,1.7825981359928846,1.7826195539964829,None,1.7826735629932955,1.7826931359886657,None,1.7827449989854358,1.782763713010354,None,1,001,16,,2024-04-09_13h41.04.066,replicate_nsd,2023.2.3,60.105488258179264,2024-04-09 13h41.17.774270 -0400,
images/16_0 copy 7.jpg,0,13,0,0,2,"[9, 19, 29, 39, 49, 59, 68, 69, 70, 71]",0,157,157,157,4.522571212000912,,,,,,,,,,,1.7829289649962448,1.7830129640060477,1.7830184159975033,1.7850808129878715,None,1.785143037996022,1.7851644349866547,None,1.7852167680102866,1.7852362029952928,None,1.785287562001031,1.7853059530025348,None,1,001,16,,2024-04-09_13h41.04.066,replicate_nsd,2023.2.3,60.105488258179264,2024-04-09 13h41.17.774270 -0400,
images/14_28 copy 2.jpg,0,14,0,0,2,"[9, 19, 29, 39, 49, 59, 68, 69, 70, 71]",0,158,158,158,4.522571212000912,,,,,,,,,,,1.7854696479917038,1.7855596620065626,1.7855651679856237,1.787487430992769,None,1.7875549469899852,1.7875764670025092,None,1.787630671984516,1.7876503060106188,None,1.7877015859994572,1.787720418011304,None,1,001,16,,2024-04-09_13h41.04.066,replicate_nsd,2023.2.3,60.105488258179264,2024-04-09 13h41.17.774270 -0400,
images/9_12.jpg,0,15,0,0,2,"[9, 19, 29, 39, 49, 59, 68, 69, 70, 71]",0,159,159,159,4.522571212000912,,,,,,,,,,,1.7878858250041958,1.7879773809981998,1.7879828920122236,1.789945805008756,None,1.7900127150060143,1.7900346640089992,None,1.7900894109916408,1.7901090960076544,None,1.790160320000723,1.7901785770081915,None,1,001,16,,2024-04-09_13h41.04.066,replicate_nsd,2023.2.3,60.105488258179264,2024-04-09 13h41.17.774270 -0400,
images/9_28 copy 5.jpg,0,16,0,0,2,"[9, 19, 29, 39, 49, 59, 68, 69, 70, 71]",0,160,160,160,4.522571212000912,,,,,,,,,,,1.7903435259941034,1.7904337529907934,1.7904393459903076,1.7926357169926632,None,1.7927024489908945,1.7927241240104195,None,1.7927783769846428,1.7927979299856815,None,1.7928502089926042,1.7928686880040914,None,1,001,16,,2024-04-09_13h41.04.066,replicate_nsd,2023.2.3,60.105488258179264,2024-04-09 13h41.17.774270 -0400,
images/16_28 copy 3.jpg,0,17,0,0,2,"[9, 19, 29, 39, 49, 59, 68, 69, 70, 71]",0,161,161,161,4.522571212000912,,,,,,,,,,,1.7930329579976387,1.7931157999846619,1.7931212859984953,1.7950571939873043,None,1.7951244249998126,1.7951459980104119,None,1.7952003219979815,1.7952197889972012,None,1.7952717170119286,1.795290145004401,None,1,001,16,,2024-04-09_13h41.04.066,replicate_nsd,2023.2.3,60.105488258179264,2024-04-09 13h41.17.774270 -0400,
images/7_0 copy 4.jpg,0,18,0,0,2,"[9, 19, 29, 39, 49, 59, 68, 69, 70, 71]",0,162,162,162,4.522571212000912,,,,,,,,,,,1.7954555779870134,1.7955379099876154,1.7955433460010681,1.7975754739891272,None,1.7976421100029256,1.7976636060047895,None,1.7977178349974565,1.7977372560126241,None,1.7977891849877778,1.7978072539845016,None,1,001,16,,2024-04-09_13h41.04.066,replicate_nsd,2023.2.3,60.105488258179264,2024-04-09 13h41.17.774270 -0400,
images/blank.jpg,0,19,1,0,2,"[9, 19, 29, 39, 49, 59, 68, 69, 70, 71]",0,163,163,163,4.522571212000912,,,,,,,,,,,1.7979716240079142,1.798054029000923,1.7980594790133182,1.7994362899917178,None,1.7995032529870514,1.799525326990988,None,1.7995806050021201,1.7996004270098638,None,1.7996526809874922,1.799671127984766,None,1,001,16,,2024-04-09_13h41.04.066,replicate_nsd,2023.2.3,60.105488258179264,2024-04-09 13h41.17.774270 -0400,
images/pair18 copy 4.jpg,0,20,0,0,2,"[9, 19, 29, 39, 49, 59, 68, 69, 70, 71]",0,164,164,164,4.522571212000912,,,,,,,,,,,1.7998375470051542,1.7999281229858752,1.7999335869972128,1.8023586689960212,None,1.802425798989134,1.802447399997618,None,1.8025027409894392,1.8025224930024706,None,1.8025743630132638,1.8025944149994757,None,1,001,16,,2024-04-09_13h41.04.066,replicate_nsd,2023.2.3,60.105488258179264,2024-04-09 13h41.17.774270 -0400,
images/23_28 copy 6.jpg,0,21,0,0,2,"[9, 19, 29, 39, 49, 59, 68, 69, 70, 71]",0,165,165,165,4.522571212000912,,,,,,,,,,,1.8027598219923675,1.802843805984594,1.8028494569880422,1.8053305879875552,None,1.8053987459861673,1.8054199850012083,None,1.8054750899900682,1.8054943240131252,None,1.8055457739974372,1.8055641019891482,None,1,001,16,,2024-04-09_13h41.04.066,replicate_nsd,2023.2.3,60.105488258179264,2024-04-09 13h41.17.774270 -0400,
images/12_12 copy.jpg,0,22,0,0,2,"[9, 19, 29, 39, 49, 59, 68, 69, 70, 71]",0,166,166,166,4.522571212000912,,,,,,,,,,,1.805729554995196,1.8058121319918428,1.805817552987719,1.8078409399895463,None,1.8079075810092036,1.8079288009903394,None,1.8079839739948511,1.8080034769955091,None,1.8080552449973766,1.8080737330019474,None,1,001,16,,2024-04-09_13h41.04.066,replicate_nsd,2023.2.3,60.105488258179264,2024-04-09 13h41.17.774270 -0400,
images/16_40 copy 2.jpg,0,23,0,0,2,"[9, 19, 29, 39, 49, 59, 68, 69, 70, 71]",0,167,167,167,4.522571212000912,,,,,,,,,,,1.8082365799928084,1.8083194470091257,1.8083248639886733,1.8105044449912384,None,1.8105711890093517,1.8105927940050606,None,1.8106473420048133,1.8106670920096803,None,1.8107190390001051,1.8107374960090965,None,1,001,16,,2024-04-09_13h41.04.066,replicate_nsd,2023.2.3,60.105488258179264,2024-04-09 13h41.17.774270 -0400,
images/15_28 copy.jpg,0,24,0,0,2,"[9, 19, 29, 39, 49, 59, 68, 69, 70, 71]",0,168,168,168,4.522571212000912,,,,,,,,,,,1.8109029619954526,1.81099287600955,1.8109983489848673,1.8130057340022177,None,1.8130720449844375,1.8130934259970672,None,1.813147618988296,1.8131670780130662,None,1.8132180329994299,1.8132361980096903,None,1,001,16,,2024-04-09_13h41.04.066,replicate_nsd,2023.2.3,60.105488258179264,2024-04-09 13h41.17.774270 -0400,
images/pair06 copy 3.jpg,0,25,0,0,2,"[9, 19, 29, 39, 49, 59, 68, 69, 70, 71]",0,169,169,169,4.522571212000912,,,,,,,,,,,1.8133993890078273,1.8134833789954428,1.813488846004475,1.816161077003926,None,1.8162287459999789,1.816250152012799,None,1.816304965002928,1.816324037994491,None,1.8163754919951316,1.8163939869846217,None,1,001,16,,2024-04-09_13h41.04.066,replicate_nsd,2023.2.3,60.105488258179264,2024-04-09 13h41.17.774270 -0400,
images/21_40 copy 7.jpg,0,26,0,0,2,"[9, 19, 29, 39, 49, 59, 68, 69, 70, 71]",0,170,170,170,4.522571212000912,,,,,,,,,,,1.8165592039877083,1.8166425900126342,1.8166481879889034,1.8190724779851735,None,1.8191386759863235,1.8191602650040295,None,1.8192158860038035,1.8192351199977566,None,1.819286090991227,1.819304736010963,None,1,001,16,,2024-04-09_13h41.04.066,replicate_nsd,2023.2.3,60.105488258179264,2024-04-09 13h41.17.774270 -0400,
images/pair05.jpg,0,27,0,0,2,"[9, 19, 29, 39, 49, 59, 68, 69, 70, 71]",0,171,171,171,4.522571212000912,,,,,,,,,,,1.8194686849892605,1.8195508270000573,1.8195562199980486,1.8223606540123,None,1.8224267750047147,1.822447787009878,None,1.8225018400116824,1.8225209359952714,None,1.8225714759901166,1.8225899820099585,None,1,001,16,,2024-04-09_13h41.04.066,replicate_nsd,2023.2.3,60.105488258179264,2024-04-09 13h41.17.774270 -0400,
images/16_0 copy 7.jpg,0,28,0,0,2,"[9, 19, 29, 39, 49, 59, 68, 69, 70, 71]",0,172,172,172,4.522571212000912,,,,,,,,,,,1.8227531279844698,1.8228449260059278,1.822850603988627,1.8250149539962877,None,1.8250816109939478,1.8251037209993228,None,1.825158438005019,1.8251781550061423,None,1.8252291200042237,1.825247358996421,None,1,001,16,,2024-04-09_13h41.04.066,replicate_nsd,2023.2.3,60.105488258179264,2024-04-09 13h41.17.774270 -0400,
images/blank.jpg,0,29,1,0,2,"[9, 19, 29, 39, 49, 59, 68, 69, 70, 71]",0,173,173,173,4.522571212000912,,,,,,,,,,,1.8254132530128118,1.8254966929962393,1.8255021430086344,1.827082851988962,None,1.8271484329889063,1.8271701209887397,None,1.8272232209856156,1.8272426899929997,None,1.827293184993323,1.8273113470058888,None,1,001,16,,2024-04-09_13h41.04.066,replicate_nsd,2023.2.3,60.105488258179264,2024-04-09 13h41.17.774270 -0400,
images/10_28 copy.jpg,0,30,0,0,2,"[9, 19, 29, 39, 49, 59, 68, 69, 70, 71]",0,174,174,174,4.522571212000912,,,,,,,,,,,1.8274736919847783,1.8275642929947935,1.8275699040095787,1.8291843050101306,None,1.8292507650039624,1.8292722229962237,None,1.8293260379869025,1.8293455709936097,None,1.8293961790041067,1.829414428997552,None,1,001,16,,2024-04-09_13h41.04.066,replicate_nsd,2023.2.3,60.105488258179264,2024-04-09 13h41.17.774270 -0400,
images/pair15 copy 6.jpg,0,31,0,0,2,"[9, 19, 29, 39, 49, 59, 68, 69, 70, 71]",0,175,175,175,4.522571212000912,,,,,,,,,,,1.8295794799923897,1.8296692660078406,1.8296750120061915,1.8327203759981785,None,1.8327867870102637,1.8328082200023346,None,1.8328627120063175,1.8328818599984515,None,1.832932744990103,1.832950907992199,None,1,001,16,,2024-04-09_13h41.04.066,replicate_nsd,2023.2.3,60.105488258179264,2024-04-09 13h41.17.774270 -0400,
images/7_0 copy 6.jpg,0,32,0,0,2,"[9, 19, 29, 39, 49, 59, 68, 69, 70, 71]",0,176,176,176,4.522571212000912,,,,,,,,,,,1.8331665360019542,1.833249524992425,1.8332549610058777,1.8355733449861873,None,1.8356389719992876,1.8356607950117905,None,1.8357141590095125,1.8357336490007583,None,1.8357846419967245,1.8358027139911428,None,1,001,16,,2024-04-09_13h41.04.066,replicate_nsd,2023.2.3,60.105488258179264,2024-04-09 13h41.17.774270 -0400,
images/6_28 copy 7.jpg,0,33,0,0,2,"[9, 19, 29, 39, 49, 59, 68, 69, 70, 71]",0,177,177,177,4.522571212000912,,,,,,,,,,,1.835965195990866,1.8360473880020436,1.83605267299572,1.837980673997663,None,1.8380434529972263,1.8380645519937389,None,1.8381168940104544,1.8381355619931128,None,1.8381856819905806,1.8382038729905616,None,1,001,16,,2024-04-09_13h41.04.066,replicate_nsd,2023.2.3,60.105488258179264,2024-04-09 13h41.17.774270 -0400,
images/22_40 copy 3.jpg,0,34,0,0,2,"[9, 19, 29, 39, 49, 59, 68, 69, 70, 71]",0,178,178,178,4.522571212000912,,,,,,,,,,,1.8383668109891005,1.8384564069856424,1.838461812993046,1.8402700920123607,None,1.8403335660113953,1.8403544960019644,None,1.8404068340023514,1.8404260220122524,None,1.840476123004919,1.8404952659911942,None,1,001,16,,2024-04-09_13h41.04.066,replicate_nsd,2023.2.3,60.105488258179264,2024-04-09 13h41.17.774270 -0400,
images/17_0 copy 3.jpg,0,35,0,0,2,"[9, 19, 29, 39, 49, 59, 68, 69, 70, 71]",0,179,179,179,4.522571212000912,,,,,,,,,,,1.8406561769952532,1.8407375820097513,1.8407430549850687,1.8428637949982658,None,1.8429264120059088,1.8429476429882925,None,1.842999537999276,1.843018421990564,None,1.8430677439901046,1.843085772008635,None,1,001,16,,2024-04-09_13h41.04.066,replicate_nsd,2023.2.3,60.105488258179264,2024-04-09 13h41.17.774270 -0400,
images/blank.jpg,0,36,0,0,2,"[9, 19, 29, 39, 49, 59, 68, 69, 70, 71]",0,180,180,180,4.522571212000912,,,,,,,,,,,1.8432460699987132,1.8433273599948734,1.843332633987302,1.8448044380056672,None,1.844869821012253,1.8448915109911468,None,1.8449445230071433,1.844963720999658,None,1.8450135689927265,1.845031470991671,None,1,001,16,,2024-04-09_13h41.04.066,replicate_nsd,2023.2.3,60.105488258179264,2024-04-09 13h41.17.774270 -0400,
images/23_12 copy 3.jpg,0,37,0,0,2,"[9, 19, 29, 39, 49, 59, 68, 69, 70, 71]",0,181,181,181,4.522571212000912,,,,,,,,,,,1.8451912520104088,1.8452731019933708,1.8452784520050045,1.8469546289998107,None,1.8470209169900045,1.8470428359869402,None,1.8470968100009486,1.8471162799978629,None,1.84716688899789,1.847185343009187,None,1,001,16,,2024-04-09_13h41.04.066,replicate_nsd,2023.2.3,60.105488258179264,2024-04-09 13h41.17.774270 -0400,
images/8_28 copy 3.jpg,0,38,0,0,2,"[9, 19, 29, 39, 49, 59, 68, 69, 70, 71]",0,182,182,182,4.522571212000912,,,,,,,,,,,1.8473485280119348,1.8474309959856328,1.8474363859859295,1.8490582960075699,None,1.8491226969927084,1.8491441970109008,None,1.8491974149947055,1.8492166420037393,None,1.8492673659930006,1.8492855239892378,None,1,001,16,,2024-04-09_13h41.04.066,replicate_nsd,2023.2.3,60.105488258179264,2024-04-09 13h41.17.774270 -0400,
images/blank.jpg,0,39,1,0,2,"[9, 19, 29, 39, 49, 59, 68, 69, 70, 71]",0,183,183,183,4.522571212000912,,,,,,,,,,,1.8494479299988598,1.849530412000604,1.8495360740053002,1.8510009099845774,None,1.8510649469972122,1.8510864530107938,None,1.85113903900492,1.851158500998281,None,1.851209304004442,1.851227839011699,None,1,001,16,,2024-04-09_13h41.04.066,replicate_nsd,2023.2.3,60.105488258179264,2024-04-09 13h41.17.774270 -0400,
images/20_28 copy.jpg,0,40,0,0,2,"[9, 19, 29, 39, 49, 59, 68, 69, 70, 71]",0,184,184,184,4.522571212000912,,,,,,,,,,,1.8513884709973354,1.8514698559883982,1.8514752709888853,1.8535570850071963,None,1.8536213859915733,1.8536426550126635,None,1.8536956179887056,1.8537147699971683,None,1.8537653159874026,1.8537837339972612,None,1,001,16,,2024-04-09_13h41.04.066,replicate_nsd,2023.2.3,60.105488258179264,2024-04-09 13h41.17.774270 -0400,
images/20_12 copy.jpg,0,41,0,0,2,"[9, 19, 29, 39, 49, 59, 68, 69, 70, 71]",0,185,185,185,4.522571212000912,,,,,,,,,,,1.8539448399969842,1.8540262999886181,1.854031891998602,1.855905784002971,None,1.8559696979937144,1.8559908099996392,None,1.8560437810083386,1.8560628879931755,None,1.856113235000521,1.8561319230066147,None,1,001,16,,2024-04-09_13h41.04.066,replicate_nsd,2023.2.3,60.105488258179264,2024-04-09 13h41.17.774270 -0400,
images/12_12 copy 7.jpg,0,42,0,0,2,"[9, 19, 29, 39, 49, 59, 68, 69, 70, 71]",0,186,186,186,4.522571212000912,,,,,,,,,,,1.8562922179989982,1.8563733930059243,1.8563789410109166,1.858243427996058,None,1.8583079169911798,1.8583313759882003,None,1.8583851490111556,1.8584045550087467,None,1.8584555640118197,1.8584738750068936,None,1,001,16,,2024-04-09_13h41.04.066,replicate_nsd,2023.2.3,60.105488258179264,2024-04-09 13h41.17.774270 -0400,
images/8_12 copy 2.jpg,0,43,0,0,2,"[9, 19, 29, 39, 49, 59, 68, 69, 70, 71]",0,187,187,187,4.522571212000912,,,,,,,,,,,1.8586359650071245,1.858717154012993,1.8587225009978283,1.860626083012903,None,1.8606898270081729,1.8607111049932428,None,1.8607636019878555,1.860782981995726,None,1.8608338719932362,1.860852106998209,None,1,001,16,,2024-04-09_13h41.04.066,replicate_nsd,2023.2.3,60.105488258179264,2024-04-09 13h41.17.774270 -0400,
images/10_0.jpg,0,44,0,0,2,"[9, 19, 29, 39, 49, 59, 68, 69, 70, 71]",0,188,188,188,4.522571212000912,,,,,,,,,,,1.8610154229972977,1.8610979829973076,1.861103473987896,1.8629485869896598,None,1.8630167949886527,1.863040449010441,None,1.8630951789964456,1.8631145469844341,None,1.8631654139899183,1.8631836219865363,None,1,001,16,,2024-04-09_13h41.04.066,replicate_nsd,2023.2.3,60.105488258179264,2024-04-09 13h41.17.774270 -0400,
images/pair06 copy 4.jpg,0,45,0,0,2,"[9, 19, 29, 39, 49, 59, 68, 69, 70, 71]",0,189,189,189,4.522571212000912,,,,,,,,,,,1.8633462089928798,1.8634279590041842,1.8634332650108263,1.8662190359900706,None,1.8662850520049687,1.8663069719914347,None,1.8663604189932812,1.8663798380002845,None,1.866430275986204,1.8664485109911766,None,1,001,16,,2024-04-09_13h41.04.066,replicate_nsd,2023.2.3,60.105488258179264,2024-04-09 13h41.17.774270 -0400,
images/17_0 copy 5.jpg,0,46,0,0,2,"[9, 19, 29, 39, 49, 59, 68, 69, 70, 71]",0,190,190,190,4.522571212000912,,,,,,,,,,,1.866611062985612,1.8667006730102003,1.8667061990126967,1.8690342479967512,None,1.869100037991302,1.8691216009901837,None,1.8691749869904015,1.869194280996453,None,1.8692453000112437,1.8692640159861185,None,1,001,16,,2024-04-09_13h41.04.066,replicate_nsd,2023.2.3,60.105488258179264,2024-04-09 13h41.17.774270 -0400,
images/15_0 copy 6.jpg,0,47,0,0,2,"[9, 19, 29, 39, 49, 59, 68, 69, 70, 71]",0,191,191,191,4.522571212000912,,,,,,,,,,,1.8697681319899857,1.8698503990017343,1.869856006000191,1.8718065829889383,None,1.8718711420078762,1.8718925270077307,None,1.8719462110020686,1.871965589991305,None,1.8720162370009348,1.8720345959882252,None,1,001,16,,2024-04-09_13h41.04.066,replicate_nsd,2023.2.3,60.105488258179264,2024-04-09 13h41.17.774270 -0400,
images/15_0.jpg,0,48,0,0,2,"[9, 19, 29, 39, 49, 59, 68, 69, 70, 71]",0,192,192,192,4.522571212000912,,,,,,,,,,,1.8721958060050383,1.8723331229994074,1.8723385659977794,1.8739894010068383,None,1.8740540579892695,1.8740755190083291,None,1.8741295369982254,1.8741489480016753,None,1.8741999430058058,1.8742186290037353,None,1,001,16,,2024-04-09_13h41.04.066,replicate_nsd,2023.2.3,60.105488258179264,2024-04-09 13h41.17.774270 -0400,
images/blank.jpg,0,49,1,0,2,"[9, 19, 29, 39, 49, 59, 68, 69, 70, 71]",0,193,193,193,4.522571212000912,,,,,,,,,,,1.8743813050095923,1.874470498005394,1.8744759910041466,1.875958721007919,None,1.876022937009111,1.876044169999659,None,1.876097550994018,1.8761174700048286,None,1.8761675900022965,1.8761860899976455,None,1,001,16,,2024-04-09_13h41.04.066,replicate_nsd,2023.2.3,60.105488258179264,2024-04-09 13h41.17.774270 -0400,
images/15_28 copy 7.jpg,0,50,0,0,2,"[9, 19, 29, 39, 49, 59, 68, 69, 70, 71]",0,194,194,194,4.522571212000912,,,,,,,,,,,1.8763477129978128,1.8764288419915829,1.876434303005226,1.8783923230075743,None,1.8784565500100143,1.8784778930130415,None,1.8785311199899297,1.878550516004907,None,1.8786008339957334,1.8786192839907017,None,1,001,16,,2024-04-09_13h41.04.066,replicate_nsd,2023.2.3,60.105488258179264,2024-04-09 13h41.17.774270 -0400,
images/21_12 copy 2.jpg,0,51,0,0,2,"[9, 19, 29, 39, 49, 59, 68, 69, 70, 71]",0,195,195,195,4.522571212000912,,,,,,,,,,,1.8787814259994775,1.878862081997795,1.8788675059913658,1.8807611470110714,None,1.8808253559982404,1.8808470499934629,None,1.880899560987018,1.8809190570027567,None,1.8809695430099964,1.8809879249893129,None,1,001,16,,2024-04-09_13h41.04.066,replicate_nsd,2023.2.3,60.105488258179264,2024-04-09 13h41.17.774270 -0400,
images/11_40.jpg,0,52,0,0,2,"[9, 19, 29, 39, 49, 59, 68, 69, 70, 71]",0,196,196,196,4.522571212000912,,,,,,,,,,,1.8811491029919125,1.8812306670006365,1.8812361790041905,1.883440720004728,None,1.8835053170041647,1.8835269339906517,None,1.883580385998357,1.8835999009897932,None,1.8836505489889532,1.8836694289930165,None,1,001,16,,2024-04-09_13h41.04.066,replicate_nsd,2023.2.3,60.105488258179264,2024-04-09 13h41.17.774270 -0400,
images/pair05 copy 3.jpg,0,53,0,0,2,"[9, 19, 29, 39, 49, 59, 68, 69, 70, 71]",0,197,197,197,4.522571212000912,,,,,,,,,,,1.8838303649972659,1.8839111469860654,1.8839164889941458,1.8864595610066317,None,1.8865246330096852,1.886546174006071,None,1.8865995359956287,1.8866191470006015,None,1.8866761119861621,1.8866955490084365,None,1,001,16,,2024-04-09_13h41.04.066,replicate_nsd,2023.2.3,60.105488258179264,2024-04-09 13h41.17.774270 -0400,
images/12_40.jpg,0,54,0,0,2,"[9, 19, 29, 39, 49, 59, 68, 69, 70, 71]",0,198,198,198,4.522571212000912,,,,,,,,,,,1.8868692670075689,1.886950665997574,1.8869560830062255,1.8893601509917062,None,1.8894246869895142,1.8894461540039629,None,1.889499076991342,1.8895182329870295,None,1.8895689109922387,1.889586937992135,None,1,001,16,,2024-04-09_13h41.04.066,replicate_nsd,2023.2.3,60.105488258179264,2024-04-09 13h41.17.774270 -0400,
images/23_28 copy 7.jpg,0,55,0,0,2,"[9, 19, 29, 39, 49, 59, 68, 69, 70, 71]",0,199,199,199,4.522571212000912,,,,,,,,,,,1.889749177993508,1.889839439012576,1.8898451639979612,1.8918096899869852,None,1.8918738909997046,1.891895362001378,None,1.8919480699987616,1.8919678189849947,None,1.892019168997649,1.892037651996361,None,1,001,16,,2024-04-09_13h41.04.066,replicate_nsd,2023.2.3,60.105488258179264,2024-04-09 13h41.17.774270 -0400,
images/7_12.jpg,0,56,0,0,2,"[9, 19, 29, 39, 49, 59, 68, 69, 70, 71]",0,200,200,200,4.522571212000912,,,,,,,,,,,1.8921996360004414,1.8922887390071992,1.892294030985795,1.894199992006179,None,1.89426375500625,1.8942853740009014,None,1.894337846984854,1.894357057986781,None,1.8944076129992027,1.8944260909920558,None,1,001,16,,2024-04-09_13h41.04.066,replicate_nsd,2023.2.3,60.105488258179264,2024-04-09 13h41.17.774270 -0400,
images/pair12 copy 7.jpg,0,57,0,0,2,"[9, 19, 29, 39, 49, 59, 68, 69, 70, 71]",0,201,201,201,4.522571212000912,,,,,,,,,,,1.8945897030062042,1.8946724149864167,1.8946779989928473,1.8971684749994893,None,1.8972338080056943,1.8972549889876973,None,1.897307842009468,1.8973272249859292,None,1.8973778969957493,1.8973959920112975,None,1,001,16,,2024-04-09_13h41.04.066,replicate_nsd,2023.2.3,60.105488258179264,2024-04-09 13h41.17.774270 -0400,
images/13_12 copy.jpg,0,58,0,0,2,"[9, 19, 29, 39, 49, 59, 68, 69, 70, 71]",0,202,202,202,4.522571212000912,,,,,,,,,,,1.8975604779843707,1.8976512319932226,1.8976569040096365,1.9002154110057745,None,1.9002807209908497,1.9003025779966265,None,1.900355433986988,1.9003749699913897,None,1.900425575004192,1.9004440190037712,None,1,001,16,,2024-04-09_13h41.04.066,replicate_nsd,2023.2.3,60.105488258179264,2024-04-09 13h41.17.774270 -0400,
images/blank.jpg,0,59,1,0,2,"[9, 19, 29, 39, 49, 59, 68, 69, 70, 71]",0,203,203,203,4.522571212000912,,,,,,,,,,,1.9006079740065616,1.9006967509922106,1.9007022849982604,1.9022742729866877,None,1.9023386960034259,1.9023603620007634,None,1.9024137480009813,1.9024330360116437,None,1.9024842120124958,1.9025028469914105,None,1,001,16,,2024-04-09_13h41.04.066,replicate_nsd,2023.2.3,60.105488258179264,2024-04-09 13h41.17.774270 -0400,
images/11_28 copy 7.jpg,0,60,0,0,2,"[9, 19, 29, 39, 49, 59, 68, 69, 70, 71]",0,204,204,204,4.522571212000912,,,,,,,,,,,1.902666843001498,1.902748557011364,1.9027538349910174,1.9045692149957176,None,1.9046330330020282,1.904654214013135,None,1.9047073079855181,1.9047263280081097,None,1.9047766260046046,1.9047947310027666,None,1,001,16,,2024-04-09_13h41.04.066,replicate_nsd,2023.2.3,60.105488258179264,2024-04-09 13h41.17.774270 -0400,
images/20_0 copy.jpg,0,61,0,0,2,"[9, 19, 29, 39, 49, 59, 68, 69, 70, 71]",0,205,205,205,4.522571212000912,,,,,,,,,,,1.9049549270130228,1.9050490529916715,1.905054533999646,1.9071207639935892,None,1.9071947780030314,1.9072188799909782,None,1.9073820140038151,1.9074010770127643,None,1.9074507239856757,1.907492681988515,None,1,001,16,,2024-04-09_13h41.04.066,replicate_nsd,2023.2.3,60.105488258179264,2024-04-09 13h41.17.774270 -0400,
images/pair06 copy 2.jpg,0,62,0,0,2,"[9, 19, 29, 39, 49, 59, 68, 69, 70, 71]",0,206,206,206,4.522571212000912,,,,,,,,,,,1.9076729269872885,1.9078506820078474,1.9078569409903139,1.9106732849904802,None,1.9107395829923917,1.910760645987466,None,1.9108134770067409,1.910832727997331,None,1.9108823699934874,1.9109005609934684,None,1,001,16,,2024-04-09_13h41.04.066,replicate_nsd,2023.2.3,60.105488258179264,2024-04-09 13h41.17.774270 -0400,
images/17_40 copy 2.jpg,0,63,0,0,2,"[9, 19, 29, 39, 49, 59, 68, 69, 70, 71]",0,207,207,207,4.522571212000912,,,,,,,,,,,1.9110641409934033,1.9112129170098342,1.911218500987161,1.9138245960057247,None,1.9138894439965952,1.9139105509966612,None,1.9139633490121923,1.913982460013358,None,1.9140326069900766,1.9140507449919824,None,1,001,16,,2024-04-09_13h41.04.066,replicate_nsd,2023.2.3,60.105488258179264,2024-04-09 13h41.17.774270 -0400,
images/8_0 copy 4.jpg,0,64,0,0,2,"[9, 19, 29, 39, 49, 59, 68, 69, 70, 71]",0,208,208,208,4.522571212000912,,,,,,,,,,,1.9142133459972683,1.9143194560019765,1.9143249029875733,1.9163185709912796,None,1.9163827149895951,1.9164038349990733,None,1.9164565110113472,1.9164755569945555,None,1.916525593987899,1.9165439379867166,None,1,001,16,,2024-04-09_13h41.04.066,replicate_nsd,2023.2.3,60.105488258179264,2024-04-09 13h41.17.774270 -0400,
images/19_40.jpg,0,65,0,0,2,"[9, 19, 29, 39, 49, 59, 68, 69, 70, 71]",0,209,209,209,4.522571212000912,,,,,,,,,,,1.916704122995725,1.916784822999034,1.9168149739853106,1.9187306360108778,None,1.918794714991236,1.9188158320030198,None,1.9188692609895952,1.9188887809868902,None,1.9189395639987197,1.9189580249949358,None,1,001,16,,2024-04-09_13h41.04.066,replicate_nsd,2023.2.3,60.105488258179264,2024-04-09 13h41.17.774270 -0400,
images/12_0 copy 2.jpg,0,66,0,0,2,"[9, 19, 29, 39, 49, 59, 68, 69, 70, 71]",0,210,210,210,4.522571212000912,,,,,,,,,,,1.9191205959941726,1.968970320012886,1.9689868619898334,1.9732598859991413,None,1.9733674580056686,1.9733940759906545,None,1.9734596250054892,1.973484346002806,None,1.973546471010195,1.973569388006581,None,1,001,16,,2024-04-09_13h41.04.066,replicate_nsd,2023.2.3,60.105488258179264,2024-04-09 13h41.17.774270 -0400,
images/19_28 copy 4.jpg,0,67,0,0,2,"[9, 19, 29, 39, 49, 59, 68, 69, 70, 71]",0,211,211,211,4.522571212000912,,,,,,,,,,,1.9737842080066912,1.9739061360014603,1.9739129510126077,1.9765201949921902,None,1.9766004389966838,1.9766266549995635,None,1.9766925949952565,1.97671671299031,None,1.9767790350015275,1.976801679993514,None,1,001,16,,2024-04-09_13h41.04.066,replicate_nsd,2023.2.3,60.105488258179264,2024-04-09 13h41.17.774270 -0400,
images/blank.jpg,0,68,1,0,2,"[9, 19, 29, 39, 49, 59, 68, 69, 70, 71]",0,212,212,212,4.522571212000912,,,,,,,,,,,1.9770031679945532,1.9771159189986065,1.977122717013117,1.9787711020035204,None,1.9788523069873918,1.9788791289902292,None,1.9789445089991204,1.9789686069998425,None,1.9790313249977771,1.9790541490074247,None,1,001,16,,2024-04-09_13h41.04.066,replicate_nsd,2023.2.3,60.105488258179264,2024-04-09 13h41.17.774270 -0400,
images/blank.jpg,0,69,1,0,2,"[9, 19, 29, 39, 49, 59, 68, 69, 70, 71]",0,213,213,213,4.522571212000912,,,,,,,,,,,1.979261475004023,1.9793712719983887,1.9793780609907117,1.9810036240087356,None,1.9810834109957796,1.9811096040066332,None,1.9811752309906296,1.981198627006961,None,1.9812609220098238,1.9812833110045176,None,1,001,16,,2024-04-09_13h41.04.066,replicate_nsd,2023.2.3,60.105488258179264,2024-04-09 13h41.17.774270 -0400,
images/blank.jpg,0,70,1,0,2,"[9, 19, 29, 39, 49, 59, 68, 69, 70, 71]",0,214,214,214,4.522571212000912,,,,,,,,,,,1.9814812279946636,1.9815913090133108,1.9815979579871055,1.9832329420023598,None,1.9833127500023693,1.9833390770072583,None,1.9834048989869189,1.9834286459954455,None,1.9834908430057112,1.9835133790038526,None,1,001,16,,2024-04-09_13h41.04.066,replicate_nsd,2023.2.3,60.105488258179264,2024-04-09 13h41.17.774270 -0400,
images/blank.jpg,0,71,1,1,2,"[9, 19, 29, 39, 49, 59, 68, 69, 70, 71]",0,215,215,215,4.522571212000912,,,,,,,,,,,1.9837120400043204,1.983814142004121,1.9838206970016472,1.985337640013313,None,1.9854181880073156,1.9854448600090109,None,1.9855110489879735,1.9855351180012804,None,1.985598281986313,1.9856209809950087,None,1,001,16,,2024-04-09_13h41.04.066,replicate_nsd,2023.2.3,60.105488258179264,2024-04-09 13h41.17.774270 -0400,
images/pair14 copy.jpg,0,0,0,0,3,"[9, 19, 31, 45, 56, 68, 69, 70, 71]",0,216,216,216,4.522571212000912,,,,,,,,,,,1.9858221279864665,1.9859323909913655,1.9859391310019419,1.9894413400033955,None,1.9895230809925124,1.989549238991458,None,1.9896146999963094,1.9896380830032285,None,1.9897006519895513,1.9897229119960684,None,1,001,16,,2024-04-09_13h41.04.066,replicate_nsd,2023.2.3,60.105488258179264,2024-04-09 13h41.17.774270 -0400,
images/18_40 copy 7.jpg,0,1,0,0,3,"[9, 19, 31, 45, 56, 68, 69, 70, 71]",0,217,217,217,4.522571212000912,,,,,,,,,,,1.989923090004595,1.9900232990039513,1.9900298310094513,1.9926807490119245,None,1.9927614199987147,1.9927877690060996,None,1.9928532670019194,1.9928768840036355,None,1.9929392790072598,1.9929616549925413,None,1,001,16,,2024-04-09_13h41.04.066,replicate_nsd,2023.2.3,60.105488258179264,2024-04-09 13h41.17.774270 -0400,
images/22_40 copy 3.jpg,0,2,0,0,3,"[9, 19, 31, 45, 56, 68, 69, 70, 71]",0,218,218,218,4.522571212000912,,,,,,,,,,,1.9931618529953994,1.9932634590077214,1.9932700060016941,1.9951698159857187,None,1.9952504640095867,1.9952774810080882,None,1.995343143993523,1.99536767200334,None,1.9954300569952466,1.9954529480019119,None,1,001,16,,2024-04-09_13h41.04.066,replicate_nsd,2023.2.3,60.105488258179264,2024-04-09 13h41.17.774270 -0400,
images/19_40 copy 5.jpg,0,3,0,0,3,"[9, 19, 31, 45, 56, 68, 69, 70, 71]",0,219,219,219,4.522571212000912,,,,,,,,,,,1.9956515000085346,1.99576256700675,1.9957690610026475,1.9979250140022486,None,1.9980058819928672,1.9980322970077395,None,1.9980982819979545,1.9981218799948692,None,1.9981841589906253,1.9982066419906914,None,1,001,16,,2024-04-09_13h41.04.066,replicate_nsd,2023.2.3,60.105488258179264,2024-04-09 13h41.17.774270 -0400,
images/19_28 copy 3.jpg,0,4,0,0,3,"[9, 19, 31, 45, 56, 68, 69, 70, 71]",0,220,220,220,4.522571212000912,,,,,,,,,,,1.9984060339920688,1.9985176000045612,1.998524308000924,2.000677739997627,None,2.000760614988394,2.000790752004832,None,2.000857211998664,2.000881304993527,None,2.0009441699949093,2.0009667850099504,None,1,001,16,,2024-04-09_13h41.04.066,replicate_nsd,2023.2.3,60.105488258179264,2024-04-09 13h41.17.774270 -0400,
images/pair09 copy 6.jpg,0,5,0,0,3,"[9, 19, 31, 45, 56, 68, 69, 70, 71]",0,221,221,221,4.522571212000912,,,,,,,,,,,2.0011693270062096,2.0012803210120182,2.00128709198907,2.004343565989984,None,2.0044256070104893,2.0044521130039357,None,2.0045187840005383,2.0045432049955707,None,2.0046064269845374,2.0046299220121,None,1,001,16,,2024-04-09_13h41.04.066,replicate_nsd,2023.2.3,60.105488258179264,2024-04-09 13h41.17.774270 -0400,
images/6_0 copy 7.jpg,0,6,0,0,3,"[9, 19, 31, 45, 56, 68, 69, 70, 71]",0,222,222,222,4.522571212000912,,,,,,,,,,,2.0048322429938708,2.004934961994877,2.004941624007188,2.0072830140125006,None,2.0073645660013426,2.0073908409976866,None,2.0074571919976734,2.0074814679974224,None,2.007545164990006,2.007568100001663,None,1,001,16,,2024-04-09_13h41.04.066,replicate_nsd,2023.2.3,60.105488258179264,2024-04-09 13h41.17.774270 -0400,
images/10_40 copy 2.jpg,0,7,0,0,3,"[9, 19, 31, 45, 56, 68, 69, 70, 71]",0,223,223,223,4.522571212000912,,,,,,,,,,,2.0077705569856334,2.007873655005824,2.007880271994509,2.010404208005639,None,2.010477998002898,2.010502216988243,None,2.010562359006144,2.0105844440113287,None,2.010641116008628,2.010662217013305,None,1,001,16,,2024-04-09_13h41.04.066,replicate_nsd,2023.2.3,60.105488258179264,2024-04-09 13h41.17.774270 -0400,
images/pair11 copy 4.jpg,0,8,0,0,3,"[9, 19, 31, 45, 56, 68, 69, 70, 71]",0,224,224,224,4.522571212000912,,,,,,,,,,,2.0108464900113177,2.0109394160099328,2.010945385991363,2.0136986789875664,None,2.01376947099925,2.0137923280126415,None,2.0138487340009306,2.0138694230117835,None,2.0139227239997126,2.0139424380031414,None,1,001,16,,2024-04-09_13h41.04.066,replicate_nsd,2023.2.3,60.105488258179264,2024-04-09 13h41.17.774270 -0400,
images/blank.jpg,0,9,1,0,3,"[9, 19, 31, 45, 56, 68, 69, 70, 71]",0,225,225,225,4.522571212000912,,,,,,,,,,,2.0141146669921,2.01420143400901,2.0142070639994927,2.016234626993537,None,2.01630110500264,2.016322854993632,None,2.016376149986172,2.0163954320014454,None,2.0164466600108426,2.016465310996864,None,1,001,16,,2024-04-09_13h41.04.066,replicate_nsd,2023.2.3,60.105488258179264,2024-04-09 13h41.17.774270 -0400,
images/10_28 copy 2.jpg,0,10,0,0,3,"[9, 19, 31, 45, 56, 68, 69, 70, 71]",0,226,226,226,4.522571212000912,,,,,,,,,,,2.0166287609899882,2.0167110500042327,2.0167416780022904,2.018773804011289,None,2.018839645985281,2.0188616510131396,None,2.0189151389931794,2.0189346880069934,None,2.018985820992384,2.019004189001862,None,1,001,16,,2024-04-09_13h41.04.066,replicate_nsd,2023.2.3,60.105488258179264,2024-04-09 13h41.17.774270 -0400,
images/19_28 copy 6.jpg,0,11,0,0,3,"[9, 19, 31, 45, 56, 68, 69, 70, 71]",0,227,227,227,4.522571212000912,,,,,,,,,,,2.019195922999643,2.019278197985841,2.019308741000714,2.021246260992484,None,2.0213127289898694,2.021334298013244,None,2.021387546992628,2.0214068079949357,None,2.021457872004248,2.0214768080040812,None,1,001,16,,2024-04-09_13h41.04.066,replicate_nsd,2023.2.3,60.105488258179264,2024-04-09 13h41.17.774270 -0400,
images/7_12 copy 4.jpg,0,12,0,0,3,"[9, 19, 31, 45, 56, 68, 69, 70, 71]",0,228,228,228,4.522571212000912,,,,,,,,,,,2.021640702005243,2.021723326004576,2.0217535250121728,2.0234380179899745,None,2.0236179229978006,2.0236771070049144,None,2.023775759007549,2.0237956960045267,None,2.023846844007494,2.0238878059899434,None,1,001,16,,2024-04-09_13h41.04.066,replicate_nsd,2023.2.3,60.105488258179264,2024-04-09 13h41.17.774270 -0400,
