current_image,trial_index,is_blank_trial,is_repeat,is_new_run,run_num,all_blanks_list,practice.thisRepN,practice.thisTrialN,practice.thisN,practice.thisIndex,loop_all_images.thisRepN,loop_all_images.thisTrialN,loop_all_images.thisN,loop_all_images.thisIndex,thisRow.t,notes,waiting_fmri.started,key_resp_2.started,text_3.started,waiting_fmri.stopped,key_resp_2.keys,key_resp_2.rt,key_resp_2.duration,set_up.started,set_up.stopped,practice_continue.started,key_resp_6.started,text_6.started,practice_continue.stopped,key_resp_6.keys,key_resp_6.rt,key_resp_6.duration,set_skips_and_correct_key_2.started,set_skips_and_correct_key_2.stopped,practice_trial.started,polygon_3.started,all_keys_pressed_2.started,image_2.started,press_if_repeat_2.started,image_2.stopped,press_if_repeat_2.stopped,polygon_3.stopped,all_keys_pressed_2.stopped,practice_trial.stopped,press_if_repeat_2.keys,press_if_repeat_2.corr,all_keys_pressed_2.keys,blank_trial_2.started,blank_trial_2.stopped,polygon_4.started,polygon_4.stopped,testing_continue.started,key_resp_7.started,text_7.started,testing_continue.stopped,key_resp_7.keys,key_resp_7.rt,key_resp_7.duration,set_skips_and_correct_key.started,set_skips_and_correct_key.stopped,trial.started,polygon.started,all_keys_pressed.started,image.started,press_if_repeat.started,image.stopped,press_if_repeat.stopped,polygon.stopped,all_keys_pressed.stopped,trial.stopped,press_if_repeat.keys,press_if_repeat.corr,all_keys_pressed.keys,blank_trial.started,blank_trial.stopped,blank_trial_testing_keys.keys,run_wait2_2.started,run_wait2_2.stopped,key_resp_5.keys,waiting_fmri_2.started,waiting_fmri_2.stopped,key_resp_4.keys,blank_trial_testing_keys.started,polygon_2.started,blank_trial_testing_keys.stopped,polygon_2.stopped,participant,session,starting_run,,date,expName,psychopyVersion,frameRate,expStart,
,,,,,,,,,,,,,,,,,0.008698998999534524,0.020132024999838904,0.020132024999838904,16.968482502999905,equal,16.942234694000035,None,,,,,,,,,,,,,,,,,,,,,,,,,,,,,,,,,,,,,,,,,,,,,,,,,,,,,,,,,,,,,,,,1,001,0,,2024-04-12_14h25.11.355,replicate_nsd,2023.2.3,60.02731110576763,2024-04-12 14h25.25.699816 -0400,
,,,,,,,,,,,,,,,,,,,,,,,,16.968504728999505,16.96860406399992,16.968611839000005,16.985455058999833,16.985455058999833,134.55624587299917,1,117.56184879300054,None,,,,,,,,,,,,,,,,,,,,,,,,,,,,,,,,,,,,,,,,,,,,,,,,,,,,,,,1,001,0,,2024-04-12_14h25.11.355,replicate_nsd,2023.2.3,60.02731110576763,2024-04-12 14h25.25.699816 -0400,
practice_images/paired_image_25_1.png,0,0,,,,,0,0,0,0,,,,,134.59334129799936,,,,,,,,,,,,,,,,,,134.56592764999914,134.56603037899913,134.5660407689993,134.59334129799936,134.59334129799936,135.58889435499987,135.58889435499987,138.5890252249992,138.5890252249992,138.5890252249992,138.5890252249992,138.57263225099996,None,0,None,138.57333691699932,138.5733800909993,,,,,,,,,,,,,,,,,,,,,,,,,,,,,,,,,,,,,,1,001,0,,2024-04-12_14h25.11.355,replicate_nsd,2023.2.3,60.02731110576763,2024-04-12 14h25.25.699816 -0400,
practice_images/paired_image_24_2.png,1,0,,,,,0,1,1,1,,,,,138.5890252249992,,,,,,,,,,,,,,,,,,138.57366532499964,138.57378483999946,138.57379750399923,138.5890252249992,138.5890252249992,139.589022569,139.589022569,142.58890052099923,142.58890052099923,142.58890052099923,142.58890052099923,142.57465392499944,None,0,None,142.57507680599974,142.57511751999937,,,,,,,,,,,,,,,,,,,,,,,,,,,,,,,,,,,,,,1,001,0,,2024-04-12_14h25.11.355,replicate_nsd,2023.2.3,60.02731110576763,2024-04-12 14h25.25.699816 -0400,
practice_images/paired_image_3_1.png,2,0,,,,,0,2,2,2,,,,,142.58890052099923,,,,,,,,,,,,,,,,,,142.57539646899932,142.57551533499918,142.57552783499978,142.58890052099923,142.58890052099923,143.58915134799918,143.58915134799918,146.58884105199922,146.58884105199922,146.58884105199922,146.58884105199922,146.57461937899916,None,0,None,146.57504521599913,146.57508575799966,,,,,,,,,,,,,,,,,,,,,,,,,,,,,,,,,,,,,,1,001,0,,2024-04-12_14h25.11.355,replicate_nsd,2023.2.3,60.02731110576763,2024-04-12 14h25.25.699816 -0400,
practice_images/paired_image_18_1.png,3,0,,,,,0,3,3,3,,,,,146.58884105199922,,,,,,,,,,,,,,,,,,146.57536400999925,146.57548191399928,146.5754941819996,146.58884105199922,146.58884105199922,147.58926357999917,147.58926357999917,150.58884746499916,150.58884746499916,150.58884746499916,150.58884746499916,150.57464948599954,None,0,None,150.57507736999924,150.5751184689998,,,,,,,,,,,,,,,,,,,,,,,,,,,,,,,,,,,,,,1,001,0,,2024-04-12_14h25.11.355,replicate_nsd,2023.2.3,60.02731110576763,2024-04-12 14h25.25.699816 -0400,
practice_images/paired_image_15_1.png,4,0,,,,,0,4,4,4,,,,,150.58884746499916,,,,,,,,,,,,,,,,,,150.57539810099934,150.575516762,150.57552936799948,150.58884746499916,150.58884746499916,151.5911104349998,151.5911104349998,154.58874608599945,154.58874608599945,154.58874608599945,154.58874608599945,154.57569808699918,None,0,None,154.57612539899947,154.57616540899926,,,,,,,,,,,,,,,,,,,,,,,,,,,,,,,,,,,,,,1,001,0,,2024-04-12_14h25.11.355,replicate_nsd,2023.2.3,60.02731110576763,2024-04-12 14h25.25.699816 -0400,
practice_images/paired_image_29_1.png,5,0,,,,,0,5,5,5,,,,,154.58874608599945,,,,,,,,,,,,,,,,,,154.576450087,154.57656903599946,154.57658162899952,154.58874608599945,154.58874608599945,155.59060554499956,155.59060554499956,158.58911724299924,158.58911724299924,158.58911724299924,158.58911724299924,158.57465891999982,None,0,None,158.57508521699947,158.57512560299983,,,,,,,,,,,,,,,,,,,,,,,,,,,,,,,,,,,,,,1,001,0,,2024-04-12_14h25.11.355,replicate_nsd,2023.2.3,60.02731110576763,2024-04-12 14h25.25.699816 -0400,
practice_images/paired_image_21_2.png,6,0,,,,,0,6,6,6,,,,,158.58911724299924,,,,,,,,,,,,,,,,,,158.57540338199942,158.57552232099988,158.57553496499986,158.58911724299924,158.58911724299924,159.59129584699986,159.59129584699986,162.58948016899922,162.58948016899922,162.58948016899922,162.58948016899922,162.5733137899997,None,0,None,162.57374079599958,162.573780875,,,,,,,,,,,,,,,,,,,,,,,,,,,,,,,,,,,,,,1,001,0,,2024-04-12_14h25.11.355,replicate_nsd,2023.2.3,60.02731110576763,2024-04-12 14h25.25.699816 -0400,
practice_images/paired_image_16_1.png,7,0,,,,,0,7,7,7,,,,,162.58948016899922,,,,,,,,,,,,,,,,,,162.57406061599977,162.57417970499955,162.57419232099983,162.58948016899922,162.58948016899922,163.591395036,163.591395036,166.5894144369995,166.5894144369995,166.5894144369995,166.5894144369995,166.57583925199924,None,0,None,166.576269186,166.5763100539998,,,,,,,,,,,,,,,,,,,,,,,,,,,,,,,,,,,,,,1,001,0,,2024-04-12_14h25.11.355,replicate_nsd,2023.2.3,60.02731110576763,2024-04-12 14h25.25.699816 -0400,
practice_images/paired_image_33_2.png,8,0,,,,,0,8,8,8,,,,,166.5894144369995,,,,,,,,,,,,,,,,,,166.576590056,166.57670873199913,166.57672129799994,166.5894144369995,166.5894144369995,167.58972492699922,167.58972492699922,170.58946203099913,170.58946203099913,170.58946203099913,170.58946203099913,170.57337146399914,None,0,None,170.5738155529998,170.57385640399934,,,,,,,,,,,,,,,,,,,,,,,,,,,,,,,,,,,,,,1,001,0,,2024-04-12_14h25.11.355,replicate_nsd,2023.2.3,60.02731110576763,2024-04-12 14h25.25.699816 -0400,
practice_images/paired_image_26_2.png,9,0,,,,,0,9,9,9,,,,,170.58946203099913,,,,,,,,,,,,,,,,,,170.57413590399938,170.57465190399944,170.57466595699952,170.58946203099913,170.58946203099913,171.58987066399914,171.58987066399914,174.64225519299998,174.64225519299998,174.64225519299998,174.64225519299998,174.62630860299942,None,0,None,174.62673893199917,174.62677979099954,,,,,,,,,,,,,,,,,,,,,,,,,,,,,,,,,,,,,,1,001,0,,2024-04-12_14h25.11.355,replicate_nsd,2023.2.3,60.02731110576763,2024-04-12 14h25.25.699816 -0400,
practice_images/blank.jpg,10,1,,,,,0,10,10,10,,,,,174.64225519299998,,,,,,,,,,,,,,,,,,174.62705780799934,174.62717703499948,174.62718997799948,,,,,,,,,174.63215747100003,None,0,None,174.63250645099924,178.62635481799953,174.64225519299998,178.64272835599968,,,,,,,,,,,,,,,,,,,,,,,,,,,,,,,,,,,,1,001,0,,2024-04-12_14h25.11.355,replicate_nsd,2023.2.3,60.02731110576763,2024-04-12 14h25.25.699816 -0400,
practice_images/paired_image_6_1.png,11,0,,,,,0,11,11,11,,,,,178.64272835599968,,,,,,,,,,,,,,,,,,178.6267394689994,178.62685738899927,178.62687089299925,178.64272835599968,178.64272835599968,179.64281245599977,179.64281245599977,182.64244822399996,182.64244822399996,182.64244822399996,182.64244822399996,182.62637015899963,None,0,None,182.62679907799975,182.62683907099927,,,,,,,,,,,,,,,,,,,,,,,,,,,,,,,,,,,,,,1,001,0,,2024-04-12_14h25.11.355,replicate_nsd,2023.2.3,60.02731110576763,2024-04-12 14h25.25.699816 -0400,
practice_images/paired_image_11_2.png,12,0,,,,,0,12,12,12,,,,,182.64244822399996,,,,,,,,,,,,,,,,,,182.6271195829995,182.62724181399972,182.6272544249996,182.64244822399996,182.64244822399996,183.64283856699967,183.64283856699967,186.64385522799967,186.64385522799967,186.64385522799967,186.64385522799967,186.62665113000003,None,0,None,186.62707888599925,186.62711979099913,,,,,,,,,,,,,,,,,,,,,,,,,,,,,,,,,,,,,,1,001,0,,2024-04-12_14h25.11.355,replicate_nsd,2023.2.3,60.02731110576763,2024-04-12 14h25.25.699816 -0400,
practice_images/paired_image_28_2.png,13,0,,,,,0,13,13,13,,,,,186.64385522799967,,,,,,,,,,,,,,,,,,186.62740010499965,186.62751872399986,186.6275311169993,186.64385522799967,186.64385522799967,187.64297571599946,187.64297571599946,190.64293251599975,190.64293251599975,190.64293251599975,190.64293251599975,190.626844206,None,0,None,190.62727385499966,190.62731408499985,,,,,,,,,,,,,,,,,,,,,,,,,,,,,,,,,,,,,,1,001,0,,2024-04-12_14h25.11.355,replicate_nsd,2023.2.3,60.02731110576763,2024-04-12 14h25.25.699816 -0400,
practice_images/paired_image_22_2.png,14,0,,,,,0,14,14,14,,,,,190.64293251599975,,,,,,,,,,,,,,,,,,190.62758977199974,190.62770806299977,190.62772049899922,190.64293251599975,190.64293251599975,191.64315468199948,191.64315468199948,194.6446366759992,194.6446366759992,194.6446366759992,194.6446366759992,194.626887206,None,0,None,194.627558442,194.62760020599944,,,,,,,,,,,,,,,,,,,,,,,,,,,,,,,,,,,,,,1,001,0,,2024-04-12_14h25.11.355,replicate_nsd,2023.2.3,60.02731110576763,2024-04-12 14h25.25.699816 -0400,
practice_images/paired_image_35_2.png,15,0,,,,,0,15,15,15,,,,,194.6446366759992,,,,,,,,,,,,,,,,,,194.62788157199975,194.62800207700002,194.6280149109998,194.6446366759992,194.6446366759992,195.6432338499999,195.6432338499999,198.6437494389993,198.6437494389993,198.6437494389993,198.6437494389993,198.6269808069992,None,0,None,198.62744026899964,198.62748408099924,,,,,,,,,,,,,,,,,,,,,,,,,,,,,,,,,,,,,,1,001,0,,2024-04-12_14h25.11.355,replicate_nsd,2023.2.3,60.02731110576763,2024-04-12 14h25.25.699816 -0400,
practice_images/paired_image_34_1.png,16,0,,,,,0,16,16,16,,,,,198.6437494389993,,,,,,,,,,,,,,,,,,198.6277921109995,198.627921667,198.62793496499944,198.6437494389993,198.6437494389993,199.6434361469992,199.6434361469992,202.64423500199973,202.64423500199973,202.64423500199973,202.64423500199973,202.62711522599966,None,0,None,202.62754496699927,202.62758545199995,,,,,,,,,,,,,,,,,,,,,,,,,,,,,,,,,,,,,,1,001,0,,2024-04-12_14h25.11.355,replicate_nsd,2023.2.3,60.02731110576763,2024-04-12 14h25.25.699816 -0400,
practice_images/paired_image_35_1.png,17,0,,,,,0,17,17,17,,,,,202.64423500199973,,,,,,,,,,,,,,,,,,202.6278635919998,202.6279830629992,202.6279957179995,202.64423500199973,202.64423500199973,203.6433815979999,203.6433815979999,206.6431843779992,206.6431843779992,206.6431843779992,206.6431843779992,206.6272370889992,None,0,None,206.62766329199985,206.62770404499952,,,,,,,,,,,,,,,,,,,,,,,,,,,,,,,,,,,,,,1,001,0,,2024-04-12_14h25.11.355,replicate_nsd,2023.2.3,60.02731110576763,2024-04-12 14h25.25.699816 -0400,
practice_images/paired_image_33_1.png,18,0,,,,,0,18,18,18,,,,,206.6431843779992,,,,,,,,,,,,,,,,,,206.62800206799966,206.62812366799972,206.6281364309998,206.6431843779992,206.6431843779992,207.64351695099958,207.64351695099958,210.64280264899935,210.64280264899935,210.64280264899935,210.64280264899935,210.62712176099922,None,0,None,210.62760307199915,210.62764961599987,,,,,,,,,,,,,,,,,,,,,,,,,,,,,,,,,,,,,,1,001,0,,2024-04-12_14h25.11.355,replicate_nsd,2023.2.3,60.02731110576763,2024-04-12 14h25.25.699816 -0400,
practice_images/paired_image_4_2.png,19,0,,,,,0,19,19,19,,,,,210.64280264899935,,,,,,,,,,,,,,,,,,210.62795864099917,210.6280868569993,210.62810001599973,210.64280264899935,210.64280264899935,211.6436148189996,211.6436148189996,214.64720764999947,214.64720764999947,214.64720764999947,214.64720764999947,214.62755498499973,None,0,None,214.62797946799947,214.62801996799953,,,,,,,,,,,,,,,,,,,,,,,,,,,,,,,,,,,,,,1,001,0,,2024-04-12_14h25.11.355,replicate_nsd,2023.2.3,60.02731110576763,2024-04-12 14h25.25.699816 -0400,
,,,,,,,,,,,,,,,,,,,,,,,,,,,,,,,,,,,,,,,,,,,,,,,,,,,,214.62807921699914,214.64720764999947,214.64720764999947,251.92776212399986,1,37.27151317799962,None,,,,,,,,,,,,,,,,,,,,,,,,,,,,,1,001,0,,2024-04-12_14h25.11.355,replicate_nsd,2023.2.3,60.02731110576763,2024-04-12 14h25.25.699816 -0400,
,,,,,,,,,,,,,,,,,251.92780132899952,251.94807530199978,251.94807530199978,254.54125781999937,equal,2.5888894350000555,None,,,,,,,,,,,,,,,,,,,,,,,,,,,,,,,,,,,,,,,,,,,,,,,,,,,,,,,,,,,,,,,,1,001,0,,2024-04-12_14h25.11.355,replicate_nsd,2023.2.3,60.02731110576763,2024-04-12 14h25.25.699816 -0400,
images/image_585_seed_1.png,0,0,0,0,0,"[9, 19, 29, 39, 49, 59, 68, 69, 70, 71]",,,,,0,0,0,0,254.6379257839999,,,,,,,,,,,,,,,,,,,,,,,,,,,,,,,,,,,,,,,,,,,,254.62156846799917,254.6216622789998,254.62166975899981,254.6379257839999,254.6379257839999,255.62790970999959,255.62790970999959,258.63428751799984,258.63428751799984,258.63428751799984,258.63428751799984,258.61184364399924,None,0,None,258.61396888799936,258.6140193629999,None,258.6149207599992,258.6150140569998,None,258.6157071189991,258.6157422339993,None,,,,,1,001,0,,2024-04-12_14h25.11.355,replicate_nsd,2023.2.3,60.02731110576763,2024-04-12 14h25.25.699816 -0400,
images/image_252_seed_1.png,1,0,0,0,0,"[9, 19, 29, 39, 49, 59, 68, 69, 70, 71]",,,,,0,1,1,1,258.63428751799984,,,,,,,,,,,,,,,,,,,,,,,,,,,,,,,,,,,,,,,,,,,,258.6168019099996,258.6169184599994,258.6169293589992,258.63428751799984,258.63428751799984,259.62812841199957,259.62812841199957,262.6370720649993,262.6370720649993,262.6370720649993,262.6370720649993,262.61201403799987,None,0,None,262.6125275429995,262.6125734819998,None,262.6126906689997,262.623028299,None,262.6231405109993,262.62316707099944,None,,,,,1,001,0,,2024-04-12_14h25.11.355,replicate_nsd,2023.2.3,60.02731110576763,2024-04-12 14h25.25.699816 -0400,
images/image_118_seed_1.png,2,0,0,0,0,"[9, 19, 29, 39, 49, 59, 68, 69, 70, 71]",,,,,0,2,2,2,262.6370720649993,,,,,,,,,,,,,,,,,,,,,,,,,,,,,,,,,,,,,,,,,,,,262.62343952899937,262.6235424919996,262.6235515439994,262.6370720649993,262.6370720649993,263.62830025199946,263.62830025199946,266.63300346899996,266.63300346899996,266.63300346899996,266.63300346899996,266.6115295269992,None,0,None,266.6120993229997,266.61215268699925,None,266.61228498699984,266.6208077379997,None,266.62090442799945,266.62092958999983,None,,,,,1,001,0,,2024-04-12_14h25.11.355,replicate_nsd,2023.2.3,60.02731110576763,2024-04-12 14h25.25.699816 -0400,
images/image_196_seed_1.png,3,0,0,0,0,"[9, 19, 29, 39, 49, 59, 68, 69, 70, 71]",,,,,0,3,3,3,266.63300346899996,,,,,,,,,,,,,,,,,,,,,,,,,,,,,,,,,,,,,,,,,,,,266.62119234499914,266.621287594,266.6212964029992,266.63300346899996,266.63300346899996,267.62801513199975,267.62801513199975,270.6337401569999,270.6337401569999,270.6337401569999,270.6337401569999,270.6114385809997,None,0,None,270.61192176699933,270.61196564199963,None,270.61208226099916,270.6208309519998,None,270.6209278899996,270.62095223099914,None,,,,,1,001,0,,2024-04-12_14h25.11.355,replicate_nsd,2023.2.3,60.02731110576763,2024-04-12 14h25.25.699816 -0400,
images/image_10_seed_1.png,4,0,0,0,0,"[9, 19, 29, 39, 49, 59, 68, 69, 70, 71]",,,,,0,4,4,4,270.6337401569999,,,,,,,,,,,,,,,,,,,,,,,,,,,,,,,,,,,,,,,,,,,,270.62121058199955,270.6213059389993,270.6213147439994,270.6337401569999,270.6337401569999,271.6280513469992,271.6280513469992,274.63344520899955,274.63344520899955,274.63344520899955,274.63344520899955,274.61163659999966,None,0,None,274.61211970899967,274.61216332999993,None,274.6122813689999,274.6206770059998,None,274.6207730729993,274.62079739399996,None,,,,,1,001,0,,2024-04-12_14h25.11.355,replicate_nsd,2023.2.3,60.02731110576763,2024-04-12 14h25.25.699816 -0400,
images/image_318_seed_1.png,5,0,0,0,0,"[9, 19, 29, 39, 49, 59, 68, 69, 70, 71]",,,,,0,5,5,5,274.63344520899955,,,,,,,,,,,,,,,,,,,,,,,,,,,,,,,,,,,,,,,,,,,,274.62105580499974,274.62114990399914,274.6211586119998,274.63344520899955,274.63344520899955,275.62802378799915,275.62802378799915,278.6335319989994,278.6335319989994,278.6335319989994,278.6335319989994,278.6117514389998,None,0,None,278.61224247599966,278.6122868759994,None,278.6124049129994,278.62109349299953,None,278.6211927259992,278.62121752499934,None,,,,,1,001,0,,2024-04-12_14h25.11.355,replicate_nsd,2023.2.3,60.02731110576763,2024-04-12 14h25.25.699816 -0400,
images/image_719_seed_1.png,6,0,0,0,0,"[9, 19, 29, 39, 49, 59, 68, 69, 70, 71]",,,,,0,6,6,6,278.6335319989994,,,,,,,,,,,,,,,,,,,,,,,,,,,,,,,,,,,,,,,,,,,,278.62147500899937,278.6215713849997,278.6215800909995,278.6335319989994,278.6335319989994,279.62814546699974,279.62814546699974,282.6333113369992,282.6333113369992,282.6333113369992,282.6333113369992,282.6117752829996,None,0,None,282.6122575169993,282.61230111699933,None,282.61241765199975,282.62087508699915,None,282.6209716349995,282.6209965809994,None,,,,,1,001,0,,2024-04-12_14h25.11.355,replicate_nsd,2023.2.3,60.02731110576763,2024-04-12 14h25.25.699816 -0400,
images/image_253_seed_1.png,7,0,0,0,0,"[9, 19, 29, 39, 49, 59, 68, 69, 70, 71]",,,,,0,7,7,7,282.6333113369992,,,,,,,,,,,,,,,,,,,,,,,,,,,,,,,,,,,,,,,,,,,,282.6212565859996,282.62135118199967,282.62135989999933,282.6333113369992,282.6333113369992,283.6282121059994,283.6282121059994,286.635014296,286.635014296,286.635014296,286.635014296,286.6117665219999,None,0,None,286.6122435489997,286.6122857239998,None,286.6124017299999,286.6221279709998,None,286.6222299209994,286.6222551289993,None,,,,,1,001,0,,2024-04-12_14h25.11.355,replicate_nsd,2023.2.3,60.02731110576763,2024-04-12 14h25.25.699816 -0400,
images/image_458_seed_1.png,8,0,0,0,0,"[9, 19, 29, 39, 49, 59, 68, 69, 70, 71]",,,,,0,8,8,8,286.635014296,,,,,,,,,,,,,,,,,,,,,,,,,,,,,,,,,,,,,,,,,,,,286.62251483,286.62260928499927,286.6226180219992,286.635014296,286.635014296,287.6284305699992,287.6284305699992,290.6350158079995,290.6350158079995,290.6350158079995,290.6350158079995,290.61194418799914,None,0,None,290.61242657599996,290.6124697129999,None,290.612585203,290.6210964689999,None,290.6211957539999,290.62121987999944,None,,,,,1,001,0,,2024-04-12_14h25.11.355,replicate_nsd,2023.2.3,60.02731110576763,2024-04-12 14h25.25.699816 -0400,
images/blank.jpg,9,1,0,0,0,"[9, 19, 29, 39, 49, 59, 68, 69, 70, 71]",,,,,0,9,9,9,290.6350158079995,,,,,,,,,,,,,,,,,,,,,,,,,,,,,,,,,,,,,,,,,,,,290.62147366499994,290.6215712359999,290.62157977399966,,,,,,,,,290.6271585149998,None,0,None,290.6273945749999,294.61192931200003,None,294.61211843899946,294.62081273699914,None,294.6209127729999,294.62093715799983,None,290.6350158079995,290.6350158079995,294.63366245,294.63366245,1,001,0,,2024-04-12_14h25.11.355,replicate_nsd,2023.2.3,60.02731110576763,2024-04-12 14h25.25.699816 -0400,
images/image_545_seed_1.png,10,0,0,0,0,"[9, 19, 29, 39, 49, 59, 68, 69, 70, 71]",,,,,0,10,10,10,294.63366245,,,,,,,,,,,,,,,,,,,,,,,,,,,,,,,,,,,,,,,,,,,,294.6211911699993,294.62128714699975,294.62129556799937,294.63366245,294.63366245,295.62843721399986,295.62843721399986,298.62822282899924,298.62822282899924,298.62822282899924,298.62822282899924,298.612203314,None,0,None,298.6126890629994,298.61273434899977,None,298.6128527239998,298.6129152859994,None,298.6130317699999,298.61306796699955,None,,,,,1,001,0,,2024-04-12_14h25.11.355,replicate_nsd,2023.2.3,60.02731110576763,2024-04-12 14h25.25.699816 -0400,
images/image_571_seed_1.png,11,0,0,0,0,"[9, 19, 29, 39, 49, 59, 68, 69, 70, 71]",,,,,0,11,11,11,298.62822282899924,,,,,,,,,,,,,,,,,,,,,,,,,,,,,,,,,,,,,,,,,,,,298.61344825299966,298.6135884489995,298.6136018719999,298.62822282899924,298.62822282899924,299.6286453969997,299.6286453969997,302.63391168699945,302.63391168699945,302.63391168699945,302.63391168699945,302.61227392,None,0,None,302.6127651019997,302.61280872299994,None,302.61292752199915,302.62119274699944,None,302.6213033119993,302.62132889699933,None,,,,,1,001,0,,2024-04-12_14h25.11.355,replicate_nsd,2023.2.3,60.02731110576763,2024-04-12 14h25.25.699816 -0400,
images/image_687_seed_1.png,12,0,0,0,0,"[9, 19, 29, 39, 49, 59, 68, 69, 70, 71]",,,,,0,12,12,12,302.63391168699945,,,,,,,,,,,,,,,,,,,,,,,,,,,,,,,,,,,,,,,,,,,,302.62159101699945,302.62169345999973,302.62170238,302.63391168699945,302.63391168699945,303.6289181109996,303.6289181109996,306.63439867499983,306.63439867499983,306.63439867499983,306.63439867499983,306.6123326709994,None,0,None,306.6128159969994,306.6128592139994,None,306.61297600599937,306.62069896199955,None,306.62079432599967,306.6208193249995,None,,,,,1,001,0,,2024-04-12_14h25.11.355,replicate_nsd,2023.2.3,60.02731110576763,2024-04-12 14h25.25.699816 -0400,
images/image_276_seed_1.png,13,0,0,0,0,"[9, 19, 29, 39, 49, 59, 68, 69, 70, 71]",,,,,0,13,13,13,306.63439867499983,,,,,,,,,,,,,,,,,,,,,,,,,,,,,,,,,,,,,,,,,,,,306.6210774499996,306.62117139899965,306.6211800759993,306.63439867499983,306.63439867499983,307.6287783129992,307.6287783129992,310.6350187649996,310.6350187649996,310.6350187649996,310.6350187649996,310.61232123899936,None,0,None,310.61279337199994,310.61283638999976,None,310.61295099999916,310.62078373299937,None,310.6208779129993,310.62090212399926,None,,,,,1,001,0,,2024-04-12_14h25.11.355,replicate_nsd,2023.2.3,60.02731110576763,2024-04-12 14h25.25.699816 -0400,
images/image_438_seed_1.png,14,0,0,0,0,"[9, 19, 29, 39, 49, 59, 68, 69, 70, 71]",,,,,0,14,14,14,310.6350187649996,,,,,,,,,,,,,,,,,,,,,,,,,,,,,,,,,,,,,,,,,,,,310.62115352399996,310.6212449549994,310.6212534039996,310.6350187649996,310.6350187649996,311.629507568,311.629507568,314.6348913409993,314.6348913409993,314.6348913409993,314.6348913409993,314.6131757739995,None,0,None,314.6136925459996,314.61373714599995,None,314.6138558339999,314.62157381699944,None,314.62167086999943,314.6216959329995,None,,,,,1,001,0,,2024-04-12_14h25.11.355,replicate_nsd,2023.2.3,60.02731110576763,2024-04-12 14h25.25.699816 -0400,
images/image_611_seed_1.png,15,0,0,0,0,"[9, 19, 29, 39, 49, 59, 68, 69, 70, 71]",,,,,0,15,15,15,314.6348913409993,,,,,,,,,,,,,,,,,,,,,,,,,,,,,,,,,,,,,,,,,,,,314.6219595099992,314.6220566789998,314.6220656689993,314.6348913409993,314.6348913409993,315.6294272409996,315.6294272409996,318.63562866199936,318.63562866199936,318.63562866199936,318.63562866199936,318.6133917439993,None,0,None,318.6139428089991,318.6139873889997,None,318.6141054109994,318.6220512489999,None,318.62214980299996,318.6221758929996,None,,,,,1,001,0,,2024-04-12_14h25.11.355,replicate_nsd,2023.2.3,60.02731110576763,2024-04-12 14h25.25.699816 -0400,
images/image_615_seed_1.png,16,0,0,0,0,"[9, 19, 29, 39, 49, 59, 68, 69, 70, 71]",,,,,0,16,16,16,318.63562866199936,,,,,,,,,,,,,,,,,,,,,,,,,,,,,,,,,,,,,,,,,,,,318.62243978099923,318.62253618499926,318.6225447829993,318.63562866199936,318.63562866199936,319.6296482379994,319.6296482379994,322.6360050149997,322.6360050149997,322.6360050149997,322.6360050149997,322.61371942200003,None,0,None,322.6144146329998,322.61445911099963,None,322.61457541099935,322.6226022229994,None,322.6227009819995,322.62272709099943,None,,,,,1,001,0,,2024-04-12_14h25.11.355,replicate_nsd,2023.2.3,60.02731110576763,2024-04-12 14h25.25.699816 -0400,
images/image_256_seed_1.png,17,0,0,0,0,"[9, 19, 29, 39, 49, 59, 68, 69, 70, 71]",,,,,0,17,17,17,322.6360050149997,,,,,,,,,,,,,,,,,,,,,,,,,,,,,,,,,,,,,,,,,,,,322.62299232999976,322.6230881679994,322.6230973619995,322.6360050149997,322.6360050149997,323.6294919309994,323.6294919309994,326.63566577599977,326.63566577599977,326.63566577599977,326.63566577599977,326.6131005669995,None,0,None,326.61358440799995,326.6136288359994,None,326.6137462049992,326.62164430099983,None,326.6217405649995,326.621765547,None,,,,,1,001,0,,2024-04-12_14h25.11.355,replicate_nsd,2023.2.3,60.02731110576763,2024-04-12 14h25.25.699816 -0400,
images/image_210_seed_1.png,18,0,0,0,0,"[9, 19, 29, 39, 49, 59, 68, 69, 70, 71]",,,,,0,18,18,18,326.63566577599977,,,,,,,,,,,,,,,,,,,,,,,,,,,,,,,,,,,,,,,,,,,,326.62202303399954,326.6221166859996,326.622125291,326.63566577599977,326.63566577599977,327.6292540729992,327.6292540729992,330.63473726899974,330.63473726899974,330.63473726899974,330.63473726899974,330.61309808399983,None,0,None,330.61358575599934,330.61363033399994,None,330.61374604999946,330.6214440979993,None,330.62153950599986,330.6215648419993,None,,,,,1,001,0,,2024-04-12_14h25.11.355,replicate_nsd,2023.2.3,60.02731110576763,2024-04-12 14h25.25.699816 -0400,
images/blank.jpg,19,1,0,0,0,"[9, 19, 29, 39, 49, 59, 68, 69, 70, 71]",,,,,0,19,19,19,330.63473726899974,,,,,,,,,,,,,,,,,,,,,,,,,,,,,,,,,,,,,,,,,,,,330.6218257299997,330.62191888099915,330.62192739299917,,,,,,,,,330.6275174879993,None,0,None,330.62780576299974,334.61284685199917,None,334.6130366289999,334.620950429,None,334.6210485769998,334.62107388799996,None,330.63473726899974,330.63473726899974,334.63507735299936,334.63507735299936,1,001,0,,2024-04-12_14h25.11.355,replicate_nsd,2023.2.3,60.02731110576763,2024-04-12 14h25.25.699816 -0400,
images/image_372_seed_1.png,20,0,0,0,0,"[9, 19, 29, 39, 49, 59, 68, 69, 70, 71]",,,,,0,20,20,20,334.63507735299936,,,,,,,,,,,,,,,,,,,,,,,,,,,,,,,,,,,,,,,,,,,,334.6213341469993,334.62143147499955,334.6214403949998,334.63507735299936,334.63507735299936,335.62944820399935,335.62944820399935,338.6292367569995,338.6292367569995,338.6292367569995,338.6292367569995,338.6132222739998,None,0,None,338.61370119099956,338.6137460629998,None,338.6138623929992,338.6139251839995,None,338.6140408299998,338.6140767809993,None,,,,,1,001,0,,2024-04-12_14h25.11.355,replicate_nsd,2023.2.3,60.02731110576763,2024-04-12 14h25.25.699816 -0400,
images/image_444_seed_1.png,21,0,0,0,0,"[9, 19, 29, 39, 49, 59, 68, 69, 70, 71]",,,,,0,21,21,21,338.6292367569995,,,,,,,,,,,,,,,,,,,,,,,,,,,,,,,,,,,,,,,,,,,,338.6144566439998,338.6145958469997,338.6146087399993,338.6292367569995,338.6292367569995,339.6293880959993,339.6293880959993,342.6350481649997,342.6350481649997,342.6350481649997,342.6350481649997,342.61308541999915,None,0,None,342.61342745899947,342.61345684299977,None,342.6135356599998,342.6203152529997,None,342.6204215969992,342.6204476269995,None,,,,,1,001,0,,2024-04-12_14h25.11.355,replicate_nsd,2023.2.3,60.02731110576763,2024-04-12 14h25.25.699816 -0400,
images/image_564_seed_1.png,22,0,0,0,0,"[9, 19, 29, 39, 49, 59, 68, 69, 70, 71]",,,,,0,22,22,22,342.6350481649997,,,,,,,,,,,,,,,,,,,,,,,,,,,,,,,,,,,,,,,,,,,,342.6207204309994,342.6208282529997,342.6208373719992,342.6350481649997,342.6350481649997,343.62980709099975,343.62980709099975,346.6350518569998,346.6350518569998,346.6350518569998,346.6350518569998,346.61347990099966,None,0,None,346.6139641309992,346.6140084179997,None,346.61412435299917,346.6217964939997,None,346.6218920129995,346.62191640199944,None,,,,,1,001,0,,2024-04-12_14h25.11.355,replicate_nsd,2023.2.3,60.02731110576763,2024-04-12 14h25.25.699816 -0400,
images/image_105_seed_1.png,23,0,0,0,0,"[9, 19, 29, 39, 49, 59, 68, 69, 70, 71]",,,,,0,23,23,23,346.6350518569998,,,,,,,,,,,,,,,,,,,,,,,,,,,,,,,,,,,,,,,,,,,,346.62217377699926,346.62226666699917,346.6222756089992,346.6350518569998,346.6350518569998,347.6299912729992,347.6299912729992,350.6348851089997,350.6348851089997,350.6348851089997,350.6348851089997,350.61347524099983,None,0,None,350.6139591259998,350.6140036759998,None,350.61412114499944,350.62184749399967,None,350.62194361099955,350.6219684909993,None,,,,,1,001,0,,2024-04-12_14h25.11.355,replicate_nsd,2023.2.3,60.02731110576763,2024-04-12 14h25.25.699816 -0400,
images/image_422_seed_1.png,24,0,0,0,0,"[9, 19, 29, 39, 49, 59, 68, 69, 70, 71]",,,,,0,24,24,24,350.6348851089997,,,,,,,,,,,,,,,,,,,,,,,,,,,,,,,,,,,,,,,,,,,,350.62222784299956,350.62232147399936,350.622330014,350.6348851089997,350.6348851089997,351.62986187599927,351.62986187599927,354.6352162539997,354.6352162539997,354.6352162539997,354.6352162539997,354.61335474799944,None,0,None,354.6138352859998,354.613878356,None,354.6139904369993,354.6218397519997,None,354.6219473129995,354.62197190999996,None,,,,,1,001,0,,2024-04-12_14h25.11.355,replicate_nsd,2023.2.3,60.02731110576763,2024-04-12 14h25.25.699816 -0400,
images/image_3_seed_1.png,25,0,0,0,0,"[9, 19, 29, 39, 49, 59, 68, 69, 70, 71]",,,,,0,25,25,25,354.6352162539997,,,,,,,,,,,,,,,,,,,,,,,,,,,,,,,,,,,,,,,,,,,,354.6222320979996,354.6223380039992,354.622346397,354.6352162539997,354.6352162539997,355.6300228989994,355.6300228989994,358.63545741799953,358.63545741799953,358.63545741799953,358.63545741799953,358.61349013699964,None,0,None,358.61395565099974,358.6139997629998,None,358.6141156929998,358.62176111199915,None,358.62185589399996,358.6218806609995,None,,,,,1,001,0,,2024-04-12_14h25.11.355,replicate_nsd,2023.2.3,60.02731110576763,2024-04-12 14h25.25.699816 -0400,
images/image_608_seed_1.png,26,0,0,0,0,"[9, 19, 29, 39, 49, 59, 68, 69, 70, 71]",,,,,0,26,26,26,358.63545741799953,,,,,,,,,,,,,,,,,,,,,,,,,,,,,,,,,,,,,,,,,,,,358.6221374809993,358.62223098199956,358.622239929,358.63545741799953,358.63545741799953,359.6300799309993,359.6300799309993,362.63640091899924,362.63640091899924,362.63640091899924,362.63640091899924,362.613941908,None,0,None,362.61463623799955,362.61468050299936,None,362.6147981469994,362.62319927299995,None,362.6232974629993,362.62332278099984,None,,,,,1,001,0,,2024-04-12_14h25.11.355,replicate_nsd,2023.2.3,60.02731110576763,2024-04-12 14h25.25.699816 -0400,
images/image_326_seed_1.png,27,0,0,0,0,"[9, 19, 29, 39, 49, 59, 68, 69, 70, 71]",,,,,0,27,27,27,362.63640091899924,,,,,,,,,,,,,,,,,,,,,,,,,,,,,,,,,,,,,,,,,,,,362.62359073399966,362.62368609699934,362.62369527399915,362.63640091899924,362.63640091899924,363.629807583,363.629807583,366.6370304939992,366.6370304939992,366.6370304939992,366.6370304939992,366.61477181899954,None,0,None,366.6153296249995,366.61537414399936,None,366.61549182199997,366.6233229829995,None,366.6234186239999,366.6234434979997,None,,,,,1,001,0,,2024-04-12_14h25.11.355,replicate_nsd,2023.2.3,60.02731110576763,2024-04-12 14h25.25.699816 -0400,
images/image_514_seed_1.png,28,0,0,0,0,"[9, 19, 29, 39, 49, 59, 68, 69, 70, 71]",,,,,0,28,28,28,366.6370304939992,,,,,,,,,,,,,,,,,,,,,,,,,,,,,,,,,,,,,,,,,,,,366.6237004699997,366.6237942909993,366.62380295,366.6370304939992,366.6370304939992,367.63069987499966,367.63069987499966,370.63661662899995,370.63661662899995,370.63661662899995,370.63661662899995,370.61472314299954,None,0,None,370.6152774659995,370.6153228209996,None,370.6154400179994,370.623377549,None,370.62347589,370.6235017249992,None,,,,,1,001,0,,2024-04-12_14h25.11.355,replicate_nsd,2023.2.3,60.02731110576763,2024-04-12 14h25.25.699816 -0400,
,,,,,,,,,,,,,,,370.63661662899995,,,,,,,,,,,,,,,,,,,,,,,,,,,,,,,,,,,,,,,,,,,,370.6237672109992,370.62386354999944,370.6238723949991,,,,,,,,,370.62903539499985,None,0,None,370.6293667539994,,,,,,,,,370.63661662899995,370.63661662899995,,,,,,,,,,,,
