current_image,trial_index,is_blank_trial,is_repeat,is_new_run,run_num,all_blanks_list,practice.thisRepN,practice.thisTrialN,practice.thisN,practice.thisIndex,loop_all_images.thisRepN,loop_all_images.thisTrialN,loop_all_images.thisN,loop_all_images.thisIndex,thisRow.t,notes,set_up.started,set_up.stopped,practice_continue.started,key_resp_6.started,text_6.started,practice_continue.stopped,key_resp_6.keys,key_resp_6.rt,key_resp_6.duration,practice_trial.started,polygon_3.started,all_keys_pressed_2.started,image_2.started,press_if_repeat_2.started,image_2.stopped,press_if_repeat_2.stopped,polygon_3.stopped,all_keys_pressed_2.stopped,practice_trial.stopped,press_if_repeat_2.keys,press_if_repeat_2.corr,all_keys_pressed_2.keys,all_keys_pressed_2.rt,all_keys_pressed_2.duration,testing_continue.started,key_resp_7.started,text_7.started,testing_continue.stopped,key_resp_7.keys,key_resp_7.rt,key_resp_7.duration,waiting_fmri.started,key_resp_2.started,text_3.started,waiting_fmri.stopped,key_resp_2.keys,key_resp_2.rt,key_resp_2.duration,set_skips_and_correct_key.started,set_skips_and_correct_key.stopped,trial.started,polygon.started,all_keys_pressed.started,image.started,press_if_repeat.started,image.stopped,press_if_repeat.stopped,polygon.stopped,all_keys_pressed.stopped,trial.stopped,press_if_repeat.keys,press_if_repeat.corr,all_keys_pressed.keys,blank_trial.started,blank_trial.stopped,key_resp_3.keys,run_wait2_2.started,run_wait2_2.stopped,key_resp_5.keys,waiting_fmri_2.started,waiting_fmri_2.stopped,key_resp_4.keys,all_keys_pressed.rt,all_keys_pressed.duration,key_resp_3.started,polygon_2.started,key_resp_3.stopped,polygon_2.stopped,key_resp_3.rt,key_resp_3.duration,key_resp_5.started,text_5.started,key_resp_5.rt,key_resp_5.duration,key_resp_4.started,text_4.started,key_resp_4.rt,key_resp_4.duration,press_if_repeat.rt,press_if_repeat.duration,participant,session,starting_run,,date,expName,psychopyVersion,frameRate,expStart,
,,,,,,,,,,,,,,,,,0.046860422000463586,0.047166100001049927,0.04719172399927629,0.06837021799947252,0.06837021799947252,4.701553345999855,space,4.616069615000015,None,,,,,,,,,,,,,,,,,,,,,,,,,,,,,,,,,,,,,,,,,,,,,,,,,,,,,,,,,,,,,,,,,,,,,,,,1,001,0,,2024-04-12_11h00.05.896,replicate_nsd,2023.2.3,60.621123668658804,2024-04-12 11h00.20.565107 -0400,
images/9_28 copy 2.jpg,0,0,,,,,0,0,0,0,,,,,4.793700539001293,,,,,,,,,,,4.737706518000778,4.793700539001293,4.793700539001293,5.76784270799908,5.76784270799908,8.76783152400094,8.76783152400094,8.76783152400094,8.76783152400094,8.75174121300006,None,0,None,,,,,,,,,,,,,,,,,,,,,,,,,,,,,,,,,,,,,,,,,,,,,,,,,,,,,,,,,,,1,001,0,,2024-04-12_11h00.05.896,replicate_nsd,2023.2.3,60.621123668658804,2024-04-12 11h00.20.565107 -0400,
images/14_40.jpg,1,0,,,,,0,1,1,1,,,,,8.76783152400094,,,,,,,,,,,8.754366506000224,8.76783152400094,8.76783152400094,9.768159412000387,9.768159412000387,12.767767332999938,12.767767332999938,12.767767332999938,12.767767332999938,12.751908862999699,None,0,None,,,,,,,,,,,,,,,,,,,,,,,,,,,,,,,,,,,,,,,,,,,,,,,,,,,,,,,,,,,1,001,0,,2024-04-12_11h00.05.896,replicate_nsd,2023.2.3,60.621123668658804,2024-04-12 11h00.20.565107 -0400,
images/6_28.jpg,2,0,,,,,0,2,2,2,,,,,12.767767332999938,,,,,,,,,,,12.752578979001555,12.767767332999938,12.767767332999938,13.768304321998585,13.768304321998585,16.768014717999904,16.768014717999904,16.768014717999904,16.768014717999904,16.752072127001156,None,0,None,,,,,,,,,,,,,,,,,,,,,,,,,,,,,,,,,,,,,,,,,,,,,,,,,,,,,,,,,,,1,001,0,,2024-04-12_11h00.05.896,replicate_nsd,2023.2.3,60.621123668658804,2024-04-12 11h00.20.565107 -0400,
images/23_40 copy 3.jpg,3,0,,,,,0,3,3,3,,,,,16.768014717999904,,,,,,,,,,,16.75273853899853,16.768014717999904,16.768014717999904,17.767973682999582,17.767973682999582,20.768329357000766,20.768329357000766,20.768329357000766,20.768329357000766,20.751871265001682,None,0,None,,,,,,,,,,,,,,,,,,,,,,,,,,,,,,,,,,,,,,,,,,,,,,,,,,,,,,,,,,,1,001,0,,2024-04-12_11h00.05.896,replicate_nsd,2023.2.3,60.621123668658804,2024-04-12 11h00.20.565107 -0400,
images/14_12 copy.jpg,4,0,,,,,0,4,4,4,,,,,20.768329357000766,,,,,,,,,,,20.75253954800064,20.768329357000766,20.768329357000766,21.76821584099889,21.76821584099889,24.7680282729998,24.7680282729998,24.7680282729998,24.7680282729998,24.751812921000237,None,0,None,,,,,,,,,,,,,,,,,,,,,,,,,,,,,,,,,,,,,,,,,,,,,,,,,,,,,,,,,,,1,001,0,,2024-04-12_11h00.05.896,replicate_nsd,2023.2.3,60.621123668658804,2024-04-12 11h00.20.565107 -0400,
images/6_28 copy 6.jpg,5,0,,,,,0,5,5,5,,,,,24.7680282729998,,,,,,,,,,,24.75248650800131,24.7680282729998,24.7680282729998,25.767468165999162,25.767468165999162,28.76773862600021,28.76773862600021,28.76773862600021,28.76773862600021,28.751723818000755,None,0,None,,,,,,,,,,,,,,,,,,,,,,,,,,,,,,,,,,,,,,,,,,,,,,,,,,,,,,,,,,,1,001,0,,2024-04-12_11h00.05.896,replicate_nsd,2023.2.3,60.621123668658804,2024-04-12 11h00.20.565107 -0400,
images/11_12 copy 7.jpg,6,0,,,,,0,6,6,6,,,,,28.76773862600021,,,,,,,,,,,28.752396032999968,28.76773862600021,28.76773862600021,29.768338394998864,29.768338394998864,32.76773917299943,32.76773917299943,32.76773917299943,32.76773917299943,32.75169907700183,None,0,None,,,,,,,,,,,,,,,,,,,,,,,,,,,,,,,,,,,,,,,,,,,,,,,,,,,,,,,,,,,1,001,0,,2024-04-12_11h00.05.896,replicate_nsd,2023.2.3,60.621123668658804,2024-04-12 11h00.20.565107 -0400,
images/13_40 copy 5.jpg,7,0,,,,,0,7,7,7,,,,,32.76773917299943,,,,,,,,,,,32.75236595200113,32.76773917299943,32.76773917299943,33.76841336000143,33.76841336000143,36.76802244300052,36.76802244300052,36.76802244300052,36.76802244300052,36.75205869999991,None,0,None,,,,,,,,,,,,,,,,,,,,,,,,,,,,,,,,,,,,,,,,,,,,,,,,,,,,,,,,,,,1,001,0,,2024-04-12_11h00.05.896,replicate_nsd,2023.2.3,60.621123668658804,2024-04-12 11h00.20.565107 -0400,
images/17_28.jpg,8,0,,,,,0,8,8,8,,,,,36.76802244300052,,,,,,,,,,,36.752740891999565,36.76802244300052,36.76802244300052,37.76832870900034,37.76832870900034,40.76830715899996,40.76830715899996,40.76830715899996,40.76830715899996,40.751729506999254,None,0,None,,,,,,,,,,,,,,,,,,,,,,,,,,,,,,,,,,,,,,,,,,,,,,,,,,,,,,,,,,,1,001,0,,2024-04-12_11h00.05.896,replicate_nsd,2023.2.3,60.621123668658804,2024-04-12 11h00.20.565107 -0400,
images/8_40 copy 3.jpg,9,0,,,,,0,9,9,9,,,,,40.76830715899996,,,,,,,,,,,40.75240873900111,40.76830715899996,40.76830715899996,41.76790319200154,41.76790319200154,44.76832193800146,44.76832193800146,44.76832193800146,44.76832193800146,44.75182471399967,None,0,None,,,,,,,,,,,,,,,,,,,,,,,,,,,,,,,,,,,,,,,,,,,,,,,,,,,,,,,,,,,1,001,0,,2024-04-12_11h00.05.896,replicate_nsd,2023.2.3,60.621123668658804,2024-04-12 11h00.20.565107 -0400,
images/blank.jpg,10,1,,,,,0,10,10,10,,,,,44.76832193800146,,,,,,,,,,,44.75249916100074,44.76832193800146,44.76832193800146,45.767957978001505,45.767957978001505,48.81778661000135,48.81778661000135,48.81778661000135,48.81778661000135,48.801748655001575,None,0,None,,,,,,,,,,,,,,,,,,,,,,,,,,,,,,,,,,,,,,,,,,,,,,,,,,,,,,,,,,,1,001,0,,2024-04-12_11h00.05.896,replicate_nsd,2023.2.3,60.621123668658804,2024-04-12 11h00.20.565107 -0400,
images/14_40 copy 6.jpg,11,0,,,,,0,11,11,11,,,,,48.81778661000135,,,,,,,,,,,48.80242786600138,48.81778661000135,48.81778661000135,49.8182979230005,49.8182979230005,52.83567699999912,52.83567699999912,52.83567699999912,52.83567699999912,52.819657571999414,None,0,"['up', 'lctrl']","[1.5546584439980506, 1.5546584439980506]","[None, None]",,,,,,,,,,,,,,,,,,,,,,,,,,,,,,,,,,,,,,,,,,,,,,,,,,,,,,,,,1,001,0,,2024-04-12_11h00.05.896,replicate_nsd,2023.2.3,60.621123668658804,2024-04-12 11h00.20.565107 -0400,
images/5_12 copy 7.jpg,12,0,,,,,0,12,12,12,,,,,52.83567699999912,,,,,,,,,,,52.82079906199942,52.83567699999912,52.83567699999912,53.83610808600133,53.83610808600133,56.84131480200085,56.84131480200085,56.84131480200085,56.84131480200085,56.818009704998985,None,0,None,,,,,,,,,,,,,,,,,,,,,,,,,,,,,,,,,,,,,,,,,,,,,,,,,,,,,,,,,,,1,001,0,,2024-04-12_11h00.05.896,replicate_nsd,2023.2.3,60.621123668658804,2024-04-12 11h00.20.565107 -0400,
images/18_28 copy 6.jpg,13,0,,,,,0,13,13,13,,,,,56.84131480200085,,,,,,,,,,,56.81841029000134,56.84131480200085,56.84131480200085,57.835889674999635,57.835889674999635,60.834542052998586,60.834542052998586,60.834542052998586,60.834542052998586,60.817901029000495,None,0,None,,,,,,,,,,,,,,,,,,,,,,,,,,,,,,,,,,,,,,,,,,,,,,,,,,,,,,,,,,,1,001,0,,2024-04-12_11h00.05.896,replicate_nsd,2023.2.3,60.621123668658804,2024-04-12 11h00.20.565107 -0400,
images/19_12 copy 4.jpg,14,0,,,,,0,14,14,14,,,,,60.834542052998586,,,,,,,,,,,60.818237014998886,60.834542052998586,60.834542052998586,61.834466677999444,61.834466677999444,64.83507958300106,64.83507958300106,64.83507958300106,64.83507958300106,64.8192831339984,None,0,None,,,,,,,,,,,,,,,,,,,,,,,,,,,,,,,,,,,,,,,,,,,,,,,,,,,,,,,,,,,1,001,0,,2024-04-12_11h00.05.896,replicate_nsd,2023.2.3,60.621123668658804,2024-04-12 11h00.20.565107 -0400,
images/7_0 copy 2.jpg,15,0,,,,,0,15,15,15,,,,,64.83507958300106,,,,,,,,,,,64.81983478899929,64.83507958300106,64.83507958300106,65.83467190499869,65.83467190499869,68.83383501099888,68.83383501099888,68.83383501099888,68.83383501099888,68.81819378400178,None,0,None,,,,,,,,,,,,,,,,,,,,,,,,,,,,,,,,,,,,,,,,,,,,,,,,,,,,,,,,,,,1,001,0,,2024-04-12_11h00.05.896,replicate_nsd,2023.2.3,60.621123668658804,2024-04-12 11h00.20.565107 -0400,
images/21_28 copy 5.jpg,16,0,,,,,0,16,16,16,,,,,68.83383501099888,,,,,,,,,,,68.81885869100006,68.83383501099888,68.83383501099888,69.83465211699877,69.83465211699877,72.8360075419987,72.8360075419987,72.8360075419987,72.8360075419987,72.82154823699966,None,0,None,,,,,,,,,,,,,,,,,,,,,,,,,,,,,,,,,,,,,,,,,,,,,,,,,,,,,,,,,,,1,001,0,,2024-04-12_11h00.05.896,replicate_nsd,2023.2.3,60.621123668658804,2024-04-12 11h00.20.565107 -0400,
images/9_12 copy 6.jpg,17,0,,,,,0,17,17,17,,,,,72.8360075419987,,,,,,,,,,,72.82221197300169,72.8360075419987,72.8360075419987,73.83436467299907,73.83436467299907,76.83525874800034,76.83525874800034,76.83525874800034,76.83525874800034,76.81919465499959,None,0,None,,,,,,,,,,,,,,,,,,,,,,,,,,,,,,,,,,,,,,,,,,,,,,,,,,,,,,,,,,,1,001,0,,2024-04-12_11h00.05.896,replicate_nsd,2023.2.3,60.621123668658804,2024-04-12 11h00.20.565107 -0400,
images/21_40 copy 5.jpg,18,0,,,,,0,18,18,18,,,,,76.83525874800034,,,,,,,,,,,76.8198715030012,76.83525874800034,76.83525874800034,77.83530221099863,77.83530221099863,80.83743646700168,80.83743646700168,80.83743646700168,80.83743646700168,80.81835753600171,None,0,None,,,,,,,,,,,,,,,,,,,,,,,,,,,,,,,,,,,,,,,,,,,,,,,,,,,,,,,,,,,1,001,0,,2024-04-12_11h00.05.896,replicate_nsd,2023.2.3,60.621123668658804,2024-04-12 11h00.20.565107 -0400,
images/pair03 copy 7.jpg,19,0,,,,,0,19,19,19,,,,,80.83743646700168,,,,,,,,,,,80.81903367400082,80.83743646700168,80.83743646700168,81.83470323100119,81.83470323100119,84.83647671600193,84.83647671600193,84.83647671600193,84.83647671600193,84.81827739200162,None,0,None,,,,,,,,,,,,,,,,,,,,,,,,,,,,,,,,,,,,,,,,,,,,,,,,,,,,,,,,,,,1,001,0,,2024-04-12_11h00.05.896,replicate_nsd,2023.2.3,60.621123668658804,2024-04-12 11h00.20.565107 -0400,
,,,,,,,,,,,,,,,,,,,,,,,,,,,,,,,,,,,,,,,,,84.81874631699975,84.83647671600193,84.83647671600193,154.9847572309991,lctrl,70.14786224899945,None,,,,,,,,,,,,,,,,,,,,,,,,,,,,,,,,,,,,,,,,,,,,,,,,,,1,001,0,,2024-04-12_11h00.05.896,replicate_nsd,2023.2.3,60.621123668658804,2024-04-12 11h00.20.565107 -0400,
,,,,,,,,,,,,,,,,,,,,,,,,,,,,,,,,,,,,,,,,,,,,,,,,154.98478414900092,155.00636226699862,155.00636226699862,157.98469594299968,5,2.9619590180009254,None,,,,,,,,,,,,,,,,,,,,,,,,,,,,,,,,,,,,,,,,,,,1,001,0,,2024-04-12_11h00.05.896,replicate_nsd,2023.2.3,60.621123668658804,2024-04-12 11h00.20.565107 -0400,
images/14_40 copy 5.jpg,0,0,0,0,0,"[9, 19, 29, 39, 49, 59, 68, 69, 70, 71]",,,,,0,0,0,0,158.09707115900164,,,,,,,,,,,,,,,,,,,,,,,,,,,,,,,,,,,,,,,,158.0689506689996,158.06903145199976,158.06904253099856,158.09707115900164,158.09707115900164,159.0842742950008,159.0842742950008,162.0837057489989,162.0837057489989,162.0837057489989,162.0837057489989,162.06805140100187,None,0,None,162.07006043900037,162.0701018079999,None,162.0707471800015,162.07080919900181,None,162.07145398699868,162.0714906760004,None,,,,,,,,,,,,,,,,,,,1,001,0,,2024-04-12_11h00.05.896,replicate_nsd,2023.2.3,60.621123668658804,2024-04-12 11h00.20.565107 -0400,
images/15_0 copy 2.jpg,1,0,0,0,0,"[9, 19, 29, 39, 49, 59, 68, 69, 70, 71]",,,,,0,1,1,1,162.0837057489989,,,,,,,,,,,,,,,,,,,,,,,,,,,,,,,,,,,,,,,,162.0723598500008,162.07245115499973,162.07246120199852,162.0837057489989,162.0837057489989,163.0851484090017,163.0851484090017,166.08883856100147,166.08883856100147,166.08883856100147,166.08883856100147,166.06813247899845,None,0,None,166.06866375699974,166.06871500299894,None,166.06883669300078,166.07892034700126,None,166.07902088899937,166.07905045200096,None,,,,,,,,,,,,,,,,,,,1,001,0,,2024-04-12_11h00.05.896,replicate_nsd,2023.2.3,60.621123668658804,2024-04-12 11h00.20.565107 -0400,
images/21_28.jpg,2,0,0,0,0,"[9, 19, 29, 39, 49, 59, 68, 69, 70, 71]",,,,,0,2,2,2,166.08883856100147,,,,,,,,,,,,,,,,,,,,,,,,,,,,,,,,,,,,,,,,166.07931357300185,166.0793933770001,166.07940179900106,166.08883856100147,166.08883856100147,167.08496924700012,167.08496924700012,170.08915390900074,170.08915390900074,170.08915390900074,170.08915390900074,170.06797320199985,None,0,None,170.06848544600143,170.06853229300032,None,170.06864727200082,170.0770663330004,None,170.07716491999963,170.07719112500126,None,,,,,,,,,,,,,,,,,,,1,001,0,,2024-04-12_11h00.05.896,replicate_nsd,2023.2.3,60.621123668658804,2024-04-12 11h00.20.565107 -0400,
images/12_40.jpg,3,0,0,0,0,"[9, 19, 29, 39, 49, 59, 68, 69, 70, 71]",,,,,0,3,3,3,170.08915390900074,,,,,,,,,,,,,,,,,,,,,,,,,,,,,,,,,,,,,,,,170.07745429200077,170.0775307719996,170.07753921300173,170.08915390900074,170.08915390900074,171.08504309199998,171.08504309199998,174.09013477600092,174.09013477600092,174.09013477600092,174.09013477600092,174.06806956199944,None,0,None,174.06880225799978,174.06885076500112,None,174.06896634900113,174.0772746440016,None,174.07737565500065,174.07740252000076,None,,,,,,,,,,,,,,,,,,,1,001,0,,2024-04-12_11h00.05.896,replicate_nsd,2023.2.3,60.621123668658804,2024-04-12 11h00.20.565107 -0400,
images/pair13 copy 7.jpg,4,0,0,0,0,"[9, 19, 29, 39, 49, 59, 68, 69, 70, 71]",,,,,0,4,4,4,174.09013477600092,,,,,,,,,,,,,,,,,,,,,,,,,,,,,,,,,,,,,,,,174.07767392900132,174.07775655799924,174.07776543400178,174.09013477600092,174.09013477600092,175.0850747730001,175.0850747730001,178.08833026700086,178.08833026700086,178.08833026700086,178.08833026700086,178.06805168700157,None,0,None,178.0685675019995,178.0686155910007,None,178.06873472900043,178.07711580199975,None,178.07721909500106,178.07724646100178,None,,,,,,,,,,,,,,,,,,,1,001,0,,2024-04-12_11h00.05.896,replicate_nsd,2023.2.3,60.621123668658804,2024-04-12 11h00.20.565107 -0400,
images/17_12 copy 4.jpg,5,0,0,0,0,"[9, 19, 29, 39, 49, 59, 68, 69, 70, 71]",,,,,0,5,5,5,178.08833026700086,,,,,,,,,,,,,,,,,,,,,,,,,,,,,,,,,,,,,,,,178.07752153399997,178.07760104300178,178.0776100030016,178.08833026700086,178.08833026700086,179.08511549800096,179.08511549800096,182.08872629599864,182.08872629599864,182.08872629599864,182.08872629599864,182.06788685900028,None,0,None,182.06839880999905,182.06844558100056,None,182.06856189999962,182.07712934899973,None,182.0772306479994,182.07725746399956,None,,,,,,,,,,,,,,,,,,,1,001,0,,2024-04-12_11h00.05.896,replicate_nsd,2023.2.3,60.621123668658804,2024-04-12 11h00.20.565107 -0400,
images/15_12 copy 6.jpg,6,0,0,0,0,"[9, 19, 29, 39, 49, 59, 68, 69, 70, 71]",,,,,0,6,6,6,182.08872629599864,,,,,,,,,,,,,,,,,,,,,,,,,,,,,,,,,,,,,,,,182.07752963899839,182.07760749700174,182.07761615300114,182.08872629599864,182.08872629599864,183.08508347099996,183.08508347099996,186.0892093520015,186.0892093520015,186.0892093520015,186.0892093520015,186.06798935500046,None,0,None,186.06850273500095,186.06854960000055,None,186.06866631799858,186.0770458199986,None,186.07714392300113,186.07717001299898,None,,,,,,,,,,,,,,,,,,,1,001,0,,2024-04-12_11h00.05.896,replicate_nsd,2023.2.3,60.621123668658804,2024-04-12 11h00.20.565107 -0400,
images/20_40 copy 2.jpg,7,0,0,0,0,"[9, 19, 29, 39, 49, 59, 68, 69, 70, 71]",,,,,0,7,7,7,186.0892093520015,,,,,,,,,,,,,,,,,,,,,,,,,,,,,,,,,,,,,,,,186.07743373500125,186.07750917099838,186.0775175960007,186.0892093520015,186.0892093520015,187.08496970100168,187.08496970100168,190.08758609600045,190.08758609600045,190.08758609600045,190.08758609600045,190.06877727000028,None,0,"['up', 'lctrl']",190.07058003400016,190.07062865600165,None,190.07073020700045,190.07854337699973,None,190.0786414860013,190.07866739200108,None,"[2.971248715999536, 2.971248715999536]","[None, None]",,,,,,,,,,,,,,,,,1,001,0,,2024-04-12_11h00.05.896,replicate_nsd,2023.2.3,60.621123668658804,2024-04-12 11h00.20.565107 -0400,
images/16_28.jpg,8,0,0,0,0,"[9, 19, 29, 39, 49, 59, 68, 69, 70, 71]",,,,,0,8,8,8,190.08758609600045,,,,,,,,,,,,,,,,,,,,,,,,,,,,,,,,,,,,,,,,190.0789251060014,190.07900692800104,190.07901534900157,190.08758609600045,190.08758609600045,191.08488303899867,191.08488303899867,192.53810552999857,192.53810552999857,192.53810552999857,192.53810552999857,192.52462183199896,None,0,None,192.52526147200115,192.5252921499996,None,192.52544454500094,192.5315010810009,None,192.53158356600034,192.5316029860005,None,,,,,,,,,,,,,,,,,,,1,001,0,,2024-04-12_11h00.05.896,replicate_nsd,2023.2.3,60.621123668658804,2024-04-12 11h00.20.565107 -0400,
images/blank.jpg,9,1,0,0,0,"[9, 19, 29, 39, 49, 59, 68, 69, 70, 71]",,,,,0,9,9,9,192.53810552999857,,,,,,,,,,,,,,,,,,,,,,,,,,,,,,,,,,,,,,,,192.53180367000095,192.53196410799865,192.53198726299888,,,,,,,,,192.53444436100108,None,0,None,192.5346311510002,193.32951495399902,None,193.32963356999971,193.33636180100075,None,193.33646575799867,193.33648838199952,None,,,192.53810552999857,192.53810552999857,193.34256968300178,193.34256968300178,,,,,,,,,,,,,1,001,0,,2024-04-12_11h00.05.896,replicate_nsd,2023.2.3,60.621123668658804,2024-04-12 11h00.20.565107 -0400,
images/20_12 copy.jpg,10,0,0,0,0,"[9, 19, 29, 39, 49, 59, 68, 69, 70, 71]",,,,,0,10,10,10,193.34256968300178,,,,,,,,,,,,,,,,,,,,,,,,,,,,,,,,,,,,,,,,193.33672165100143,193.33682240100097,193.33683130400095,193.34256968300178,193.34256968300178,193.5336439849998,193.5336439849998,194.29482122300033,194.29482122300033,194.29482122300033,194.29482122300033,194.2847968269998,None,0,"['up', 'lctrl']",194.28540021400113,194.28543961200194,None,194.28553204000127,194.2855862409997,None,194.2856782989984,194.2857073790001,None,"[0.34576585499962675, 0.34576585499962675]","[None, None]",,,,,,,,,,,,,,,,,1,001,0,,2024-04-12_11h00.05.896,replicate_nsd,2023.2.3,60.621123668658804,2024-04-12 11h00.20.565107 -0400,
images/pair02.jpg,11,0,0,0,0,"[9, 19, 29, 39, 49, 59, 68, 69, 70, 71]",,,,,0,11,11,11,194.29482122300033,,,,,,,,,,,,,,,,,,,,,,,,,,,,,,,,,,,,,,,,194.28602427200167,194.28612845799944,194.28613890999986,194.29482122300033,194.29482122300033,194.48172946400155,194.48172946400155,196.72156689999974,196.72156689999974,196.72156689999974,196.72156689999974,196.70638868999959,None,0,None,196.70667660600157,196.70670158899884,None,196.7067657180014,196.71277789599844,None,196.71286341800078,196.71288578000167,None,,,,,,,,,,,,,,,,,,,1,001,0,,2024-04-12_11h00.05.896,replicate_nsd,2023.2.3,60.621123668658804,2024-04-12 11h00.20.565107 -0400,
images/pair15 copy 6.jpg,12,0,0,0,0,"[9, 19, 29, 39, 49, 59, 68, 69, 70, 71]",,,,,0,12,12,12,196.72156689999974,,,,,,,,,,,,,,,,,,,,,,,,,,,,,,,,,,,,,,,,196.7131145300009,196.71318302999862,196.71319035000124,196.72156689999974,196.72156689999974,197.71636281199972,197.71636281199972,200.58455959500134,200.58455959500134,200.58455959500134,200.58455959500134,200.57019666799897,None,0,"['up', 'lctrl']",200.5706036800002,200.57063056500192,None,200.57069426499947,200.5761979400013,None,200.5762812799985,200.57630376100133,None,"[0.38270460999774514, 0.38270460999774514]","[None, None]",,,,,,,,,,,,,,,,,1,001,0,,2024-04-12_11h00.05.896,replicate_nsd,2023.2.3,60.621123668658804,2024-04-12 11h00.20.565107 -0400,
images/pair18 copy.jpg,13,0,0,0,0,"[9, 19, 29, 39, 49, 59, 68, 69, 70, 71]",,,,,0,13,13,13,200.58455959500134,,,,,,,,,,,,,,,,,,,,,,,,,,,,,,,,,,,,,,,,200.57653051500165,200.57660574599868,200.57661314100187,200.58455959500134,200.58455959500134,200.76636201400106,200.76636201400106,201.532168138001,201.532168138001,201.532168138001,201.532168138001,201.5118452509996,None,0,None,201.51239278600042,201.512441228002,None,201.51256124599968,201.5201314549995,None,201.52022730500175,201.5202529220005,None,,,,,,,,,,,,,,,,,,,1,001,0,,2024-04-12_11h00.05.896,replicate_nsd,2023.2.3,60.621123668658804,2024-04-12 11h00.20.565107 -0400,
images/pair11 copy 7.jpg,14,0,0,0,0,"[9, 19, 29, 39, 49, 59, 68, 69, 70, 71]",,,,,0,14,14,14,201.532168138001,,,,,,,,,,,,,,,,,,,,,,,,,,,,,,,,,,,,,,,,201.52052060200003,201.52059435699994,201.52060274700125,201.532168138001,201.532168138001,201.73359248500128,201.73359248500128,202.46445663199847,202.46445663199847,202.46445663199847,202.46445663199847,202.4510219770018,None,0,None,202.45135848599966,202.45138841000153,None,202.45145890999993,202.45731661299942,None,202.45742986199912,202.4574533010018,None,,,,,,,,,,,,,,,,,,,1,001,0,,2024-04-12_11h00.05.896,replicate_nsd,2023.2.3,60.621123668658804,2024-04-12 11h00.20.565107 -0400,
images/18_0 copy 4.jpg,15,0,0,0,0,"[9, 19, 29, 39, 49, 59, 68, 69, 70, 71]",,,,,0,15,15,15,202.46445663199847,,,,,,,,,,,,,,,,,,,,,,,,,,,,,,,,,,,,,,,,202.45768624999982,202.4577771410004,202.45778468099888,202.46445663199847,202.46445663199847,202.66134263799904,202.66134263799904,203.42045754799983,203.42045754799983,203.42045754799983,203.42045754799983,203.40130898999996,None,0,None,203.40174871300042,203.40178737500173,None,203.40188166100052,203.40896925000197,None,203.4090672429993,203.40908964299888,None,,,,,,,,,,,,,,,,,,,1,001,0,,2024-04-12_11h00.05.896,replicate_nsd,2023.2.3,60.621123668658804,2024-04-12 11h00.20.565107 -0400,
images/13_0 copy 3.jpg,16,0,0,0,0,"[9, 19, 29, 39, 49, 59, 68, 69, 70, 71]",,,,,0,16,16,16,203.42045754799983,,,,,,,,,,,,,,,,,,,,,,,,,,,,,,,,,,,,,,,,203.40933356200185,203.4094190249998,203.4094265800013,203.42045754799983,203.42045754799983,203.61620820200187,203.61620820200187,204.3881618790001,204.3881618790001,204.3881618790001,204.3881618790001,204.37712629499947,None,0,None,204.37735012199846,204.37737077400016,None,204.37742294300187,204.38194497600125,None,204.38201270599893,204.38203113499912,None,,,,,,,,,,,,,,,,,,,1,001,0,,2024-04-12_11h00.05.896,replicate_nsd,2023.2.3,60.621123668658804,2024-04-12 11h00.20.565107 -0400,
images/21_0 copy 7.jpg,17,0,0,0,0,"[9, 19, 29, 39, 49, 59, 68, 69, 70, 71]",,,,,0,17,17,17,204.3881618790001,,,,,,,,,,,,,,,,,,,,,,,,,,,,,,,,,,,,,,,,204.38221462,204.38226543199926,204.3822712000001,204.3881618790001,204.3881618790001,204.5737988289984,204.5737988289984,205.31773437100128,205.31773437100128,205.31773437100128,205.31773437100128,205.30482539199875,None,0,None,205.30510236700138,205.30512811800145,None,205.30519292499957,205.31122794000112,None,205.3113341850003,205.31135591400016,None,,,,,,,,,,,,,,,,,,,1,001,0,,2024-04-12_11h00.05.896,replicate_nsd,2023.2.3,60.621123668658804,2024-04-12 11h00.20.565107 -0400,
images/17_40 copy 6.jpg,18,0,0,0,0,"[9, 19, 29, 39, 49, 59, 68, 69, 70, 71]",,,,,0,18,18,18,205.31773437100128,,,,,,,,,,,,,,,,,,,,,,,,,,,,,,,,,,,,,,,,205.31157923000137,205.3116594610001,205.31166668900187,205.31773437100128,205.31773437100128,205.50796149799862,205.50796149799862,206.29401516000144,206.29401516000144,206.29401516000144,206.29401516000144,206.28040324700123,None,0,None,206.28080788100124,206.280844506,None,206.28093863100003,206.2877844020004,None,206.287883039,206.28790939399914,None,,,,,,,,,,,,,,,,,,,1,001,0,,2024-04-12_11h00.05.896,replicate_nsd,2023.2.3,60.621123668658804,2024-04-12 11h00.20.565107 -0400,
images/blank.jpg,19,1,0,0,0,"[9, 19, 29, 39, 49, 59, 68, 69, 70, 71]",,,,,0,19,19,19,206.29401516000144,,,,,,,,,,,,,,,,,,,,,,,,,,,,,,,,,,,,,,,,206.28817481200167,206.28825059999872,206.2882590529989,,,,,,,,,206.29006640700027,None,0,None,206.29030086000057,207.06670400800067,None,207.06680040900028,207.0714990310007,None,207.07157169700076,207.07158947399876,None,,,206.29401516000144,206.29401516000144,207.07771391400092,207.07771391400092,,,,,,,,,,,,,1,001,0,,2024-04-12_11h00.05.896,replicate_nsd,2023.2.3,60.621123668658804,2024-04-12 11h00.20.565107 -0400,
images/23_12 copy 3.jpg,20,0,0,0,0,"[9, 19, 29, 39, 49, 59, 68, 69, 70, 71]",,,,,0,20,20,20,207.07771391400092,,,,,,,,,,,,,,,,,,,,,,,,,,,,,,,,,,,,,,,,207.07177398899876,207.07182955200187,207.0718354720011,207.07771391400092,207.07771391400092,207.3109331759988,207.3109331759988,208.06569671000034,208.06569671000034,208.06569671000034,208.06569671000034,208.05733175899877,None,0,None,208.05759924800077,208.05762592999963,None,208.0576906770002,208.05772752100165,None,208.05779181199978,208.0578119390011,None,,,,,,,,,,,,,,,,,,,1,001,0,,2024-04-12_11h00.05.896,replicate_nsd,2023.2.3,60.621123668658804,2024-04-12 11h00.20.565107 -0400,
images/pair08 copy 2.jpg,21,0,0,0,0,"[9, 19, 29, 39, 49, 59, 68, 69, 70, 71]",,,,,0,21,21,21,208.06569671000034,,,,,,,,,,,,,,,,,,,,,,,,,,,,,,,,,,,,,,,,208.0580219850017,208.0580825370016,208.05808961100047,208.06569671000034,208.06569671000034,208.2699854679995,208.2699854679995,209.01958628099965,209.01958628099965,209.01958628099965,209.01958628099965,209.0010659159998,None,0,None,209.00157954599854,209.0016285439997,None,209.00174679400152,209.0090646919998,None,209.00916086100187,209.00918679200186,None,,,,,,,,,,,,,,,,,,,1,001,0,,2024-04-12_11h00.05.896,replicate_nsd,2023.2.3,60.621123668658804,2024-04-12 11h00.20.565107 -0400,
images/11_12 copy 6.jpg,22,0,0,0,0,"[9, 19, 29, 39, 49, 59, 68, 69, 70, 71]",,,,,0,22,22,22,209.01958628099965,,,,,,,,,,,,,,,,,,,,,,,,,,,,,,,,,,,,,,,,209.00944852799876,209.00952484200025,209.00953342299908,209.01958628099965,209.01958628099965,209.2105804720013,209.2105804720013,209.97967386600067,209.97967386600067,209.97967386600067,209.97967386600067,209.965486426001,None,0,None,209.96586228999877,209.96589850199962,None,209.9659919980004,209.97274410500177,None,209.97283701299966,209.97286182300013,None,,,,,,,,,,,,,,,,,,,1,001,0,,2024-04-12_11h00.05.896,replicate_nsd,2023.2.3,60.621123668658804,2024-04-12 11h00.20.565107 -0400,
images/15_12 copy 2.jpg,23,0,0,0,0,"[9, 19, 29, 39, 49, 59, 68, 69, 70, 71]",,,,,0,23,23,23,209.97967386600067,,,,,,,,,,,,,,,,,,,,,,,,,,,,,,,,,,,,,,,,209.97311290500147,209.97319010700085,209.97319850499844,209.97967386600067,209.97967386600067,210.1932481340009,210.1932481340009,210.87484075099928,210.87484075099928,210.87484075099928,210.87484075099928,210.8625222260016,None,0,None,210.86280697099937,210.86283367799842,None,210.86290353799996,210.868553272001,None,210.8686622669993,210.86868468000102,None,,,,,,,,,,,,,,,,,,,1,001,0,,2024-04-12_11h00.05.896,replicate_nsd,2023.2.3,60.621123668658804,2024-04-12 11h00.20.565107 -0400,
images/10_40 copy 3.jpg,24,0,0,0,0,"[9, 19, 29, 39, 49, 59, 68, 69, 70, 71]",,,,,0,24,24,24,210.87484075099928,,,,,,,,,,,,,,,,,,,,,,,,,,,,,,,,,,,,,,,,210.868913049002,210.8689943319987,210.8690015050015,210.87484075099928,210.87484075099928,211.0758711660019,211.0758711660019,211.73343473600107,211.73343473600107,211.73343473600107,211.73343473600107,211.7210224010014,None,0,None,211.7213508519999,211.72137902900067,None,211.7214428740008,211.7274023300015,None,211.72750748399994,211.72752941,None,,,,,,,,,,,,,,,,,,,1,001,0,,2024-04-12_11h00.05.896,replicate_nsd,2023.2.3,60.621123668658804,2024-04-12 11h00.20.565107 -0400,
images/22_28 copy 2.jpg,25,0,0,0,0,"[9, 19, 29, 39, 49, 59, 68, 69, 70, 71]",,,,,0,25,25,25,211.73343473600107,,,,,,,,,,,,,,,,,,,,,,,,,,,,,,,,,,,,,,,,211.7277521219985,211.72783760899983,211.72784454700013,211.73343473600107,211.73343473600107,211.92437732500184,211.92437732500184,212.74660511600086,212.74660511600086,212.74660511600086,212.74660511600086,212.7263811740013,None,0,None,212.72687248900183,212.72691869199843,None,212.72703552899839,212.73439633200178,None,212.73449322599845,212.73451912100063,None,,,,,,,,,,,,,,,,,,,1,001,0,,2024-04-12_11h00.05.896,replicate_nsd,2023.2.3,60.621123668658804,2024-04-12 11h00.20.565107 -0400,
images/18_0 copy 3.jpg,26,0,0,0,0,"[9, 19, 29, 39, 49, 59, 68, 69, 70, 71]",,,,,0,26,26,26,212.74660511600086,,,,,,,,,,,,,,,,,,,,,,,,,,,,,,,,,,,,,,,,212.73478093299855,212.73485617299957,212.73486474899983,212.74660511600086,212.74660511600086,212.93640408099964,212.93640408099964,213.69204667300073,213.69204667300073,213.69204667300073,213.69204667300073,213.6798447789988,None,0,None,213.68013435100147,213.68016004799938,None,213.68022533199837,213.68569056400156,None,213.68578306500058,213.68580477700016,None,,,,,,,,,,,,,,,,,,,1,001,0,,2024-04-12_11h00.05.896,replicate_nsd,2023.2.3,60.621123668658804,2024-04-12 11h00.20.565107 -0400,
images/5_40.jpg,27,0,0,0,0,"[9, 19, 29, 39, 49, 59, 68, 69, 70, 71]",,,,,0,27,27,27,213.69204667300073,,,,,,,,,,,,,,,,,,,,,,,,,,,,,,,,,,,,,,,,213.68602782499875,213.68611269699977,213.68611996699838,213.69204667300073,213.69204667300073,213.87983012800032,213.87983012800032,214.63960625899927,214.63960625899927,214.63960625899927,214.63960625899927,214.62715739399937,None,0,None,214.62742947000152,214.6274547339999,None,214.6275182950012,214.63308552200033,None,214.63318308599992,214.63320473299973,None,,,,,,,,,,,,,,,,,,,1,001,0,,2024-04-12_11h00.05.896,replicate_nsd,2023.2.3,60.621123668658804,2024-04-12 11h00.20.565107 -0400,
images/13_28 copy 4.jpg,28,0,0,0,0,"[9, 19, 29, 39, 49, 59, 68, 69, 70, 71]",,,,,0,28,28,28,214.63960625899927,,,,,,,,,,,,,,,,,,,,,,,,,,,,,,,,,,,,,,,,214.6334276000016,214.63350232599987,214.63350973900015,214.63960625899927,214.63960625899927,214.85569073200168,214.85569073200168,215.61345891300152,215.61345891300152,215.61345891300152,215.61345891300152,215.6036111889989,None,0,None,215.6038379700003,215.60385976700127,None,215.603913646999,215.60855060299946,None,215.60861931800173,215.60863828799847,None,,,,,,,,,,,,,,,,,,,1,001,0,,2024-04-12_11h00.05.896,replicate_nsd,2023.2.3,60.621123668658804,2024-04-12 11h00.20.565107 -0400,
images/blank.jpg,29,1,0,0,0,"[9, 19, 29, 39, 49, 59, 68, 69, 70, 71]",,,,,0,29,29,29,215.61345891300152,,,,,,,,,,,,,,,,,,,,,,,,,,,,,,,,,,,,,,,,215.60882657299953,215.6088782709994,215.6088842120007,,,,,,,,,215.61021238299872,None,0,None,215.61037637000118,216.3807191090018,None,216.38089421800032,216.38796295200154,None,216.38806179400126,216.3880876580006,None,,,215.61345891300152,215.61345891300152,216.39911803799987,216.39911803799987,,,,,,,,,,,,,1,001,0,,2024-04-12_11h00.05.896,replicate_nsd,2023.2.3,60.621123668658804,2024-04-12 11h00.20.565107 -0400,
images/6_12 copy.jpg,30,0,0,0,0,"[9, 19, 29, 39, 49, 59, 68, 69, 70, 71]",,,,,0,30,30,30,216.39911803799987,,,,,,,,,,,,,,,,,,,,,,,,,,,,,,,,,,,,,,,,216.3883457660013,216.38842295400173,216.3884313560011,216.39911803799987,216.39911803799987,216.61198923900156,216.61198923900156,217.3073354090011,217.3073354090011,217.3073354090011,217.3073354090011,217.29816739200032,None,0,None,217.29867441999886,217.29872182100007,None,217.29883747599888,217.29890117499963,None,217.29901611899913,217.29905256200072,None,,,,,,,,,,,,,,,,,,,1,001,0,,2024-04-12_11h00.05.896,replicate_nsd,2023.2.3,60.621123668658804,2024-04-12 11h00.20.565107 -0400,
images/6_12 copy 2.jpg,31,0,0,0,0,"[9, 19, 29, 39, 49, 59, 68, 69, 70, 71]",,,,,0,31,31,31,217.3073354090011,,,,,,,,,,,,,,,,,,,,,,,,,,,,,,,,,,,,,,,,217.29942591500003,217.29953554999884,217.299548676001,217.3073354090011,217.3073354090011,217.5018373519997,217.5018373519997,218.2238014329996,218.2238014329996,218.2238014329996,218.2238014329996,218.21148809900114,None,0,None,218.21171648000018,218.21173773800183,None,218.21179071200095,218.21655454999927,None,218.2166257550016,218.21664381699884,None,,,,,,,,,,,,,,,,,,,1,001,0,,2024-04-12_11h00.05.896,replicate_nsd,2023.2.3,60.621123668658804,2024-04-12 11h00.20.565107 -0400,
images/pair07 copy 6.jpg,32,0,0,0,0,"[9, 19, 29, 39, 49, 59, 68, 69, 70, 71]",,,,,0,32,32,32,218.2238014329996,,,,,,,,,,,,,,,,,,,,,,,,,,,,,,,,,,,,,,,,218.21683044400197,218.2168837270001,218.21688986899971,218.2238014329996,218.2238014329996,218.43314689700128,218.43314689700128,219.17907861799904,219.17907861799904,219.17907861799904,219.17907861799904,219.1652884899995,None,0,None,219.16563939800108,219.16567047599892,None,219.16574733800007,219.1721041769997,None,219.172200969002,219.17222506100006,None,,,,,,,,,,,,,,,,,,,1,001,0,,2024-04-12_11h00.05.896,replicate_nsd,2023.2.3,60.621123668658804,2024-04-12 11h00.20.565107 -0400,
images/5_40.jpg,33,0,1,0,0,"[9, 19, 29, 39, 49, 59, 68, 69, 70, 71]",,,,,0,33,33,33,219.17907861799904,,,,,,,,,,,,,,,,,,,,,,,,,,,,,,,,,,,,,,,,219.17247172000134,219.17255581300196,219.1725638249991,219.17907861799904,219.17907861799904,219.36930747500082,219.36930747500082,220.13913026299997,220.13913026299997,220.13913026299997,220.13913026299997,220.12412989899894,None,0,None,220.12451861700174,220.1245549990017,None,220.12466147300074,220.13149431000056,None,220.13159921699844,220.13162429699878,None,,,,,,,,,,,,,,,,,,,1,001,0,,2024-04-12_11h00.05.896,replicate_nsd,2023.2.3,60.621123668658804,2024-04-12 11h00.20.565107 -0400,
images/pair15 copy 5.jpg,34,0,0,0,0,"[9, 19, 29, 39, 49, 59, 68, 69, 70, 71]",,,,,0,34,34,34,220.13913026299997,,,,,,,,,,,,,,,,,,,,,,,,,,,,,,,,,,,,,,,,220.13190145000044,220.1319725780013,220.13197982400015,220.13913026299997,220.13913026299997,220.3299764830008,220.3299764830008,221.04697310900156,221.04697310900156,221.04697310900156,221.04697310900156,221.03387739900063,None,0,None,221.03416291399844,221.0341893850018,None,221.0342537610013,221.0399815769997,None,221.0400859069996,221.04010846600067,None,,,,,,,,,,,,,,,,,,,1,001,0,,2024-04-12_11h00.05.896,replicate_nsd,2023.2.3,60.621123668658804,2024-04-12 11h00.20.565107 -0400,
images/17_40 copy.jpg,35,0,0,0,0,"[9, 19, 29, 39, 49, 59, 68, 69, 70, 71]",,,,,0,35,35,35,221.04697310900156,,,,,,,,,,,,,,,,,,,,,,,,,,,,,,,,,,,,,,,,221.04033865900055,221.04041858599885,221.04042576600114,221.04697310900156,221.04697310900156,221.2387847559985,221.2387847559985,221.92893959600042,221.92893959600042,221.92893959600042,221.92893959600042,221.91636794900114,None,0,None,221.916662869,221.91668901899902,None,221.91675371599922,221.92231881100088,None,221.92240161700101,221.92242387399892,None,,,,,,,,,,,,,,,,,,,1,001,0,,2024-04-12_11h00.05.896,replicate_nsd,2023.2.3,60.621123668658804,2024-04-12 11h00.20.565107 -0400,
images/5_28 copy 6.jpg,36,0,0,0,0,"[9, 19, 29, 39, 49, 59, 68, 69, 70, 71]",,,,,0,36,36,36,221.92893959600042,,,,,,,,,,,,,,,,,,,,,,,,,,,,,,,,,,,,,,,,221.92264617000183,221.92270921700037,221.92271623000124,221.92893959600042,221.92893959600042,222.12345452099908,222.12345452099908,222.92570010800046,222.92570010800046,222.92570010800046,222.92570010800046,222.91331252799864,None,0,"['up', 'lctrl']",222.91369993400076,222.9137265850004,None,222.91378979900037,222.91957409099996,None,222.9196608530001,222.9196833649985,None,"[0.8833465800016711, 0.8833465800016711]","[None, None]",,,,,,,,,,,,,,,,,1,001,0,,2024-04-12_11h00.05.896,replicate_nsd,2023.2.3,60.621123668658804,2024-04-12 11h00.20.565107 -0400,
images/22_40.jpg,37,0,0,0,0,"[9, 19, 29, 39, 49, 59, 68, 69, 70, 71]",,,,,0,37,37,37,222.92570010800046,,,,,,,,,,,,,,,,,,,,,,,,,,,,,,,,,,,,,,,,222.91990581199934,222.91997187699963,222.91997880200142,222.92570010800046,222.92570010800046,223.18076338899846,223.18076338899846,223.91056298900003,223.91056298900003,223.91056298900003,223.91056298900003,223.89642374300092,None,0,None,223.89685094599918,223.8968940170016,None,223.89699034899968,223.90377679599987,None,223.90387278499838,223.90389800399862,None,,,,,,,,,,,,,,,,,,,1,001,0,,2024-04-12_11h00.05.896,replicate_nsd,2023.2.3,60.621123668658804,2024-04-12 11h00.20.565107 -0400,
images/18_0 copy 3.jpg,38,0,1,0,0,"[9, 19, 29, 39, 49, 59, 68, 69, 70, 71]",,,,,0,38,38,38,223.91056298900003,,,,,,,,,,,,,,,,,,,,,,,,,,,,,,,,,,,,,,,,223.90416762400127,223.9042356760001,223.90424271099982,223.91056298900003,223.91056298900003,224.20381703100065,224.20381703100065,224.95172822300083,224.95172822300083,224.95172822300083,224.95172822300083,224.93685910899876,None,0,None,224.93737409499954,224.937421568,None,224.9375408929991,224.9450432699996,None,224.9451409659996,224.94516618299895,None,,,,,,,,,,,,,,,,,,,1,001,0,,2024-04-12_11h00.05.896,replicate_nsd,2023.2.3,60.621123668658804,2024-04-12 11h00.20.565107 -0400,
images/blank.jpg,39,1,0,0,0,"[9, 19, 29, 39, 49, 59, 68, 69, 70, 71]",,,,,0,39,39,39,224.95172822300083,,,,,,,,,,,,,,,,,,,,,,,,,,,,,,,,,,,,,,,,224.94541812600073,224.9454952720007,224.94550339600028,,,,,,,,,224.94746782899892,None,0,None,224.94772529300099,225.74048858600145,lctrl,225.74117081299846,225.74651511900083,None,225.74660505000065,225.74662570999863,None,,,224.95172822300083,224.95172822300083,225.75363866000043,225.75363866000043,0.7525504910008749,None,,,,,,,,,,,1,001,0,,2024-04-12_11h00.05.896,replicate_nsd,2023.2.3,60.621123668658804,2024-04-12 11h00.20.565107 -0400,
images/13_0 copy 7.jpg,40,0,0,0,0,"[9, 19, 29, 39, 49, 59, 68, 69, 70, 71]",,,,,0,40,40,40,225.75363866000043,,,,,,,,,,,,,,,,,,,,,,,,,,,,,,,,,,,,,,,,225.74687811900003,225.74702386499848,225.74705949300187,225.75363866000043,225.75363866000043,225.95626597400042,225.95626597400042,226.69002659399848,226.69002659399848,226.69002659399848,226.69002659399848,226.68251967299875,None,0,None,226.68282300200008,226.6828506999991,None,226.68291459399916,226.6829510690004,None,226.6830147619985,226.68303490100152,None,,,,,,,,,,,,,,,,,,,1,001,0,,2024-04-12_11h00.05.896,replicate_nsd,2023.2.3,60.621123668658804,2024-04-12 11h00.20.565107 -0400,
images/pair12 copy 2.jpg,41,0,0,0,0,"[9, 19, 29, 39, 49, 59, 68, 69, 70, 71]",,,,,0,41,41,41,226.69002659399848,,,,,,,,,,,,,,,,,,,,,,,,,,,,,,,,,,,,,,,,226.68324876599945,226.68330914300168,226.68331648599997,226.69002659399848,226.69002659399848,227.6504955620003,227.6504955620003,229.05650037699888,229.05650037699888,229.05650037699888,229.05650037699888,229.0408002080003,None,0,None,229.0412141429988,229.04125346,None,229.04135507799947,229.04817683000147,None,229.0482740209991,229.0482995880011,None,,,,,,,,,,,,,,,,,,,1,001,0,,2024-04-12_11h00.05.896,replicate_nsd,2023.2.3,60.621123668658804,2024-04-12 11h00.20.565107 -0400,
images/16_40 copy 5.jpg,42,0,0,0,0,"[9, 19, 29, 39, 49, 59, 68, 69, 70, 71]",,,,,0,42,42,42,229.05650037699888,,,,,,,,,,,,,,,,,,,,,,,,,,,,,,,,,,,,,,,,229.04855456600126,229.0486208680013,229.04862807500103,229.05650037699888,229.05650037699888,229.25801569000032,229.25801569000032,230.05032538500018,230.05032538500018,230.05032538500018,230.05032538500018,230.03655570699993,None,0,None,230.03688825200152,230.0369179549998,None,230.0369917950011,230.04320778500187,None,230.04330046000177,230.0433247969995,None,,,,,,,,,,,,,,,,,,,1,001,0,,2024-04-12_11h00.05.896,replicate_nsd,2023.2.3,60.621123668658804,2024-04-12 11h00.20.565107 -0400,
images/20_12 copy 4.jpg,43,0,0,0,0,"[9, 19, 29, 39, 49, 59, 68, 69, 70, 71]",,,,,0,43,43,43,230.05032538500018,,,,,,,,,,,,,,,,,,,,,,,,,,,,,,,,,,,,,,,,230.04357540600176,230.04364668299968,230.04365475899976,230.05032538500018,230.05032538500018,230.23502024700065,230.23502024700065,230.99916240200037,230.99916240200037,230.99916240200037,230.99916240200037,230.9806275539995,None,0,None,230.9811440199992,230.98118060699926,None,230.98127178900177,230.98956963900127,None,230.98966485200071,230.98969030399894,None,,,,,,,,,,,,,,,,,,,1,001,0,,2024-04-12_11h00.05.896,replicate_nsd,2023.2.3,60.621123668658804,2024-04-12 11h00.20.565107 -0400,
images/11_28 copy 5.jpg,44,0,0,0,0,"[9, 19, 29, 39, 49, 59, 68, 69, 70, 71]",,,,,0,44,44,44,230.99916240200037,,,,,,,,,,,,,,,,,,,,,,,,,,,,,,,,,,,,,,,,230.98994617100107,230.99001933099862,230.99002774499968,230.99916240200037,230.99916240200037,231.19841528300094,231.19841528300094,231.92166300100143,231.92166300100143,231.92166300100143,231.92166300100143,231.9094488990013,None,0,None,231.9096746159994,231.90969524500179,None,231.90974788899985,231.91423435099932,None,231.9143045359997,231.91432268300196,None,,,,,,,,,,,,,,,,,,,1,001,0,,2024-04-12_11h00.05.896,replicate_nsd,2023.2.3,60.621123668658804,2024-04-12 11h00.20.565107 -0400,
images/19_40 copy 3.jpg,45,0,0,0,0,"[9, 19, 29, 39, 49, 59, 68, 69, 70, 71]",,,,,0,45,45,45,231.92166300100143,,,,,,,,,,,,,,,,,,,,,,,,,,,,,,,,,,,,,,,,231.91450923199955,231.9145618500006,231.9145678470013,231.92166300100143,231.92166300100143,232.12159274900114,232.12159274900114,232.81445947799875,232.81445947799875,232.81445947799875,232.81445947799875,232.800555247999,None,0,None,232.80088546800107,232.8009166519987,None,232.80099091599914,232.80691707499864,None,232.80700034999973,232.8070224280018,None,,,,,,,,,,,,,,,,,,,1,001,0,,2024-04-12_11h00.05.896,replicate_nsd,2023.2.3,60.621123668658804,2024-04-12 11h00.20.565107 -0400,
images/18_40 copy 7.jpg,46,0,0,0,0,"[9, 19, 29, 39, 49, 59, 68, 69, 70, 71]",,,,,0,46,46,46,232.81445947799875,,,,,,,,,,,,,,,,,,,,,,,,,,,,,,,,,,,,,,,,232.80724370900134,232.8073084360003,232.80731542799913,232.81445947799875,232.81445947799875,233.03707855299945,233.03707855299945,233.7517408499989,233.7517408499989,233.7517408499989,233.7517408499989,233.73895533000177,None,0,None,233.739221541,233.73924628000168,None,233.73930914599987,233.74488689899954,None,233.744999079001,233.74502208099875,None,,,,,,,,,,,,,,,,,,,1,001,0,,2024-04-12_11h00.05.896,replicate_nsd,2023.2.3,60.621123668658804,2024-04-12 11h00.20.565107 -0400,
images/12_0 copy 5.jpg,47,0,0,0,0,"[9, 19, 29, 39, 49, 59, 68, 69, 70, 71]",,,,,0,47,47,47,233.7517408499989,,,,,,,,,,,,,,,,,,,,,,,,,,,,,,,,,,,,,,,,233.74525562100098,233.7453460789984,233.74535331600055,233.7517408499989,233.7517408499989,233.94500504299867,233.94500504299867,234.67259474800085,234.67259474800085,234.67259474800085,234.67259474800085,234.66099299900088,None,0,None,234.66127384799984,234.66129963799904,None,234.66136380899843,234.66692739000064,None,234.66703499600044,234.66705722400002,None,,,,,,,,,,,,,,,,,,,1,001,0,,2024-04-12_11h00.05.896,replicate_nsd,2023.2.3,60.621123668658804,2024-04-12 11h00.20.565107 -0400,
images/23_40 copy 3.jpg,48,0,0,0,0,"[9, 19, 29, 39, 49, 59, 68, 69, 70, 71]",,,,,0,48,48,48,234.67259474800085,,,,,,,,,,,,,,,,,,,,,,,,,,,,,,,,,,,,,,,,234.66728798799886,234.6673676290011,234.66737481300152,234.67259474800085,234.67259474800085,234.86485661000188,234.86485661000188,235.53547593300027,235.53547593300027,235.53547593300027,235.53547593300027,235.52499387699936,None,0,None,235.52522449900061,235.52524615999937,None,235.52530042500075,235.53013614999873,None,235.5302085229996,235.53022770900134,None,,,,,,,,,,,,,,,,,,,1,001,0,,2024-04-12_11h00.05.896,replicate_nsd,2023.2.3,60.621123668658804,2024-04-12 11h00.20.565107 -0400,
images/blank.jpg,49,1,0,0,0,"[9, 19, 29, 39, 49, 59, 68, 69, 70, 71]",,,,,0,49,49,49,235.53547593300027,,,,,,,,,,,,,,,,,,,,,,,,,,,,,,,,,,,,,,,,235.53042203400037,235.53047634500035,235.53048274200046,,,,,,,,,235.53185970900086,None,0,None,235.53202794000026,236.34489180699893,None,236.34509977400012,236.3526019130004,None,236.35270429999946,236.35273018299995,None,,,235.53547593300027,235.53547593300027,236.3663798109992,236.3663798109992,,,,,,,,,,,,,1,001,0,,2024-04-12_11h00.05.896,replicate_nsd,2023.2.3,60.621123668658804,2024-04-12 11h00.20.565107 -0400,
images/pair15 copy 4.jpg,50,0,0,0,0,"[9, 19, 29, 39, 49, 59, 68, 69, 70, 71]",,,,,0,50,50,50,236.3663798109992,,,,,,,,,,,,,,,,,,,,,,,,,,,,,,,,,,,,,,,,236.35299493300045,236.3530744790005,236.3530831700009,236.3663798109992,236.3663798109992,236.55459158599842,236.55459158599842,237.3506613649988,237.3506613649988,237.3506613649988,237.3506613649988,237.33923933500046,None,0,None,237.33975114200075,237.33979817499858,None,237.33991372200035,237.3399782029992,None,237.3400938070008,237.3401302880011,None,,,,,,,,,,,,,,,,,,,1,001,0,,2024-04-12_11h00.05.896,replicate_nsd,2023.2.3,60.621123668658804,2024-04-12 11h00.20.565107 -0400,
images/8_12 copy 2.jpg,51,0,0,0,0,"[9, 19, 29, 39, 49, 59, 68, 69, 70, 71]",,,,,0,51,51,51,237.3506613649988,,,,,,,,,,,,,,,,,,,,,,,,,,,,,,,,,,,,,,,,237.34050661600122,237.34061112999916,237.34062378900126,237.3506613649988,237.3506613649988,237.56953228199927,237.56953228199927,238.31567748700036,238.31567748700036,238.31567748700036,238.31567748700036,238.30353714300145,None,0,None,238.303824876999,238.30385136300174,None,238.30391752099968,238.30934428899855,None,238.30943266599934,238.30945514400082,None,,,,,,,,,,,,,,,,,,,1,001,0,,2024-04-12_11h00.05.896,replicate_nsd,2023.2.3,60.621123668658804,2024-04-12 11h00.20.565107 -0400,
images/13_12.jpg,52,0,0,0,0,"[9, 19, 29, 39, 49, 59, 68, 69, 70, 71]",,,,,0,52,52,52,238.31567748700036,,,,,,,,,,,,,,,,,,,,,,,,,,,,,,,,,,,,,,,,238.30967943900032,238.3097507650018,238.30975800099986,238.31567748700036,238.31567748700036,238.50362447299995,238.50362447299995,239.2874898170012,239.2874898170012,239.2874898170012,239.2874898170012,239.27154867400168,None,0,None,239.27184239200142,239.2718711660018,None,239.27194397100175,239.27777785999933,None,239.27785776400196,239.27787917200112,None,,,,,,,,,,,,,,,,,,,1,001,0,,2024-04-12_11h00.05.896,replicate_nsd,2023.2.3,60.621123668658804,2024-04-12 11h00.20.565107 -0400,
images/9_0 copy 7.jpg,53,0,0,0,0,"[9, 19, 29, 39, 49, 59, 68, 69, 70, 71]",,,,,0,53,53,53,239.2874898170012,,,,,,,,,,,,,,,,,,,,,,,,,,,,,,,,,,,,,,,,239.27809402500134,239.27815269599887,239.2781595839988,239.2874898170012,239.2874898170012,239.49541823600157,239.49541823600157,240.28401705099895,240.28401705099895,240.28401705099895,240.28401705099895,240.27246963699872,None,0,None,240.27269205500124,240.27271289200144,None,240.27276464199895,240.27736517499943,None,240.2774318849988,240.27745039599904,None,,,,,,,,,,,,,,,,,,,1,001,0,,2024-04-12_11h00.05.896,replicate_nsd,2023.2.3,60.621123668658804,2024-04-12 11h00.20.565107 -0400,
images/9_40.jpg,54,0,0,0,0,"[9, 19, 29, 39, 49, 59, 68, 69, 70, 71]",,,,,0,54,54,54,240.28401705099895,,,,,,,,,,,,,,,,,,,,,,,,,,,,,,,,,,,,,,,,240.2776324660008,240.27768163099972,240.27768748900053,240.28401705099895,240.28401705099895,240.4719078829985,240.4719078829985,241.1710744910015,241.1710744910015,241.1710744910015,241.1710744910015,241.15784985700157,None,0,None,241.158157337999,241.15818652400048,None,241.15825839800164,241.16432114100098,None,241.16441792399928,241.164447596002,None,,,,,,,,,,,,,,,,,,,1,001,0,,2024-04-12_11h00.05.896,replicate_nsd,2023.2.3,60.621123668658804,2024-04-12 11h00.20.565107 -0400,
images/14_0 copy 7.jpg,55,0,0,0,0,"[9, 19, 29, 39, 49, 59, 68, 69, 70, 71]",,,,,0,55,55,55,241.1710744910015,,,,,,,,,,,,,,,,,,,,,,,,,,,,,,,,,,,,,,,,241.16467770300005,241.16475053199974,241.16475781400004,241.1710744910015,241.1710744910015,241.3647288659995,241.3647288659995,242.05545031099973,242.05545031099973,242.05545031099973,242.05545031099973,242.0440385719994,None,0,None,242.04429426500064,242.04431762799868,None,242.04437611699905,242.04960378599935,None,242.04968542200004,242.04970718700133,None,,,,,,,,,,,,,,,,,,,1,001,0,,2024-04-12_11h00.05.896,replicate_nsd,2023.2.3,60.621123668658804,2024-04-12 11h00.20.565107 -0400,
images/5_28.jpg,56,0,0,0,0,"[9, 19, 29, 39, 49, 59, 68, 69, 70, 71]",,,,,0,56,56,56,242.05545031099973,,,,,,,,,,,,,,,,,,,,,,,,,,,,,,,,,,,,,,,,242.0499265030012,242.04998944999898,242.04999641299946,242.05545031099973,242.05545031099973,242.2390384249993,242.2390384249993,243.0088431660006,243.0088431660006,243.0088431660006,243.0088431660006,242.9978604780008,None,0,None,242.9980948960001,242.9981168910017,None,242.99817163699845,243.00276241300162,None,243.00282925899955,243.00284780899892,None,,,,,,,,,,,,,,,,,,,1,001,0,,2024-04-12_11h00.05.896,replicate_nsd,2023.2.3,60.621123668658804,2024-04-12 11h00.20.565107 -0400,
images/17_28 copy 7.jpg,57,0,0,0,0,"[9, 19, 29, 39, 49, 59, 68, 69, 70, 71]",,,,,0,57,57,57,243.0088431660006,,,,,,,,,,,,,,,,,,,,,,,,,,,,,,,,,,,,,,,,243.003030038999,243.00308179900094,243.00308765999944,243.0088431660006,243.0088431660006,243.23767282900008,243.23767282900008,243.96550588299942,243.96550588299942,243.96550588299942,243.96550588299942,243.95234034700115,None,0,None,243.95263325799897,243.95265922700128,None,243.9527225189995,243.9581275499986,None,243.9582102150016,243.95823210900198,None,,,,,,,,,,,,,,,,,,,1,001,0,,2024-04-12_11h00.05.896,replicate_nsd,2023.2.3,60.621123668658804,2024-04-12 11h00.20.565107 -0400,
images/22_0 copy.jpg,58,0,0,0,0,"[9, 19, 29, 39, 49, 59, 68, 69, 70, 71]",,,,,0,58,58,58,243.96550588299942,,,,,,,,,,,,,,,,,,,,,,,,,,,,,,,,,,,,,,,,243.95845198900133,243.95851549800136,243.95852257200022,243.96550588299942,243.96550588299942,244.16296100199907,244.16296100199907,244.9634123069991,244.9634123069991,244.9634123069991,244.9634123069991,244.9520435129998,None,0,None,244.95231450600113,244.95233991499845,None,244.9524058809984,244.95800188200155,None,244.9580867069999,244.95810815300138,None,,,,,,,,,,,,,,,,,,,1,001,0,,2024-04-12_11h00.05.896,replicate_nsd,2023.2.3,60.621123668658804,2024-04-12 11h00.20.565107 -0400,
images/blank.jpg,59,1,0,0,0,"[9, 19, 29, 39, 49, 59, 68, 69, 70, 71]",,,,,0,59,59,59,244.9634123069991,,,,,,,,,,,,,,,,,,,,,,,,,,,,,,,,,,,,,,,,244.95832983700166,244.9583959929987,244.95840303899968,,,,,,,,,244.95989673000076,None,0,None,244.96010357400155,245.75557366499925,None,245.75568165400182,245.7610243199997,None,245.7611199460007,245.76114102700012,None,,,244.9634123069991,244.9634123069991,245.76902139600134,245.76902139600134,,,,,,,,,,,,,1,001,0,,2024-04-12_11h00.05.896,replicate_nsd,2023.2.3,60.621123668658804,2024-04-12 11h00.20.565107 -0400,
images/pair12 copy 7.jpg,60,0,0,0,0,"[9, 19, 29, 39, 49, 59, 68, 69, 70, 71]",,,,,0,60,60,60,245.76902139600134,,,,,,,,,,,,,,,,,,,,,,,,,,,,,,,,,,,,,,,,245.7613518500002,245.76141457500125,245.76142125800106,245.76902139600134,245.76902139600134,245.95935814699988,245.95935814699988,246.7448486530011,246.7448486530011,246.7448486530011,246.7448486530011,246.7382229089999,None,0,None,246.73849526399863,246.73852128400176,None,246.73858484000084,246.73862248099977,None,246.73868681000022,246.73870704699948,None,,,,,,,,,,,,,,,,,,,1,001,0,,2024-04-12_11h00.05.896,replicate_nsd,2023.2.3,60.621123668658804,2024-04-12 11h00.20.565107 -0400,
images/8_12 copy.jpg,61,0,0,0,0,"[9, 19, 29, 39, 49, 59, 68, 69, 70, 71]",,,,,0,61,61,61,246.7448486530011,,,,,,,,,,,,,,,,,,,,,,,,,,,,,,,,,,,,,,,,246.73891885400008,246.73897824600135,246.73898515100154,246.7448486530011,246.7448486530011,246.94767593100187,246.94767593100187,247.75038393399882,247.75038393399882,247.75038393399882,247.75038393399882,247.73853401900124,None,0,None,247.73879856400163,247.73882400300135,None,247.7388877049998,247.7442772079994,None,247.74435738800094,247.74437832900003,None,,,,,,,,,,,,,,,,,,,1,001,0,,2024-04-12_11h00.05.896,replicate_nsd,2023.2.3,60.621123668658804,2024-04-12 11h00.20.565107 -0400,
images/24_28 copy 5.jpg,62,0,0,0,0,"[9, 19, 29, 39, 49, 59, 68, 69, 70, 71]",,,,,0,62,62,62,247.75038393399882,,,,,,,,,,,,,,,,,,,,,,,,,,,,,,,,,,,,,,,,247.7445906469984,247.7446501250015,247.74465692100057,247.75038393399882,247.75038393399882,247.93658601800053,247.93658601800053,248.7013365720013,248.7013365720013,248.7013365720013,248.7013365720013,248.68149463599912,None,0,None,248.6820384019993,248.68208975000016,None,248.68220921000102,248.68964195900116,None,248.68973458999972,248.68975941600002,None,,,,,,,,,,,,,,,,,,,1,001,0,,2024-04-12_11h00.05.896,replicate_nsd,2023.2.3,60.621123668658804,2024-04-12 11h00.20.565107 -0400,
images/pair08 copy 7.jpg,63,0,0,0,0,"[9, 19, 29, 39, 49, 59, 68, 69, 70, 71]",,,,,0,63,63,63,248.7013365720013,,,,,,,,,,,,,,,,,,,,,,,,,,,,,,,,,,,,,,,,248.69000765500095,248.69008150900117,248.69008951700016,248.7013365720013,248.7013365720013,248.89607914500084,248.89607914500084,249.6884593959985,249.6884593959985,249.6884593959985,249.6884593959985,249.66759656000067,None,0,None,249.6681060689989,249.66815303100157,None,249.66826985399894,249.67571130500073,None,249.67580470100074,249.67582967699855,None,,,,,,,,,,,,,,,,,,,1,001,0,,2024-04-12_11h00.05.896,replicate_nsd,2023.2.3,60.621123668658804,2024-04-12 11h00.20.565107 -0400,
images/21_40.jpg,64,0,0,0,0,"[9, 19, 29, 39, 49, 59, 68, 69, 70, 71]",,,,,0,64,64,64,249.6884593959985,,,,,,,,,,,,,,,,,,,,,,,,,,,,,,,,,,,,,,,,249.67608077000114,249.67615127099998,249.67615924300117,249.6884593959985,249.6884593959985,249.90007239699844,249.90007239699844,250.59609459000058,250.59609459000058,250.59609459000058,250.59609459000058,250.57675068200115,None,0,None,250.5772602420002,250.57730989600168,None,250.577431351001,250.5846154589999,None,250.58470847200078,250.58473291200062,None,,,,,,,,,,,,,,,,,,,1,001,0,,2024-04-12_11h00.05.896,replicate_nsd,2023.2.3,60.621123668658804,2024-04-12 11h00.20.565107 -0400,
images/9_28 copy 6.jpg,65,0,0,0,0,"[9, 19, 29, 39, 49, 59, 68, 69, 70, 71]",,,,,0,65,65,65,250.59609459000058,,,,,,,,,,,,,,,,,,,,,,,,,,,,,,,,,,,,,,,,250.58498409499953,250.5850571580013,250.58506512199892,250.59609459000058,250.59609459000058,250.84242936100054,250.84242936100054,251.60790330700183,251.60790330700183,251.60790330700183,251.60790330700183,251.59668689300088,None,0,None,251.59692050100057,251.59694244899947,None,251.5969969079997,251.60206460100017,None,251.6021439460019,251.60216522200062,None,,,,,,,,,,,,,,,,,,,1,001,0,,2024-04-12_11h00.05.896,replicate_nsd,2023.2.3,60.621123668658804,2024-04-12 11h00.20.565107 -0400,
images/22_0 copy 6.jpg,66,0,0,0,0,"[9, 19, 29, 39, 49, 59, 68, 69, 70, 71]",,,,,0,66,66,66,251.60790330700183,,,,,,,,,,,,,,,,,,,,,,,,,,,,,,,,,,,,,,,,251.60238204399866,251.60244348500055,251.60245038799985,251.60790330700183,251.60790330700183,251.79086099800043,251.79086099800043,252.54989420399943,252.54989420399943,252.54989420399943,252.54989420399943,252.53605035900182,None,0,None,252.53631861100075,252.53634371500084,None,252.53640728100072,252.54183493099845,None,252.5419172059992,252.54193934399882,None,,,,,,,,,,,,,,,,,,,1,001,0,,2024-04-12_11h00.05.896,replicate_nsd,2023.2.3,60.621123668658804,2024-04-12 11h00.20.565107 -0400,
images/pair07 copy.jpg,67,0,0,0,0,"[9, 19, 29, 39, 49, 59, 68, 69, 70, 71]",,,,,0,67,67,67,252.54989420399943,,,,,,,,,,,,,,,,,,,,,,,,,,,,,,,,,,,,,,,,252.54216005800117,252.54222092700002,252.54222804299934,252.54989420399943,252.54989420399943,252.75812631200097,252.75812631200097,253.5668998930014,253.5668998930014,253.5668998930014,253.5668998930014,253.55357673400067,None,0,None,253.55390954500035,253.55393946500044,None,253.5540139859986,253.55996483800118,None,253.56004749099884,253.56006977300058,None,,,,,,,,,,,,,,,,,,,1,001,0,,2024-04-12_11h00.05.896,replicate_nsd,2023.2.3,60.621123668658804,2024-04-12 11h00.20.565107 -0400,
images/blank.jpg,68,1,0,0,0,"[9, 19, 29, 39, 49, 59, 68, 69, 70, 71]",,,,,0,68,68,68,253.5668998930014,,,,,,,,,,,,,,,,,,,,,,,,,,,,,,,,,,,,,,,,253.56029129400122,253.56035593300112,253.5603630959995,,,,,,,,,253.56274258700068,None,0,None,253.56297197700042,254.38836399900174,None,254.38846905800165,254.39412977300162,None,254.39423267899838,254.39425450600174,None,,,253.5668998930014,253.5668998930014,254.39980535499853,254.39980535499853,,,,,,,,,,,,,1,001,0,,2024-04-12_11h00.05.896,replicate_nsd,2023.2.3,60.621123668658804,2024-04-12 11h00.20.565107 -0400,
images/blank.jpg,69,1,0,0,0,"[9, 19, 29, 39, 49, 59, 68, 69, 70, 71]",,,,,0,69,69,69,254.39980535499853,,,,,,,,,,,,,,,,,,,,,,,,,,,,,,,,,,,,,,,,254.39447966700027,254.39455399299914,254.3945610080009,,,,,,,,,254.39607687600073,None,0,None,254.39628652800093,255.23342473899902,None,255.23353285900157,255.23357221699916,None,255.23364614000093,255.23366804300167,None,,,254.39980535499853,254.39980535499853,255.23902692699994,255.23902692699994,,,,,,,,,,,,,1,001,0,,2024-04-12_11h00.05.896,replicate_nsd,2023.2.3,60.621123668658804,2024-04-12 11h00.20.565107 -0400,
images/blank.jpg,70,1,0,0,0,"[9, 19, 29, 39, 49, 59, 68, 69, 70, 71]",,,,,0,70,70,70,255.23902692699994,,,,,,,,,,,,,,,,,,,,,,,,,,,,,,,,,,,,,,,,255.2338945800002,255.2339609720002,255.23396777000016,,,,,,,,,255.23549164400174,None,0,None,255.23569577599847,256.0840827510001,None,256.0842567430009,256.08431315100097,None,256.0844195819991,256.0844496259997,None,,,255.23902692699994,255.23902692699994,256.0920569769987,256.0920569769987,,,,,,,,,,,,,1,001,0,,2024-04-12_11h00.05.896,replicate_nsd,2023.2.3,60.621123668658804,2024-04-12 11h00.20.565107 -0400,
images/blank.jpg,71,1,0,1,0,"[9, 19, 29, 39, 49, 59, 68, 69, 70, 71]",,,,,0,71,71,71,256.0920569769987,,,,,,,,,,,,,,,,,,,,,,,,,,,,,,,,,,,,,,,,256.0847665090005,256.08486352800173,256.08487379000144,,,,,,,,,256.08725309500005,None,0,None,256.08757623600104,256.86850184500145,None,256.868599944999,296.5095584080009,lctrl,296.5102621799997,304.6673747099994,5,,,256.0920569769987,256.0920569769987,256.8712819760003,256.8712819760003,,,260.0749361800008,260.0749361800008,36.4333037710021,None,296.51466075999997,296.51466075999997,8.137599868998223,None,,,1,001,0,,2024-04-12_11h00.05.896,replicate_nsd,2023.2.3,60.621123668658804,2024-04-12 11h00.20.565107 -0400,
images/12_40.jpg,0,0,1,0,1,"[9, 19, 31, 42, 56, 68, 69, 70, 71]",,,,,0,72,72,72,304.68229038999925,,,,,,,,,,,,,,,,,,,,,,,,,,,,,,,,,,,,,,,,304.6682447409985,304.6683214299992,304.668328623,304.68229038999925,304.68229038999925,305.68432715699964,305.68432715699964,308.6827477859988,308.6827477859988,308.6827477859988,308.6827477859988,308.66711315000066,2,1,"['3', '2', 'up', 'lctrl']",308.66793943000084,308.66796314300154,None,308.668016773001,308.6680496629997,None,308.66810364699995,308.66812153999854,None,"[1.9780151140003, 2.5261646200015093, 3.6300080559994967, 3.6300080559994967]","[None, None, None, None]",,,,,,,,,,,,,,,1.5241268230020069,None,1,001,0,,2024-04-12_11h00.05.896,replicate_nsd,2023.2.3,60.621123668658804,2024-04-12 11h00.20.565107 -0400,
images/10_0 copy 6.jpg,1,0,0,0,1,"[9, 19, 31, 42, 56, 68, 69, 70, 71]",,,,,0,73,73,73,308.6827477859988,,,,,,,,,,,,,,,,,,,,,,,,,,,,,,,,,,,,,,,,308.6683048679988,308.6683988629993,308.6684047540002,308.6827477859988,308.6827477859988,309.68186482799865,309.68186482799865,312.682721186,312.682721186,312.682721186,312.682721186,312.66892913500124,None,0,None,312.66924502999973,312.6692721690015,None,312.669337612002,312.6751618669987,None,312.67526148199977,312.6752836429987,None,,,,,,,,,,,,,,,,,,,1,001,0,,2024-04-12_11h00.05.896,replicate_nsd,2023.2.3,60.621123668658804,2024-04-12 11h00.20.565107 -0400,
images/16_0 copy.jpg,2,0,0,0,1,"[9, 19, 31, 42, 56, 68, 69, 70, 71]",,,,,0,74,74,74,312.682721186,,,,,,,,,,,,,,,,,,,,,,,,,,,,,,,,,,,,,,,,312.67550316599954,312.6755789359995,312.6755860539997,312.682721186,312.682721186,313.6832385919988,313.6832385919988,316.6814876720018,316.6814876720018,316.6814876720018,316.6814876720018,316.6661630080016,None,0,None,316.66668612300055,316.6667229250015,None,316.66681482499916,316.67390166599944,None,316.67401442900155,316.6740414699998,None,,,,,,,,,,,,,,,,,,,1,001,0,,2024-04-12_11h00.05.896,replicate_nsd,2023.2.3,60.621123668658804,2024-04-12 11h00.20.565107 -0400,
images/20_12.jpg,3,0,0,0,1,"[9, 19, 31, 42, 56, 68, 69, 70, 71]",,,,,0,75,75,75,316.6814876720018,,,,,,,,,,,,,,,,,,,,,,,,,,,,,,,,,,,,,,,,316.6743079150001,316.67439147700134,316.67439984500015,316.6814876720018,316.6814876720018,317.6827301250014,317.6827301250014,320.68232712700046,320.68232712700046,320.68232712700046,320.68232712700046,320.6675572890017,None,0,"['up', 'lctrl']",320.66812950000167,320.6681667189987,None,320.6682543019997,320.6750016279984,None,320.6751012220011,320.67512659099884,None,"[3.3108177139984036, 3.3108177139984036]","[None, None]",,,,,,,,,,,,,,,,,1,001,0,,2024-04-12_11h00.05.896,replicate_nsd,2023.2.3,60.621123668658804,2024-04-12 11h00.20.565107 -0400,
images/19_40 copy 3.jpg,4,0,1,0,1,"[9, 19, 31, 42, 56, 68, 69, 70, 71]",,,,,0,76,76,76,320.68232712700046,,,,,,,,,,,,,,,,,,,,,,,,,,,,,,,,,,,,,,,,320.67538662600055,320.675461335999,320.67546981000123,320.68232712700046,320.68232712700046,321.6831724879994,321.6831724879994,324.6821451249998,324.6821451249998,324.6821451249998,324.6821451249998,324.66663777400026,None,0,"['p', 's', 'y', 'c', 'h', 'o', 'p', 'y', 'space']",324.6673765380001,324.6674224749986,None,324.66753324800084,324.6743199400007,None,324.67443506199925,324.67446142599874,None,"[2.4260258479989716, 2.605929258999822, 2.7659949449989654, 2.865983989999222, 2.9580074330006028, 3.273980091998965, 3.485977347998414, 3.745957858998736, 3.8579817040008493]","[None, None, None, None, None, None, None, None, None]",,,,,,,,,,,,,,,,,1,001,0,,2024-04-12_11h00.05.896,replicate_nsd,2023.2.3,60.621123668658804,2024-04-12 11h00.20.565107 -0400,
images/11_0 copy 4.jpg,5,0,0,0,1,"[9, 19, 31, 42, 56, 68, 69, 70, 71]",,,,,0,77,77,77,324.6821451249998,,,,,,,,,,,,,,,,,,,,,,,,,,,,,,,,,,,,,,,,324.6747314189997,324.67485933900025,324.6748682090001,324.6821451249998,324.6821451249998,325.6819431160002,325.6819431160002,328.6841230099999,328.6841230099999,328.6841230099999,328.6841230099999,328.66674375799994,None,0,"['e', 't', 'space', 'r', 'i', 'd', 'space', 'o', 'f', 'space', 'b', 'o', 'r', 'd', 'e', 'r', 's', 'backspace', 'backspace']",328.66749799600075,328.66754475199923,None,328.6676572889992,328.67507505699905,None,328.6751752199998,328.6752012329998,None,"[0.15816920100041898, 0.33819261499957065, 0.45416651599953184, 0.5861524769970856, 0.7181933379979455, 0.830158508997556, 0.9661686649997137, 1.010145731997909, 1.1061567509968881, 1.27018373899773, 1.4381476050002675, 1.70217597899682, 1.7981271429998742, 2.0781647999974666, 2.1941988399994443, 2.3821533199989062, 2.61415956899873, 3.222141021000425, 3.3902064959984273]","[None, None, None, None, None, None, None, None, None, None, None, None, None, None, None, None, None, None, None]",,,,,,,,,,,,,,,,,1,001,0,,2024-04-12_11h00.05.896,replicate_nsd,2023.2.3,60.621123668658804,2024-04-12 11h00.20.565107 -0400,
images/12_0 copy 3.jpg,6,0,0,0,1,"[9, 19, 31, 42, 56, 68, 69, 70, 71]",,,,,0,78,78,78,328.6841230099999,,,,,,,,,,,,,,,,,,,,,,,,,,,,,,,,,,,,,,,,328.6754685119995,328.67554560200006,328.6755543110012,328.6841230099999,328.6841230099999,329.68336346700016,329.68336346700016,332.68146484300087,332.68146484300087,332.68146484300087,332.68146484300087,332.6686247489997,None,0,"['down', 'down', 'return']",332.66905345399937,332.66908298199996,None,332.6691457179986,332.674668898002,None,332.67475199899854,332.6747733410011,None,"[0.08018724599969573, 0.25638702799915336, 0.5082378600018274]","[None, None, None]",,,,,,,,,,,,,,,,,1,001,0,,2024-04-12_11h00.05.896,replicate_nsd,2023.2.3,60.621123668658804,2024-04-12 11h00.20.565107 -0400,
images/24_12 copy.jpg,7,0,0,0,1,"[9, 19, 31, 42, 56, 68, 69, 70, 71]",,,,,0,79,79,79,332.68146484300087,,,,,,,,,,,,,,,,,,,,,,,,,,,,,,,,,,,,,,,,332.6749919389986,332.67506900599983,332.67507628100066,332.68146484300087,332.68146484300087,333.6834687599985,333.6834687599985,336.6833537249986,336.6833537249986,336.6833537249986,336.6833537249986,336.6670836410012,None,0,None,336.66739020599925,336.6674175049993,None,336.6674848490002,336.67299154899956,None,336.6730821710007,336.6731058020014,None,,,,,,,,,,,,,,,,,,,1,001,0,,2024-04-12_11h00.05.896,replicate_nsd,2023.2.3,60.621123668658804,2024-04-12 11h00.20.565107 -0400,
images/5_28.jpg,8,0,1,0,1,"[9, 19, 31, 42, 56, 68, 69, 70, 71]",,,,,0,80,80,80,336.6833537249986,,,,,,,,,,,,,,,,,,,,,,,,,,,,,,,,,,,,,,,,336.6733284180009,336.67340176200014,336.6734089320016,336.6833537249986,336.6833537249986,337.6815744179985,337.6815744179985,340.6813210500004,340.6813210500004,340.6813210500004,340.6813210500004,340.6663715649993,None,0,None,340.6665969860005,340.66661765499884,None,340.66667039200183,340.67108874100086,None,340.67115542800093,340.67117351100023,None,,,,,,,,,,,,,,,,,,,1,001,0,,2024-04-12_11h00.05.896,replicate_nsd,2023.2.3,60.621123668658804,2024-04-12 11h00.20.565107 -0400,
images/blank.jpg,9,1,0,0,1,"[9, 19, 31, 42, 56, 68, 69, 70, 71]",,,,,0,81,81,81,340.6813210500004,,,,,,,,,,,,,,,,,,,,,,,,,,,,,,,,,,,,,,,,340.67135448499903,340.67140621499857,340.6714119790013,,,,,,,,,340.67293538300146,None,0,None,340.6730954449995,344.666162259,None,344.6663746080012,344.6739695540018,None,344.6740669460014,344.67409181399853,None,,,340.6813210500004,340.6813210500004,344.6839065759996,344.6839065759996,,,,,,,,,,,,,1,001,0,,2024-04-12_11h00.05.896,replicate_nsd,2023.2.3,60.621123668658804,2024-04-12 11h00.20.565107 -0400,
images/10_28 copy 2.jpg,10,0,0,0,1,"[9, 19, 31, 42, 56, 68, 69, 70, 71]",,,,,0,82,82,82,344.6839065759996,,,,,,,,,,,,,,,,,,,,,,,,,,,,,,,,,,,,,,,,344.67435098499845,344.67442993499935,344.67443838799954,344.6839065759996,344.6839065759996,345.68386851499963,345.68386851499963,348.6812991359984,348.6812991359984,348.6812991359984,348.6812991359984,348.6664242299994,None,0,None,348.66669603600167,348.66672291899886,None,348.66678716800016,348.66682405100073,None,348.66688641200017,348.6669069290001,None,,,,,,,,,,,,,,,,,,,1,001,0,,2024-04-12_11h00.05.896,replicate_nsd,2023.2.3,60.621123668658804,2024-04-12 11h00.20.565107 -0400,
images/7_28 copy 7.jpg,11,0,0,0,1,"[9, 19, 31, 42, 56, 68, 69, 70, 71]",,,,,0,83,83,83,348.6812991359984,,,,,,,,,,,,,,,,,,,,,,,,,,,,,,,,,,,,,,,,348.6671139220016,348.66717461900043,348.66718163100086,348.6812991359984,348.6812991359984,349.6832081100001,349.6832081100001,352.68652279199887,352.68652279199887,352.68652279199887,352.68652279199887,352.6675337500019,None,0,None,352.66805047600064,352.6680973670009,None,352.6682147270003,352.67572891700183,None,352.6758277689987,352.67585301299914,None,,,,,,,,,,,,,,,,,,,1,001,0,,2024-04-12_11h00.05.896,replicate_nsd,2023.2.3,60.621123668658804,2024-04-12 11h00.20.565107 -0400,
images/11_40 copy 5.jpg,12,0,0,0,1,"[9, 19, 31, 42, 56, 68, 69, 70, 71]",,,,,0,84,84,84,352.68652279199887,,,,,,,,,,,,,,,,,,,,,,,,,,,,,,,,,,,,,,,,352.6761135910019,352.67619086000195,352.6761992669999,352.68652279199887,352.68652279199887,353.682561095,353.682561095,356.68110267099837,356.68110267099837,356.68110267099837,356.68110267099837,356.66698804000043,None,0,None,356.6673134929988,356.6673412960008,None,356.66740839200065,356.67300898300164,None,356.6731134360016,356.6731354219992,None,,,,,,,,,,,,,,,,,,,1,001,0,,2024-04-12_11h00.05.896,replicate_nsd,2023.2.3,60.621123668658804,2024-04-12 11h00.20.565107 -0400,
images/21_0 copy.jpg,13,0,0,0,1,"[9, 19, 31, 42, 56, 68, 69, 70, 71]",,,,,0,85,85,85,356.68110267099837,,,,,,,,,,,,,,,,,,,,,,,,,,,,,,,,,,,,,,,,356.67335655400166,356.6734352029998,356.6734421889996,356.68110267099837,356.68110267099837,357.6814541999993,357.6814541999993,360.68437523800094,360.68437523800094,360.68437523800094,360.68437523800094,360.66644395500043,None,0,None,360.66695514000094,360.6670011009992,None,360.6671167249988,360.67446256100084,None,360.67456235699865,360.67458879699916,None,,,,,,,,,,,,,,,,,,,1,001,0,,2024-04-12_11h00.05.896,replicate_nsd,2023.2.3,60.621123668658804,2024-04-12 11h00.20.565107 -0400,
images/17_28 copy.jpg,14,0,0,0,1,"[9, 19, 31, 42, 56, 68, 69, 70, 71]",,,,,0,86,86,86,360.68437523800094,,,,,,,,,,,,,,,,,,,,,,,,,,,,,,,,,,,,,,,,360.67485600500004,360.6749337549991,360.6749425829985,360.68437523800094,360.68437523800094,361.68167245099903,361.68167245099903,364.68095082700165,364.68095082700165,364.68095082700165,364.68095082700165,364.6659134930014,None,0,None,364.66642375399897,364.6664708370008,None,364.6665872379999,364.6740410279999,None,364.6741416260011,364.6741680790001,None,,,,,,,,,,,,,,,,,,,1,001,0,,2024-04-12_11h00.05.896,replicate_nsd,2023.2.3,60.621123668658804,2024-04-12 11h00.20.565107 -0400,
images/22_28 copy 3.jpg,15,0,0,0,1,"[9, 19, 31, 42, 56, 68, 69, 70, 71]",,,,,0,87,87,87,364.68095082700165,,,,,,,,,,,,,,,,,,,,,,,,,,,,,,,,,,,,,,,,364.6744343749997,364.67451330900076,364.67452199000036,364.68095082700165,364.68095082700165,365.6827117059984,365.6827117059984,368.68371733800086,368.68371733800086,368.68371733800086,368.68371733800086,368.66651085899866,None,0,"['up', 'lctrl']",368.66722419000143,368.66727187799916,None,368.66738560199883,368.6744471460006,None,368.67454555600125,368.67457125000146,None,"[2.6435495039986563, 2.6435495039986563]","[None, None]",,,,,,,,,,,,,,,,,1,001,0,,2024-04-12_11h00.05.896,replicate_nsd,2023.2.3,60.621123668658804,2024-04-12 11h00.20.565107 -0400,
images/7_28 copy 3.jpg,16,0,0,0,1,"[9, 19, 31, 42, 56, 68, 69, 70, 71]",,,,,0,88,88,88,368.68371733800086,,,,,,,,,,,,,,,,,,,,,,,,,,,,,,,,,,,,,,,,368.67483281800014,368.6749108660006,368.67491954900106,368.68371733800086,368.68371733800086,369.6844467730007,369.6844467730007,372.6845012999984,372.6845012999984,372.6845012999984,372.6845012999984,372.668523843,None,0,"['up', 'lctrl']",372.66929516299933,372.66935275300057,None,372.6694725640009,372.6772141010006,None,372.67732715700186,372.67735415599964,None,"[1.0365357609989587, 1.0365357609989587]","[None, None]",,,,,,,,,,,,,,,,,1,001,0,,2024-04-12_11h00.05.896,replicate_nsd,2023.2.3,60.621123668658804,2024-04-12 11h00.20.565107 -0400,
images/21_28 copy 6.jpg,17,0,0,0,1,"[9, 19, 31, 42, 56, 68, 69, 70, 71]",,,,,0,89,89,89,372.6845012999984,,,,,,,,,,,,,,,,,,,,,,,,,,,,,,,,,,,,,,,,372.67762259200026,372.6777096219994,372.67771831999926,372.6845012999984,372.6845012999984,373.68268045999866,373.68268045999866,376.6840359580019,376.6840359580019,376.6840359580019,376.6840359580019,376.6666643440003,None,0,None,376.66717066600177,376.66721671599953,None,376.6673327390017,376.67468217699934,None,376.6747790650006,376.6748046350003,None,,,,,,,,,,,,,,,,,,,1,001,0,,2024-04-12_11h00.05.896,replicate_nsd,2023.2.3,60.621123668658804,2024-04-12 11h00.20.565107 -0400,
images/10_28 copy 5.jpg,18,0,0,0,1,"[9, 19, 31, 42, 56, 68, 69, 70, 71]",,,,,0,90,90,90,376.6840359580019,,,,,,,,,,,,,,,,,,,,,,,,,,,,,,,,,,,,,,,,376.6750623959997,376.6751378379995,376.6751463699984,376.6840359580019,376.6840359580019,377.68279204899954,377.68279204899954,380.68180745000063,380.68180745000063,380.68180745000063,380.68180745000063,380.6670631900015,None,0,None,380.6674780059984,380.66751649599973,None,380.66760966199945,380.67381279799883,None,380.6738968870013,380.67391804100043,None,,,,,,,,,,,,,,,,,,,1,001,0,,2024-04-12_11h00.05.896,replicate_nsd,2023.2.3,60.621123668658804,2024-04-12 11h00.20.565107 -0400,
images/blank.jpg,19,1,0,0,1,"[9, 19, 31, 42, 56, 68, 69, 70, 71]",,,,,0,91,91,91,380.68180745000063,,,,,,,,,,,,,,,,,,,,,,,,,,,,,,,,,,,,,,,,380.67413548900004,380.6742025169988,380.6742094069996,,,,,,,,,380.67583411599844,None,0,None,380.6760278840011,384.667344974001,lcommand,384.66759765900133,384.67306303700025,None,384.67314892300055,384.67317048100085,None,,,380.68180745000063,380.68180745000063,384.6834130399984,384.6834130399984,1.698505344997102,None,,,,,,,,,,,1,001,0,,2024-04-12_11h00.05.896,replicate_nsd,2023.2.3,60.621123668658804,2024-04-12 11h00.20.565107 -0400,
images/10_12 copy 7.jpg,20,0,0,0,1,"[9, 19, 31, 42, 56, 68, 69, 70, 71]",,,,,0,92,92,92,384.6834130399984,,,,,,,,,,,,,,,,,,,,,,,,,,,,,,,,,,,,,,,,384.67339325899957,384.6734643939999,384.6734715530001,384.6834130399984,384.6834130399984,385.68285341700175,385.68285341700175,388.6820653319992,388.6820653319992,388.6820653319992,388.6820653319992,388.66616242500095,None,0,"['b', 'l', 'a', 'n', 'k', 'return']",388.6668846930006,388.6669340760018,None,388.6670479630011,388.6671127059999,None,388.6672261929998,388.6672621559992,None,"[1.057117336000374, 1.336879713999224, 1.4888724609991186, 1.6208349910011748, 1.8408323000003293, 2.1048393589990155]","[None, None, None, None, None, None]",,,,,,,,,,,,,,,,,1,001,0,,2024-04-12_11h00.05.896,replicate_nsd,2023.2.3,60.621123668658804,2024-04-12 11h00.20.565107 -0400,
images/22_28 copy 6.jpg,21,0,0,0,1,"[9, 19, 31, 42, 56, 68, 69, 70, 71]",,,,,0,93,93,93,388.6820653319992,,,,,,,,,,,,,,,,,,,,,,,,,,,,,,,,,,,,,,,,388.6676378939992,388.6677496379998,388.66776830600065,388.6820653319992,388.6820653319992,389.6826668520007,389.6826668520007,392.6843826830009,392.6843826830009,392.6843826830009,392.6843826830009,392.66636137000023,None,0,None,392.6668842020008,392.66693516500163,None,392.6670520629996,392.67469325300044,None,392.67478966400085,392.6748152830005,None,,,,,,,,,,,,,,,,,,,1,001,0,,2024-04-12_11h00.05.896,replicate_nsd,2023.2.3,60.621123668658804,2024-04-12 11h00.20.565107 -0400,
images/20_0 copy 3.jpg,22,0,0,0,1,"[9, 19, 31, 42, 56, 68, 69, 70, 71]",,,,,0,94,94,94,392.6843826830009,,,,,,,,,,,,,,,,,,,,,,,,,,,,,,,,,,,,,,,,392.6750729609994,392.6751506319997,392.67515908100177,392.6843826830009,392.6843826830009,393.6819079779998,393.6819079779998,396.70475323999926,396.70475323999926,396.70475323999926,396.70475323999926,396.6874426059985,None,0,None,396.6877733170004,396.6877965909989,None,396.68785361100163,396.6935799890016,None,396.69368568999926,396.69370624600197,None,,,,,,,,,,,,,,,,,,,1,001,0,,2024-04-12_11h00.05.896,replicate_nsd,2023.2.3,60.621123668658804,2024-04-12 11h00.20.565107 -0400,
images/11_28 copy 6.jpg,23,0,0,0,1,"[9, 19, 31, 42, 56, 68, 69, 70, 71]",,,,,0,95,95,95,396.70475323999926,,,,,,,,,,,,,,,,,,,,,,,,,,,,,,,,,,,,,,,,396.69391287300095,396.69404146599845,396.694047975001,396.70475323999926,396.70475323999926,397.6988125280004,397.6988125280004,400.7012372979989,400.7012372979989,400.7012372979989,400.7012372979989,400.68261314399933,None,0,None,400.6831104470002,400.6831659999989,None,400.68329078999886,400.6904282830001,None,400.69053416500174,400.69056013500085,None,,,,,,,,,,,,,,,,,,,1,001,0,,2024-04-12_11h00.05.896,replicate_nsd,2023.2.3,60.621123668658804,2024-04-12 11h00.20.565107 -0400,
images/pair06 copy 3.jpg,24,0,0,0,1,"[9, 19, 31, 42, 56, 68, 69, 70, 71]",,,,,0,96,96,96,400.7012372979989,,,,,,,,,,,,,,,,,,,,,,,,,,,,,,,,,,,,,,,,400.69081877400095,400.69089825300034,400.69090647600024,400.7012372979989,400.7012372979989,401.69935011399866,401.69935011399866,404.70191357600197,404.70191357600197,404.70191357600197,404.70191357600197,404.68475177800065,None,0,"['up', 'lctrl']",404.68546693700046,404.68551349100017,None,404.6856453750006,404.6926555380014,None,404.6927569840009,404.6927827489999,None,"[1.8670538570004283, 1.8670538570004283]","[None, None]",,,,,,,,,,,,,,,,,1,001,0,,2024-04-12_11h00.05.896,replicate_nsd,2023.2.3,60.621123668658804,2024-04-12 11h00.20.565107 -0400,
images/9_40 copy 3.jpg,25,0,0,0,1,"[9, 19, 31, 42, 56, 68, 69, 70, 71]",,,,,0,97,97,97,404.70191357600197,,,,,,,,,,,,,,,,,,,,,,,,,,,,,,,,,,,,,,,,404.69304241899954,404.69312343600177,404.6931316129994,404.70191357600197,404.70191357600197,405.7043397359994,405.7043397359994,406.7708581959996,406.7708581959996,406.7708581959996,406.7708581959996,406.75397058900126,None,0,"['up', 'lctrl']",406.7543762509995,406.7544023779992,None,406.7544643190013,406.7598715669992,None,406.759962868,406.75998508799967,None,"[1.994340399000066, 1.994340399000066]","[None, None]",,,,,,,,,,,,,,,,,1,001,0,,2024-04-12_11h00.05.896,replicate_nsd,2023.2.3,60.621123668658804,2024-04-12 11h00.20.565107 -0400,
images/19_12 copy 3.jpg,26,0,0,0,1,"[9, 19, 31, 42, 56, 68, 69, 70, 71]",,,,,0,98,98,98,406.7708581959996,,,,,,,,,,,,,,,,,,,,,,,,,,,,,,,,,,,,,,,,406.76020961999893,406.7602818539999,406.760288968002,406.7708581959996,406.7708581959996,407.02665993100163,407.02665993100163,407.7256232079999,407.7256232079999,407.7256232079999,407.7256232079999,407.71329070900174,None,0,None,407.7135569540005,407.7135825330006,None,407.7136450290018,407.7192808330001,None,407.7193672829999,407.71938932899866,None,,,,,,,,,,,,,,,,,,,1,001,0,,2024-04-12_11h00.05.896,replicate_nsd,2023.2.3,60.621123668658804,2024-04-12 11h00.20.565107 -0400,
images/17_12 copy 3.jpg,27,0,0,0,1,"[9, 19, 31, 42, 56, 68, 69, 70, 71]",,,,,0,99,99,99,407.7256232079999,,,,,,,,,,,,,,,,,,,,,,,,,,,,,,,,,,,,,,,,407.7196059400012,407.7196695540006,407.7196766240013,407.7256232079999,407.7256232079999,407.90598546600086,407.90598546600086,408.58037816399883,408.58037816399883,408.58037816399883,408.58037816399883,408.56770162500106,None,0,None,408.56792821699855,408.567949196,None,408.56800099999964,408.5730061610011,None,408.573152601999,408.57318535000013,None,,,,,,,,,,,,,,,,,,,1,001,0,,2024-04-12_11h00.05.896,replicate_nsd,2023.2.3,60.621123668658804,2024-04-12 11h00.20.565107 -0400,
images/pair02 copy.jpg,28,0,0,0,1,"[9, 19, 31, 42, 56, 68, 69, 70, 71]",,,,,0,100,100,100,408.58037816399883,,,,,,,,,,,,,,,,,,,,,,,,,,,,,,,,,,,,,,,,408.5733684350016,408.5734213780015,408.5734270879984,408.58037816399883,408.58037816399883,408.76410025600126,408.76410025600126,410.048719147002,410.048719147002,410.048719147002,410.048719147002,410.0334823109988,None,0,None,410.0337781999988,410.03380504600136,None,410.03386960100033,410.04057371700037,None,410.04066683199926,410.0406893729996,None,,,,,,,,,,,,,,,,,,,1,001,0,,2024-04-12_11h00.05.896,replicate_nsd,2023.2.3,60.621123668658804,2024-04-12 11h00.20.565107 -0400,
images/23_0 copy.jpg,29,0,0,0,1,"[9, 19, 31, 42, 56, 68, 69, 70, 71]",,,,,0,101,101,101,410.048719147002,,,,,,,,,,,,,,,,,,,,,,,,,,,,,,,,,,,,,,,,410.040915829999,410.0409892550015,410.0409961350015,410.048719147002,410.048719147002,411.0496838370018,411.0496838370018,414.05206040199846,414.05206040199846,414.05206040199846,414.05206040199846,414.0321326080011,None,0,None,414.0325619510004,414.03259846999936,None,414.03269933000047,414.0398338289997,None,414.0399375929992,414.03996323400133,None,,,,,,,,,,,,,,,,,,,1,001,0,,2024-04-12_11h00.05.896,replicate_nsd,2023.2.3,60.621123668658804,2024-04-12 11h00.20.565107 -0400,
images/15_40 copy 4.jpg,30,0,0,0,1,"[9, 19, 31, 42, 56, 68, 69, 70, 71]",,,,,0,102,102,102,414.05206040199846,,,,,,,,,,,,,,,,,,,,,,,,,,,,,,,,,,,,,,,,414.0402519160016,414.0403385110003,414.0403479910019,414.05206040199846,414.05206040199846,415.047826258,415.047826258,418.0526219710009,418.0526219710009,418.0526219710009,418.0526219710009,418.03175440999985,None,0,None,418.0320346430017,418.0320607799986,None,418.0321255109993,418.03771135200077,None,418.03779774899886,418.03781990100106,None,,,,,,,,,,,,,,,,,,,1,001,0,,2024-04-12_11h00.05.896,replicate_nsd,2023.2.3,60.621123668658804,2024-04-12 11h00.20.565107 -0400,
images/blank.jpg,31,1,0,0,1,"[9, 19, 31, 42, 56, 68, 69, 70, 71]",,,,,0,103,103,103,418.0526219710009,,,,,,,,,,,,,,,,,,,,,,,,,,,,,,,,,,,,,,,,418.03804393300015,418.0381135179996,418.03812077600014,,,,,,,,,418.0398152650014,None,0,None,418.0400113370015,422.03133313999933,None,422.0314519499989,422.03617472800033,None,422.036244289,422.03626183899905,None,,,418.0526219710009,418.0526219710009,422.0480682419984,422.0480682419984,,,,,,,,,,,,,1,001,0,,2024-04-12_11h00.05.896,replicate_nsd,2023.2.3,60.621123668658804,2024-04-12 11h00.20.565107 -0400,
images/20_12.jpg,32,0,1,0,1,"[9, 19, 31, 42, 56, 68, 69, 70, 71]",,,,,0,104,104,104,422.0480682419984,,,,,,,,,,,,,,,,,,,,,,,,,,,,,,,,,,,,,,,,422.0364436410018,422.0364988809997,422.036504669999,422.0480682419984,422.0480682419984,423.05032251100056,423.05032251100056,426.05252802999894,426.05252802999894,426.05252802999894,426.05252802999894,426.0360077240002,None,0,None,426.0362930679985,426.03631953700096,None,426.03638290600065,426.0364454390001,None,426.0365511579985,426.0365786629991,None,,,,,,,,,,,,,,,,,,,1,001,0,,2024-04-12_11h00.05.896,replicate_nsd,2023.2.3,60.621123668658804,2024-04-12 11h00.20.565107 -0400,
images/20_28 copy.jpg,33,0,0,0,1,"[9, 19, 31, 42, 56, 68, 69, 70, 71]",,,,,0,105,105,105,426.05252802999894,,,,,,,,,,,,,,,,,,,,,,,,,,,,,,,,,,,,,,,,426.036872298002,426.0369394369991,426.0369466990014,426.05252802999894,426.05252802999894,427.04883487199913,427.04883487199913,430.04817719399944,430.04817719399944,430.04817719399944,430.04817719399944,430.03147531799914,None,0,None,430.0317004770004,430.03172129499944,None,430.03177321399926,430.0362010179997,None,430.03626802299914,430.03628639900126,None,,,,,,,,,,,,,,,,,,,1,001,0,,2024-04-12_11h00.05.896,replicate_nsd,2023.2.3,60.621123668658804,2024-04-12 11h00.20.565107 -0400,
images/15_28 copy 6.jpg,34,0,0,0,1,"[9, 19, 31, 42, 56, 68, 69, 70, 71]",,,,,0,106,106,106,430.04817719399944,,,,,,,,,,,,,,,,,,,,,,,,,,,,,,,,,,,,,,,,430.03646599700005,430.0365171919984,430.03652298700035,430.04817719399944,430.04817719399944,431.0483011670003,431.0483011670003,434.05315683400113,434.05315683400113,434.05315683400113,434.05315683400113,434.0348643569996,None,0,None,434.0353707059985,434.0354172119987,None,434.03553183999975,434.0429388010016,None,434.0430409110013,434.0430663110019,None,,,,,,,,,,,,,,,,,,,1,001,0,,2024-04-12_11h00.05.896,replicate_nsd,2023.2.3,60.621123668658804,2024-04-12 11h00.20.565107 -0400,
images/pair10 copy 4.jpg,35,0,0,0,1,"[9, 19, 31, 42, 56, 68, 69, 70, 71]",,,,,0,107,107,107,434.05315683400113,,,,,,,,,,,,,,,,,,,,,,,,,,,,,,,,,,,,,,,,434.04332723100015,434.0434057120001,434.0434141859987,434.05315683400113,434.05315683400113,435.0546513340014,435.0546513340014,438.04748913599906,438.04748913599906,438.04748913599906,438.04748913599906,438.03069156999845,None,0,None,438.03096705699863,438.030992496002,None,438.03105627400146,438.0363894280017,None,438.03646830900107,438.0364888699987,None,,,,,,,,,,,,,,,,,,,1,001,0,,2024-04-12_11h00.05.896,replicate_nsd,2023.2.3,60.621123668658804,2024-04-12 11h00.20.565107 -0400,
images/16_40 copy 2.jpg,36,0,0,0,1,"[9, 19, 31, 42, 56, 68, 69, 70, 71]",,,,,0,108,108,108,438.04748913599906,,,,,,,,,,,,,,,,,,,,,,,,,,,,,,,,,,,,,,,,438.03671526299877,438.03677545900064,438.03678237799977,438.04748913599906,438.04748913599906,439.04853237800125,439.04853237800125,442.0493413510012,442.0493413510012,442.0493413510012,442.0493413510012,442.0319931000013,None,0,None,442.0324829980018,442.0325284210012,None,442.03264284000034,442.0401692910018,None,442.04026654500194,442.04029262399854,None,,,,,,,,,,,,,,,,,,,1,001,0,,2024-04-12_11h00.05.896,replicate_nsd,2023.2.3,60.621123668658804,2024-04-12 11h00.20.565107 -0400,
images/pair07 copy 5.jpg,37,0,0,0,1,"[9, 19, 31, 42, 56, 68, 69, 70, 71]",,,,,0,109,109,109,442.0493413510012,,,,,,,,,,,,,,,,,,,,,,,,,,,,,,,,,,,,,,,,442.04054978099884,442.0406251079985,442.0406336769993,442.0493413510012,442.0493413510012,443.0492907150001,443.0492907150001,446.04705530499996,446.04705530499996,446.04705530499996,446.04705530499996,446.0329131239996,None,0,None,446.0331808939991,446.03320552900186,None,446.033267138002,446.03863306399944,None,446.0387121640015,446.038733243,None,,,,,,,,,,,,,,,,,,,1,001,0,,2024-04-12_11h00.05.896,replicate_nsd,2023.2.3,60.621123668658804,2024-04-12 11h00.20.565107 -0400,
images/15_0 copy 4.jpg,38,0,0,0,1,"[9, 19, 31, 42, 56, 68, 69, 70, 71]",,,,,0,110,110,110,446.04705530499996,,,,,,,,,,,,,,,,,,,,,,,,,,,,,,,,,,,,,,,,446.0389472780007,446.03900926200004,446.03901622299963,446.04705530499996,446.04705530499996,447.04835624800035,447.04835624800035,450.0528594979987,450.0528594979987,450.0528594979987,450.0528594979987,450.03466313800163,None,0,None,450.03517068200017,450.0352172029998,None,450.0353325389988,450.0428136720002,None,450.0429095399995,450.04293550700095,None,,,,,,,,,,,,,,,,,,,1,001,0,,2024-04-12_11h00.05.896,replicate_nsd,2023.2.3,60.621123668658804,2024-04-12 11h00.20.565107 -0400,
images/pair16 copy 3.jpg,39,0,0,0,1,"[9, 19, 31, 42, 56, 68, 69, 70, 71]",,,,,0,111,111,111,450.0528594979987,,,,,,,,,,,,,,,,,,,,,,,,,,,,,,,,,,,,,,,,450.0431907179991,450.0432657849997,450.0432744050013,450.0528594979987,450.0528594979987,451.04837228999895,451.04837228999895,454.05061754599956,454.05061754599956,454.05061754599956,454.05061754599956,454.03280865600027,None,0,None,454.03331141599847,454.03335788700133,None,454.0334738749989,454.0408803600003,None,454.0409759760005,454.04100137299974,None,,,,,,,,,,,,,,,,,,,1,001,0,,2024-04-12_11h00.05.896,replicate_nsd,2023.2.3,60.621123668658804,2024-04-12 11h00.20.565107 -0400,
images/9_12 copy 4.jpg,40,0,0,0,1,"[9, 19, 31, 42, 56, 68, 69, 70, 71]",,,,,0,112,112,112,454.05061754599956,,,,,,,,,,,,,,,,,,,,,,,,,,,,,,,,,,,,,,,,454.0412563690006,454.04133114100114,454.04133958799866,454.05061754599956,454.05061754599956,455.04879491700194,455.04879491700194,458.05258768099884,458.05258768099884,458.05258768099884,458.05258768099884,458.03540241500014,None,0,None,458.0359614109984,458.0360314339996,None,458.03618908499993,458.0438996849989,None,458.04399188499883,458.0440159179998,None,,,,,,,,,,,,,,,,,,,1,001,0,,2024-04-12_11h00.05.896,replicate_nsd,2023.2.3,60.621123668658804,2024-04-12 11h00.20.565107 -0400,
images/pair14.jpg,41,0,0,0,1,"[9, 19, 31, 42, 56, 68, 69, 70, 71]",,,,,0,113,113,113,458.05258768099884,,,,,,,,,,,,,,,,,,,,,,,,,,,,,,,,,,,,,,,,458.04426494400104,458.0443481910006,458.04435657900103,458.05258768099884,458.05258768099884,459.0493364110007,459.0493364110007,462.04780475200096,462.04780475200096,462.04780475200096,462.04780475200096,462.0318770949998,None,0,None,462.03226938700027,462.03230525899926,None,462.0323933639993,462.03994096500173,None,462.0400357539984,462.0400611719997,None,,,,,,,,,,,,,,,,,,,1,001,0,,2024-04-12_11h00.05.896,replicate_nsd,2023.2.3,60.621123668658804,2024-04-12 11h00.20.565107 -0400,
images/blank.jpg,42,1,0,0,1,"[9, 19, 31, 42, 56, 68, 69, 70, 71]",,,,,0,114,114,114,462.04780475200096,,,,,,,,,,,,,,,,,,,,,,,,,,,,,,,,,,,,,,,,462.0403135029992,462.04038816400134,462.04039663000003,,,,,,,,,462.04318467399935,None,0,None,462.0434562949995,466.0324044779991,None,466.032600999999,466.0400075789985,None,466.04011761199945,466.0401446100004,None,,,462.04780475200096,462.04780475200096,466.0502648750007,466.0502648750007,,,,,,,,,,,,,1,001,0,,2024-04-12_11h00.05.896,replicate_nsd,2023.2.3,60.621123668658804,2024-04-12 11h00.20.565107 -0400,
images/23_12.jpg,43,0,0,0,1,"[9, 19, 31, 42, 56, 68, 69, 70, 71]",,,,,0,115,115,115,466.0502648750007,,,,,,,,,,,,,,,,,,,,,,,,,,,,,,,,,,,,,,,,466.0404082109999,466.0404881329996,466.0404966189999,466.0502648750007,466.0502648750007,467.0494534460013,467.0494534460013,470.04856679099976,470.04856679099976,470.04856679099976,470.04856679099976,470.0325985929994,None,0,None,470.0331082880002,470.0331574189986,None,470.0332758789991,470.0333417289985,None,470.0334565480007,470.03349230800086,None,,,,,,,,,,,,,,,,,,,1,001,0,,2024-04-12_11h00.05.896,replicate_nsd,2023.2.3,60.621123668658804,2024-04-12 11h00.20.565107 -0400,
images/21_40 copy 7.jpg,44,0,0,0,1,"[9, 19, 31, 42, 56, 68, 69, 70, 71]",,,,,0,116,116,116,470.04856679099976,,,,,,,,,,,,,,,,,,,,,,,,,,,,,,,,,,,,,,,,470.0338607880003,470.0339723090001,470.0339848449985,470.04856679099976,470.04856679099976,471.049385145001,471.049385145001,474.0499317899994,474.0499317899994,474.0499317899994,474.0499317899994,474.0328348280018,None,0,None,474.0332291049999,474.0332665499991,None,474.0333588069989,474.0403935559989,None,474.0404947579991,474.04052084700015,None,,,,,,,,,,,,,,,,,,,1,001,0,,2024-04-12_11h00.05.896,replicate_nsd,2023.2.3,60.621123668658804,2024-04-12 11h00.20.565107 -0400,
images/19_0.jpg,45,0,0,0,1,"[9, 19, 31, 42, 56, 68, 69, 70, 71]",,,,,0,117,117,117,474.0499317899994,,,,,,,,,,,,,,,,,,,,,,,,,,,,,,,,,,,,,,,,474.0407810709985,474.0408649739984,474.0408746110006,474.0499317899994,474.0499317899994,475.04870858600043,475.04870858600043,478.0501389659985,478.0501389659985,478.0501389659985,478.0501389659985,478.03290945700064,None,0,None,478.0334164420019,478.03346362999946,None,478.03357627100195,478.04071386299984,None,478.04080875900036,478.0408347390003,None,,,,,,,,,,,,,,,,,,,1,001,0,,2024-04-12_11h00.05.896,replicate_nsd,2023.2.3,60.621123668658804,2024-04-12 11h00.20.565107 -0400,
images/20_12 copy 5.jpg,46,0,0,0,1,"[9, 19, 31, 42, 56, 68, 69, 70, 71]",,,,,0,118,118,118,478.0501389659985,,,,,,,,,,,,,,,,,,,,,,,,,,,,,,,,,,,,,,,,478.04109014200003,478.0411652139992,478.041173747999,478.0501389659985,478.0501389659985,479.0492553690019,479.0492553690019,482.0526810800002,482.0526810800002,482.0526810800002,482.0526810800002,482.03707754100105,None,0,None,482.0374113120015,482.0374416220002,None,482.03751766999994,482.0441899139987,None,482.04428897600155,482.04431531299997,None,,,,,,,,,,,,,,,,,,,1,001,0,,2024-04-12_11h00.05.896,replicate_nsd,2023.2.3,60.621123668658804,2024-04-12 11h00.20.565107 -0400,
images/pair02 copy 3.jpg,47,0,0,0,1,"[9, 19, 31, 42, 56, 68, 69, 70, 71]",,,,,0,119,119,119,482.0526810800002,,,,,,,,,,,,,,,,,,,,,,,,,,,,,,,,,,,,,,,,482.0445770740007,482.04465627800164,482.0446648239995,482.0526810800002,482.0526810800002,483.04974232699897,483.04974232699897,486.05146026700095,486.05146026700095,486.05146026700095,486.05146026700095,486.0326249509999,None,0,None,486.03311131699957,486.03315697799917,None,486.03327112899933,486.0406897950015,None,486.0407891340001,486.04081538899845,None,,,,,,,,,,,,,,,,,,,1,001,0,,2024-04-12_11h00.05.896,replicate_nsd,2023.2.3,60.621123668658804,2024-04-12 11h00.20.565107 -0400,
images/6_28 copy 2.jpg,48,0,0,0,1,"[9, 19, 31, 42, 56, 68, 69, 70, 71]",,,,,0,120,120,120,486.05146026700095,,,,,,,,,,,,,,,,,,,,,,,,,,,,,,,,,,,,,,,,486.0410828259992,486.04116140599945,486.0411699219985,486.05146026700095,486.05146026700095,487.0488969580001,487.0488969580001,490.04981263100126,490.04981263100126,490.04981263100126,490.04981263100126,490.0320941229984,None,0,None,490.0325969959995,490.03264258000127,None,490.0327583850012,490.0400832790001,None,490.04017866199865,490.0402042720016,None,,,,,,,,,,,,,,,,,,,1,001,0,,2024-04-12_11h00.05.896,replicate_nsd,2023.2.3,60.621123668658804,2024-04-12 11h00.20.565107 -0400,
images/19_12 copy 5.jpg,49,0,0,0,1,"[9, 19, 31, 42, 56, 68, 69, 70, 71]",,,,,0,121,121,121,490.04981263100126,,,,,,,,,,,,,,,,,,,,,,,,,,,,,,,,,,,,,,,,490.04046097000173,490.0405372460009,490.04054598600123,490.04981263100126,490.04981263100126,491.05074605900154,491.05074605900154,494.05040976999953,494.05040976999953,494.05040976999953,494.05040976999953,494.0325419920009,None,0,None,494.03304324000055,494.03309010500016,None,494.0332042150003,494.0405981779986,None,494.0406934780003,494.04071884899895,None,,,,,,,,,,,,,,,,,,,1,001,0,,2024-04-12_11h00.05.896,replicate_nsd,2023.2.3,60.621123668658804,2024-04-12 11h00.20.565107 -0400,
images/17_0 copy 3.jpg,50,0,0,0,1,"[9, 19, 31, 42, 56, 68, 69, 70, 71]",,,,,0,122,122,122,494.05040976999953,,,,,,,,,,,,,,,,,,,,,,,,,,,,,,,,,,,,,,,,494.0409772620005,494.04105242600053,494.0410608130005,494.05040976999953,494.05040976999953,495.0484840300014,495.0484840300014,498.06482156100174,498.06482156100174,498.06482156100174,498.06482156100174,498.0491459629993,None,0,None,498.04965969299883,498.0497044250005,None,498.04981733599925,498.0570693760019,None,498.05716163300167,498.05718631499985,None,,,,,,,,,,,,,,,,,,,1,001,0,,2024-04-12_11h00.05.896,replicate_nsd,2023.2.3,60.621123668658804,2024-04-12 11h00.20.565107 -0400,
images/13_0 copy.jpg,51,0,0,0,1,"[9, 19, 31, 42, 56, 68, 69, 70, 71]",,,,,0,123,123,123,498.06482156100174,,,,,,,,,,,,,,,,,,,,,,,,,,,,,,,,,,,,,,,,498.05743159199847,498.05750760700175,498.0575158140018,498.06482156100174,498.06482156100174,499.066585908,499.066585908,502.06868324099923,502.06868324099923,502.06868324099923,502.06868324099923,502.04922766099844,None,0,None,502.0497405339993,502.0497874850007,None,502.0499026200014,502.0576007999989,None,502.0576953009986,502.05772126100055,None,,,,,,,,,,,,,,,,,,,1,001,0,,2024-04-12_11h00.05.896,replicate_nsd,2023.2.3,60.621123668658804,2024-04-12 11h00.20.565107 -0400,
images/23_40 copy 4.jpg,52,0,0,0,1,"[9, 19, 31, 42, 56, 68, 69, 70, 71]",,,,,0,124,124,124,502.06868324099923,,,,,,,,,,,,,,,,,,,,,,,,,,,,,,,,,,,,,,,,502.05797978199917,502.05805426699953,502.0580629799988,502.06868324099923,502.06868324099923,503.0665179550015,503.0665179550015,506.0695047320005,506.0695047320005,506.0695047320005,506.0695047320005,506.04878588000065,None,0,None,506.04926207099925,506.0493079359985,None,506.04942185899927,506.0565285759985,None,506.05662154699894,506.0566469000005,None,,,,,,,,,,,,,,,,,,,1,001,0,,2024-04-12_11h00.05.896,replicate_nsd,2023.2.3,60.621123668658804,2024-04-12 11h00.20.565107 -0400,
images/pair08 copy 6.jpg,53,0,0,0,1,"[9, 19, 31, 42, 56, 68, 69, 70, 71]",,,,,0,125,125,125,506.0695047320005,,,,,,,,,,,,,,,,,,,,,,,,,,,,,,,,,,,,,,,,506.0568953680013,506.0569688430005,506.0569772460003,506.0695047320005,506.0695047320005,507.06777388699993,507.06777388699993,510.06578066600196,510.06578066600196,510.06578066600196,510.06578066600196,510.048908691002,None,0,None,510.0493921820016,510.04943694300164,None,510.04955164900093,510.05699003500195,None,510.0570866039998,510.0571121190005,None,,,,,,,,,,,,,,,,,,,1,001,0,,2024-04-12_11h00.05.896,replicate_nsd,2023.2.3,60.621123668658804,2024-04-12 11h00.20.565107 -0400,
images/21_0 copy 5.jpg,54,0,0,0,1,"[9, 19, 31, 42, 56, 68, 69, 70, 71]",,,,,0,126,126,126,510.06578066600196,,,,,,,,,,,,,,,,,,,,,,,,,,,,,,,,,,,,,,,,510.05737384999884,510.0574602500019,510.057468807001,510.06578066600196,510.06578066600196,511.0661880389998,511.0661880389998,514.069770787999,514.069770787999,514.069770787999,514.069770787999,514.0497145100016,None,0,None,514.0502211620005,514.0502666489992,None,514.0503807589994,514.0581712079984,None,514.0582698990002,514.0582963429988,None,,,,,,,,,,,,,,,,,,,1,001,0,,2024-04-12_11h00.05.896,replicate_nsd,2023.2.3,60.621123668658804,2024-04-12 11h00.20.565107 -0400,
images/pair05 copy 5.jpg,55,0,0,0,1,"[9, 19, 31, 42, 56, 68, 69, 70, 71]",,,,,0,127,127,127,514.069770787999,,,,,,,,,,,,,,,,,,,,,,,,,,,,,,,,,,,,,,,,514.0585615589989,514.0586391799989,514.0586477329998,514.069770787999,514.069770787999,515.0676729070001,515.0676729070001,518.0671403119995,518.0671403119995,518.0671403119995,518.0671403119995,518.0504856430016,None,0,None,518.0509818530008,518.0510280740018,None,518.0511423780008,518.0582860020004,None,518.0583840100007,518.0584099810003,None,,,,,,,,,,,,,,,,,,,1,001,0,,2024-04-12_11h00.05.896,replicate_nsd,2023.2.3,60.621123668658804,2024-04-12 11h00.20.565107 -0400,
images/blank.jpg,56,1,0,0,1,"[9, 19, 31, 42, 56, 68, 69, 70, 71]",,,,,0,128,128,128,518.0671403119995,,,,,,,,,,,,,,,,,,,,,,,,,,,,,,,,,,,,,,,,518.0586651150006,518.0587431650019,518.0587514450017,,,,,,,,,518.0610711590016,None,0,None,518.0613098799986,522.0499558299998,None,522.0501928500016,522.0580871480015,None,522.0581851329989,522.0582097769984,None,,,518.0671403119995,518.0671403119995,522.0691292299998,522.0691292299998,,,,,,,,,,,,,1,001,0,,2024-04-12_11h00.05.896,replicate_nsd,2023.2.3,60.621123668658804,2024-04-12 11h00.20.565107 -0400,
images/23_28.jpg,57,0,0,0,1,"[9, 19, 31, 42, 56, 68, 69, 70, 71]",,,,,0,129,129,129,522.0691292299998,,,,,,,,,,,,,,,,,,,,,,,,,,,,,,,,,,,,,,,,522.0584651329991,522.058544331001,522.0585526639989,522.0691292299998,522.0691292299998,523.065076791001,523.065076791001,526.0661549950019,526.0661549950019,526.0661549950019,526.0661549950019,526.0496461510011,None,0,None,526.050154564,526.050202587001,None,526.0503184789995,526.0503843760016,None,526.05049908,526.0505349990017,None,,,,,,,,,,,,,,,,,,,1,001,0,,2024-04-12_11h00.05.896,replicate_nsd,2023.2.3,60.621123668658804,2024-04-12 11h00.20.565107 -0400,
images/7_40 copy 6.jpg,58,0,0,0,1,"[9, 19, 31, 42, 56, 68, 69, 70, 71]",,,,,0,130,130,130,526.0661549950019,,,,,,,,,,,,,,,,,,,,,,,,,,,,,,,,,,,,,,,,526.0509086980019,526.0510192260008,526.051031731,526.0661549950019,526.0661549950019,527.0664654210013,527.0664654210013,530.0680749050007,530.0680749050007,530.0680749050007,530.0680749050007,530.0493863349984,None,0,None,530.0498503330018,530.049895447999,None,530.0500093129995,530.0571616009984,None,530.0572591710006,530.0572842459987,None,,,,,,,,,,,,,,,,,,,1,001,0,,2024-04-12_11h00.05.896,replicate_nsd,2023.2.3,60.621123668658804,2024-04-12 11h00.20.565107 -0400,
images/pair17 copy.jpg,59,0,0,0,1,"[9, 19, 31, 42, 56, 68, 69, 70, 71]",,,,,0,131,131,131,530.0680749050007,,,,,,,,,,,,,,,,,,,,,,,,,,,,,,,,,,,,,,,,530.0575373120009,530.0576166930005,530.057624852001,530.0680749050007,530.0680749050007,531.0651864399988,531.0651864399988,534.0685084079996,534.0685084079996,534.0685084079996,534.0685084079996,534.0498736599984,None,0,None,534.0503523560001,534.0503973179984,None,534.0505098739995,534.0578088949987,None,534.0579064189988,534.0579317160009,None,,,,,,,,,,,,,,,,,,,1,001,0,,2024-04-12_11h00.05.896,replicate_nsd,2023.2.3,60.621123668658804,2024-04-12 11h00.20.565107 -0400,
images/10_0 copy 5.jpg,60,0,0,0,1,"[9, 19, 31, 42, 56, 68, 69, 70, 71]",,,,,0,132,132,132,534.0685084079996,,,,,,,,,,,,,,,,,,,,,,,,,,,,,,,,,,,,,,,,534.0581889669993,534.0582667330018,534.0582751530019,534.0685084079996,534.0685084079996,535.0663652600015,535.0663652600015,538.0657855829995,538.0657855829995,538.0657855829995,538.0657855829995,538.0496769439997,None,0,None,538.0501528620007,538.0501970820005,None,538.050309459999,538.0575314589987,None,538.0576342489985,538.0576606909999,None,,,,,,,,,,,,,,,,,,,1,001,0,,2024-04-12_11h00.05.896,replicate_nsd,2023.2.3,60.621123668658804,2024-04-12 11h00.20.565107 -0400,
images/23_28 copy 3.jpg,61,0,0,0,1,"[9, 19, 31, 42, 56, 68, 69, 70, 71]",,,,,0,133,133,133,538.0657855829995,,,,,,,,,,,,,,,,,,,,,,,,,,,,,,,,,,,,,,,,538.0579256720011,538.0580079110005,538.0580163240011,538.0657855829995,538.0657855829995,539.0661673510003,539.0661673510003,542.0692168329988,542.0692168329988,542.0692168329988,542.0692168329988,542.0504292400001,None,0,None,542.0509030389985,542.0509467180018,None,542.0510582620009,542.0584017420006,None,542.0585029540016,542.0585288459988,None,,,,,,,,,,,,,,,,,,,1,001,0,,2024-04-12_11h00.05.896,replicate_nsd,2023.2.3,60.621123668658804,2024-04-12 11h00.20.565107 -0400,
images/pair10 copy 2.jpg,62,0,0,0,1,"[9, 19, 31, 42, 56, 68, 69, 70, 71]",,,,,0,134,134,134,542.0692168329988,,,,,,,,,,,,,,,,,,,,,,,,,,,,,,,,,,,,,,,,542.058787422,542.0588689260003,542.0588774470016,542.0692168329988,542.0692168329988,543.0664844409985,543.0664844409985,546.0657385880004,546.0657385880004,546.0657385880004,546.0657385880004,546.049334968,None,0,None,546.0497231090012,546.0497583399992,None,546.0498479650014,546.056603301,None,546.0567001620002,546.0567253609988,None,,,,,,,,,,,,,,,,,,,1,001,0,,2024-04-12_11h00.05.896,replicate_nsd,2023.2.3,60.621123668658804,2024-04-12 11h00.20.565107 -0400,
images/16_12 copy.jpg,63,0,0,0,1,"[9, 19, 31, 42, 56, 68, 69, 70, 71]",,,,,0,135,135,135,546.0657385880004,,,,,,,,,,,,,,,,,,,,,,,,,,,,,,,,,,,,,,,,546.0569742529988,546.0570512999984,546.0570631109986,546.0657385880004,546.0657385880004,547.065026807999,547.065026807999,550.0683478700012,550.0683478700012,550.0683478700012,550.0683478700012,550.0493395429985,None,0,None,550.0498393950002,550.0498848499992,None,550.0499982270012,550.0574819819994,None,550.0575846470019,550.0576110280017,None,,,,,,,,,,,,,,,,,,,1,001,0,,2024-04-12_11h00.05.896,replicate_nsd,2023.2.3,60.621123668658804,2024-04-12 11h00.20.565107 -0400,
images/pair02 copy 2.jpg,64,0,0,0,1,"[9, 19, 31, 42, 56, 68, 69, 70, 71]",,,,,0,136,136,136,550.0683478700012,,,,,,,,,,,,,,,,,,,,,,,,,,,,,,,,,,,,,,,,550.057871093999,550.0579527750015,550.0579610390014,550.0683478700012,550.0683478700012,551.0664229270005,551.0664229270005,554.0728440160019,554.0728440160019,554.0728440160019,554.0728440160019,554.0564637280004,None,0,None,554.0568616070013,554.0568985399987,None,554.0570090090005,554.0634410269995,None,554.0635226539998,554.0635446980014,None,,,,,,,,,,,,,,,,,,,1,001,0,,2024-04-12_11h00.05.896,replicate_nsd,2023.2.3,60.621123668658804,2024-04-12 11h00.20.565107 -0400,
images/18_12 copy 4.jpg,65,0,0,0,1,"[9, 19, 31, 42, 56, 68, 69, 70, 71]",,,,,0,137,137,137,554.0728440160019,,,,,,,,,,,,,,,,,,,,,,,,,,,,,,,,,,,,,,,,554.063759263001,554.0638222170019,554.0638292479998,554.0728440160019,554.0728440160019,555.0702720129993,555.0702720129993,558.0850849099988,558.0850849099988,558.0850849099988,558.0850849099988,558.0662030790008,None,0,None,558.0667085409987,558.0667551320003,None,558.0668703219999,558.0743004489996,None,558.0743965010006,558.0744218860018,None,,,,,,,,,,,,,,,,,,,1,001,0,,2024-04-12_11h00.05.896,replicate_nsd,2023.2.3,60.621123668658804,2024-04-12 11h00.20.565107 -0400,
