current_image,trial_index,is_blank_trial,is_repeat,is_new_run,run_num,all_blanks_list,practice.thisRepN,practice.thisTrialN,practice.thisN,practice.thisIndex,loop_all_images.thisRepN,loop_all_images.thisTrialN,loop_all_images.thisN,loop_all_images.thisIndex,thisRow.t,notes,set_up.started,set_up.stopped,practice_continue.started,key_resp_6.started,text_6.started,practice_continue.stopped,key_resp_6.keys,key_resp_6.rt,key_resp_6.duration,practice_trial.started,polygon_3.started,all_keys_pressed_2.started,image_2.started,press_if_repeat_2.started,image_2.stopped,press_if_repeat_2.stopped,polygon_3.stopped,all_keys_pressed_2.stopped,practice_trial.stopped,press_if_repeat_2.keys,press_if_repeat_2.corr,all_keys_pressed_2.keys,testing_continue.started,key_resp_7.started,text_7.started,testing_continue.stopped,key_resp_7.keys,key_resp_7.rt,key_resp_7.duration,waiting_fmri.started,key_resp_2.started,text_3.started,waiting_fmri.stopped,key_resp_2.keys,key_resp_2.rt,key_resp_2.duration,set_skips_and_correct_key.started,set_skips_and_correct_key.stopped,trial.started,polygon.started,all_keys_pressed.started,image.started,press_if_repeat.started,image.stopped,press_if_repeat.stopped,polygon.stopped,all_keys_pressed.stopped,trial.stopped,press_if_repeat.keys,press_if_repeat.corr,all_keys_pressed.keys,blank_trial.started,blank_trial.stopped,key_resp_3.keys,run_wait2_2.started,run_wait2_2.stopped,key_resp_5.keys,waiting_fmri_2.started,waiting_fmri_2.stopped,key_resp_4.keys,key_resp_3.started,polygon_2.started,key_resp_3.stopped,polygon_2.stopped,key_resp_5.started,text_5.started,key_resp_5.rt,key_resp_5.duration,key_resp_4.started,text_4.started,key_resp_4.rt,key_resp_4.duration,press_if_repeat.rt,press_if_repeat.duration,all_keys_pressed.rt,all_keys_pressed.duration,key_resp_3.rt,key_resp_3.duration,participant,session,starting_run,,date,expName,psychopyVersion,frameRate,expStart,
,,,,,,,,,,,,,,,,,0.032325379997928394,0.0325977629981935,0.03262153299874626,0.05359359599970048,0.05359359599970048,1.6668577309974353,space,1.6047950440006389,None,,,,,,,,,,,,,,,,,,,,,,,,,,,,,,,,,,,,,,,,,,,,,,,,,,,,,,,,,,,,,,,,,,,,,,1,001,0,,2024-04-12_10h05.35.187,replicate_nsd,2023.2.3,59.97307460779113,2024-04-12 10h05.48.126200 -0400,
images/9_28 copy 2.jpg,0,0,,,,,0,0,0,0,,,,,1.6985873300000094,,,,,,,,,,,1.6738148799995543,1.6985873300000094,1.6985873300000094,2.6843818300003477,2.6843818300003477,5.683218391997798,5.683218391997798,5.683218391997798,5.683218391997798,5.6679332189996785,None,0,None,,,,,,,,,,,,,,,,,,,,,,,,,,,,,,,,,,,,,,,,,,,,,,,,,,,,,,,,,1,001,0,,2024-04-12_10h05.35.187,replicate_nsd,2023.2.3,59.97307460779113,2024-04-12 10h05.48.126200 -0400,
images/14_40.jpg,1,0,,,,,0,1,1,1,,,,,5.683218391997798,,,,,,,,,,,5.668898476000322,5.683218391997798,5.683218391997798,6.684505752997211,6.684505752997211,9.683742091998283,9.683742091998283,9.683742091998283,9.683742091998283,9.667932398999255,None,0,None,,,,,,,,,,,,,,,,,,,,,,,,,,,,,,,,,,,,,,,,,,,,,,,,,,,,,,,,,1,001,0,,2024-04-12_10h05.35.187,replicate_nsd,2023.2.3,59.97307460779113,2024-04-12 10h05.48.126200 -0400,
images/6_28.jpg,2,0,,,,,0,2,2,2,,,,,9.683742091998283,,,,,,,,,,,9.668607178999082,9.683742091998283,9.683742091998283,10.684030829997937,10.684030829997937,13.683828714998526,13.683828714998526,13.683828714998526,13.683828714998526,13.66794563899748,None,0,None,,,,,,,,,,,,,,,,,,,,,,,,,,,,,,,,,,,,,,,,,,,,,,,,,,,,,,,,,1,001,0,,2024-04-12_10h05.35.187,replicate_nsd,2023.2.3,59.97307460779113,2024-04-12 10h05.48.126200 -0400,
images/23_40 copy 3.jpg,3,0,,,,,0,3,3,3,,,,,13.683828714998526,,,,,,,,,,,13.66861744599737,13.683828714998526,13.683828714998526,14.684030127998994,14.684030127998994,17.68385682799999,17.68385682799999,17.68385682799999,17.68385682799999,17.6679322279997,None,0,None,,,,,,,,,,,,,,,,,,,,,,,,,,,,,,,,,,,,,,,,,,,,,,,,,,,,,,,,,1,001,0,,2024-04-12_10h05.35.187,replicate_nsd,2023.2.3,59.97307460779113,2024-04-12 10h05.48.126200 -0400,
images/14_12 copy.jpg,4,0,,,,,0,4,4,4,,,,,17.68385682799999,,,,,,,,,,,17.6686063369998,17.68385682799999,17.68385682799999,18.68437719999929,18.68437719999929,21.684438469997986,21.684438469997986,21.684438469997986,21.684438469997986,21.66789634399902,None,0,None,,,,,,,,,,,,,,,,,,,,,,,,,,,,,,,,,,,,,,,,,,,,,,,,,,,,,,,,,1,001,0,,2024-04-12_10h05.35.187,replicate_nsd,2023.2.3,59.97307460779113,2024-04-12 10h05.48.126200 -0400,
images/6_28 copy 6.jpg,5,0,,,,,0,5,5,5,,,,,21.684438469997986,,,,,,,,,,,21.66857193999749,21.684438469997986,21.684438469997986,22.684058281000034,22.684058281000034,25.68384280799728,25.68384280799728,25.68384280799728,25.68384280799728,25.667797889000212,None,0,None,,,,,,,,,,,,,,,,,,,,,,,,,,,,,,,,,,,,,,,,,,,,,,,,,,,,,,,,,1,001,0,,2024-04-12_10h05.35.187,replicate_nsd,2023.2.3,59.97307460779113,2024-04-12 10h05.48.126200 -0400,
images/11_12 copy 7.jpg,6,0,,,,,0,6,6,6,,,,,25.68384280799728,,,,,,,,,,,25.66847792599947,25.68384280799728,25.68384280799728,26.684296077997715,26.684296077997715,29.6837303459979,29.6837303459979,29.6837303459979,29.6837303459979,29.667772037999384,None,0,None,,,,,,,,,,,,,,,,,,,,,,,,,,,,,,,,,,,,,,,,,,,,,,,,,,,,,,,,,1,001,0,,2024-04-12_10h05.35.187,replicate_nsd,2023.2.3,59.97307460779113,2024-04-12 10h05.48.126200 -0400,
images/13_40 copy 5.jpg,7,0,,,,,0,7,7,7,,,,,29.6837303459979,,,,,,,,,,,29.668450168999698,29.6837303459979,29.6837303459979,30.684348293998482,30.684348293998482,33.684305924998625,33.684305924998625,33.684305924998625,33.684305924998625,33.6676766749988,None,0,None,,,,,,,,,,,,,,,,,,,,,,,,,,,,,,,,,,,,,,,,,,,,,,,,,,,,,,,,,1,001,0,,2024-04-12_10h05.35.187,replicate_nsd,2023.2.3,59.97307460779113,2024-04-12 10h05.48.126200 -0400,
images/17_28.jpg,8,0,,,,,0,8,8,8,,,,,33.684305924998625,,,,,,,,,,,33.668349319999834,33.684305924998625,33.684305924998625,34.68430132999856,34.68430132999856,37.683749806998094,37.683749806998094,37.683749806998094,37.683749806998094,37.667863921997196,None,0,None,,,,,,,,,,,,,,,,,,,,,,,,,,,,,,,,,,,,,,,,,,,,,,,,,,,,,,,,,1,001,0,,2024-04-12_10h05.35.187,replicate_nsd,2023.2.3,59.97307460779113,2024-04-12 10h05.48.126200 -0400,
images/8_40 copy 3.jpg,9,0,,,,,0,9,9,9,,,,,37.683749806998094,,,,,,,,,,,37.66854312599753,37.683749806998094,37.683749806998094,38.68396348999886,38.68396348999886,41.68376792100025,41.68376792100025,41.68376792100025,41.68376792100025,41.667818754998734,None,0,None,,,,,,,,,,,,,,,,,,,,,,,,,,,,,,,,,,,,,,,,,,,,,,,,,,,,,,,,,1,001,0,,2024-04-12_10h05.35.187,replicate_nsd,2023.2.3,59.97307460779113,2024-04-12 10h05.48.126200 -0400,
images/blank.jpg,10,1,,,,,0,10,10,10,,,,,41.68376792100025,,,,,,,,,,,41.66849585499949,41.68376792100025,41.68376792100025,42.68403559499711,42.68403559499711,45.73303553000005,45.73303553000005,45.73303553000005,45.73303553000005,45.71708420699724,None,0,None,,,,,,,,,,,,,,,,,,,,,,,,,,,,,,,,,,,,,,,,,,,,,,,,,,,,,,,,,1,001,0,,2024-04-12_10h05.35.187,replicate_nsd,2023.2.3,59.97307460779113,2024-04-12 10h05.48.126200 -0400,
images/14_40 copy 6.jpg,11,0,,,,,0,11,11,11,,,,,45.73303553000005,,,,,,,,,,,45.717759594997915,45.73303553000005,45.73303553000005,46.73393086099895,46.73393086099895,49.73321094799758,49.73321094799758,49.73321094799758,49.73321094799758,49.717344879998564,None,0,None,,,,,,,,,,,,,,,,,,,,,,,,,,,,,,,,,,,,,,,,,,,,,,,,,,,,,,,,,1,001,0,,2024-04-12_10h05.35.187,replicate_nsd,2023.2.3,59.97307460779113,2024-04-12 10h05.48.126200 -0400,
images/5_12 copy 7.jpg,12,0,,,,,0,12,12,12,,,,,49.73321094799758,,,,,,,,,,,49.71823754199795,49.73321094799758,49.73321094799758,50.73471151099875,50.73471151099875,53.73313692599913,53.73313692599913,53.73313692599913,53.73313692599913,53.71711001299991,None,0,None,,,,,,,,,,,,,,,,,,,,,,,,,,,,,,,,,,,,,,,,,,,,,,,,,,,,,,,,,1,001,0,,2024-04-12_10h05.35.187,replicate_nsd,2023.2.3,59.97307460779113,2024-04-12 10h05.48.126200 -0400,
images/18_28 copy 6.jpg,13,0,,,,,0,13,13,13,,,,,53.73313692599913,,,,,,,,,,,53.71778443499716,53.73313692599913,53.73313692599913,54.73273994899864,54.73273994899864,57.733255846997054,57.733255846997054,57.733255846997054,57.733255846997054,57.717331326999556,None,0,None,,,,,,,,,,,,,,,,,,,,,,,,,,,,,,,,,,,,,,,,,,,,,,,,,,,,,,,,,1,001,0,,2024-04-12_10h05.35.187,replicate_nsd,2023.2.3,59.97307460779113,2024-04-12 10h05.48.126200 -0400,
images/19_12 copy 4.jpg,14,0,,,,,0,14,14,14,,,,,57.733255846997054,,,,,,,,,,,57.718016037997586,57.733255846997054,57.733255846997054,58.73334655099825,58.73334655099825,61.73375870099699,61.73375870099699,61.73375870099699,61.73375870099699,61.71712600299725,None,0,None,,,,,,,,,,,,,,,,,,,,,,,,,,,,,,,,,,,,,,,,,,,,,,,,,,,,,,,,,1,001,0,,2024-04-12_10h05.35.187,replicate_nsd,2023.2.3,59.97307460779113,2024-04-12 10h05.48.126200 -0400,
images/7_0 copy 2.jpg,15,0,,,,,0,15,15,15,,,,,61.73375870099699,,,,,,,,,,,61.71780995299923,61.73375870099699,61.73375870099699,62.73334872099804,62.73334872099804,65.73341036599959,65.73341036599959,65.73341036599959,65.73341036599959,65.71735324999827,None,0,None,,,,,,,,,,,,,,,,,,,,,,,,,,,,,,,,,,,,,,,,,,,,,,,,,,,,,,,,,1,001,0,,2024-04-12_10h05.35.187,replicate_nsd,2023.2.3,59.97307460779113,2024-04-12 10h05.48.126200 -0400,
images/21_28 copy 5.jpg,16,0,,,,,0,16,16,16,,,,,65.73341036599959,,,,,,,,,,,65.7180330509982,65.73341036599959,65.73341036599959,66.73333279599683,66.73333279599683,69.7331900279969,69.7331900279969,69.7331900279969,69.7331900279969,69.71729883700027,None,0,None,,,,,,,,,,,,,,,,,,,,,,,,,,,,,,,,,,,,,,,,,,,,,,,,,,,,,,,,,1,001,0,,2024-04-12_10h05.35.187,replicate_nsd,2023.2.3,59.97307460779113,2024-04-12 10h05.48.126200 -0400,
images/9_12 copy 6.jpg,17,0,,,,,0,17,17,17,,,,,69.7331900279969,,,,,,,,,,,69.71797392099688,69.7331900279969,69.7331900279969,70.73335634799878,70.73335634799878,73.73396707899883,73.73396707899883,73.73396707899883,73.73396707899883,73.71733124699676,None,0,None,,,,,,,,,,,,,,,,,,,,,,,,,,,,,,,,,,,,,,,,,,,,,,,,,,,,,,,,,1,001,0,,2024-04-12_10h05.35.187,replicate_nsd,2023.2.3,59.97307460779113,2024-04-12 10h05.48.126200 -0400,
images/21_40 copy 5.jpg,18,0,,,,,0,18,18,18,,,,,73.73396707899883,,,,,,,,,,,73.71801429100015,73.73396707899883,73.73396707899883,74.73392642999897,74.73392642999897,77.73337677800009,77.73337677800009,77.73337677800009,77.73337677800009,77.71724083299705,None,0,None,,,,,,,,,,,,,,,,,,,,,,,,,,,,,,,,,,,,,,,,,,,,,,,,,,,,,,,,,1,001,0,,2024-04-12_10h05.35.187,replicate_nsd,2023.2.3,59.97307460779113,2024-04-12 10h05.48.126200 -0400,
images/pair03 copy 7.jpg,19,0,,,,,0,19,19,19,,,,,77.73337677800009,,,,,,,,,,,77.71792145099971,77.73337677800009,77.73337677800009,78.73338452299868,78.73338452299868,81.73515481099821,81.73515481099821,81.73515481099821,81.73515481099821,81.71680562799884,None,0,None,,,,,,,,,,,,,,,,,,,,,,,,,,,,,,,,,,,,,,,,,,,,,,,,,,,,,,,,,1,001,0,,2024-04-12_10h05.35.187,replicate_nsd,2023.2.3,59.97307460779113,2024-04-12 10h05.48.126200 -0400,
,,,,,,,,,,,,,,,,,,,,,,,,,,,,,,,,,,,,,,,81.71728281099786,81.73515481099821,81.73515481099821,83.81702219699946,space,2.067036084998108,None,,,,,,,,,,,,,,,,,,,,,,,,,,,,,,,,,,,,,,,,,,,,,,,,,,1,001,0,,2024-04-12_10h05.35.187,replicate_nsd,2023.2.3,59.97307460779113,2024-04-12 10h05.48.126200 -0400,
,,,,,,,,,,,,,,,,,,,,,,,,,,,,,,,,,,,,,,,,,,,,,,83.81705754499853,83.83309149599881,83.83309149599881,85.0497437069971,5,1.205247447000147,None,,,,,,,,,,,,,,,,,,,,,,,,,,,,,,,,,,,,,,,,,,,1,001,0,,2024-04-12_10h05.35.187,replicate_nsd,2023.2.3,59.97307460779113,2024-04-12 10h05.48.126200 -0400,
images/14_40 copy 5.jpg,0,0,0,0,0,"[9, 19, 29, 39, 49, 59, 68, 69, 70, 71]",,,,,0,0,0,0,85.163285704999,,,,,,,,,,,,,,,,,,,,,,,,,,,,,,,,,,,,,,85.13642681099736,85.13650383399727,85.13651465099974,85.163285704999,85.163285704999,86.1502956209988,86.1502956209988,89.14971408899873,89.14971408899873,89.14971408899873,89.14971408899873,89.1342042599972,None,0,None,89.13623150299827,89.13627422599893,None,89.13693037199846,89.13699363999694,None,89.13765729799707,89.13769330599825,None,,,,,,,,,,,,,,,,,,,1,001,0,,2024-04-12_10h05.35.187,replicate_nsd,2023.2.3,59.97307460779113,2024-04-12 10h05.48.126200 -0400,
images/15_0 copy 2.jpg,1,0,0,0,0,"[9, 19, 29, 39, 49, 59, 68, 69, 70, 71]",,,,,0,1,1,1,89.14971408899873,,,,,,,,,,,,,,,,,,,,,,,,,,,,,,,,,,,,,,89.13857596299931,89.13866079999934,89.13867089199994,89.14971408899873,89.14971408899873,90.15071637599976,90.15071637599976,93.15383202199882,93.15383202199882,93.15383202199882,93.15383202199882,93.13460863799992,None,0,None,93.13511655399998,93.13516149599673,None,93.13527625799907,93.14529774499897,None,93.14540442499856,93.14543203299763,None,,,,,,,,,,,,,,,,,,,1,001,0,,2024-04-12_10h05.35.187,replicate_nsd,2023.2.3,59.97307460779113,2024-04-12 10h05.48.126200 -0400,
images/21_28.jpg,2,0,0,0,0,"[9, 19, 29, 39, 49, 59, 68, 69, 70, 71]",,,,,0,2,2,2,93.15383202199882,,,,,,,,,,,,,,,,,,,,,,,,,,,,,,,,,,,,,,93.14570353699673,93.14577854500021,93.14578723299928,93.15383202199882,93.15383202199882,94.15081254699908,94.15081254699908,97.15602047399807,97.15602047399807,97.15602047399807,97.15602047399807,97.13511876099801,None,0,None,97.13564592900002,97.13569274899783,None,97.13580948399976,97.14407490699887,None,97.14417461899939,97.14420081799835,None,,,,,,,,,,,,,,,,,,,1,001,0,,2024-04-12_10h05.35.187,replicate_nsd,2023.2.3,59.97307460779113,2024-04-12 10h05.48.126200 -0400,
images/12_40.jpg,3,0,0,0,0,"[9, 19, 29, 39, 49, 59, 68, 69, 70, 71]",,,,,0,3,3,3,97.15602047399807,,,,,,,,,,,,,,,,,,,,,,,,,,,,,,,,,,,,,,97.14446837899959,97.14455834699766,97.14456646799954,97.15602047399807,97.15602047399807,98.14951293999911,98.14951293999911,101.15531897799883,101.15531897799883,101.15531897799883,101.15531897799883,101.13454300299782,None,0,None,101.13503517999925,101.13508032800019,None,101.13519442599863,101.14392058599697,None,101.14402175899886,101.14404808699692,None,,,,,,,,,,,,,,,,,,,1,001,0,,2024-04-12_10h05.35.187,replicate_nsd,2023.2.3,59.97307460779113,2024-04-12 10h05.48.126200 -0400,
images/pair13 copy 7.jpg,4,0,0,0,0,"[9, 19, 29, 39, 49, 59, 68, 69, 70, 71]",,,,,0,4,4,4,101.15531897799883,,,,,,,,,,,,,,,,,,,,,,,,,,,,,,,,,,,,,,101.1443160029994,101.14439433000007,101.14440294099768,101.15531897799883,101.15531897799883,102.14915703299994,102.14915703299994,105.15558052699998,105.15558052699998,105.15558052699998,105.15558052699998,105.13428783199925,None,0,None,105.13480647999677,105.13485278299777,None,105.13496954199945,105.14331613499962,None,105.14341909599898,105.14344714699837,None,,,,,,,,,,,,,,,,,,,1,001,0,,2024-04-12_10h05.35.187,replicate_nsd,2023.2.3,59.97307460779113,2024-04-12 10h05.48.126200 -0400,
images/17_12 copy 4.jpg,5,0,0,0,0,"[9, 19, 29, 39, 49, 59, 68, 69, 70, 71]",,,,,0,5,5,5,105.15558052699998,,,,,,,,,,,,,,,,,,,,,,,,,,,,,,,,,,,,,,105.14373294999677,105.14380972599974,105.14381849199708,105.15558052699998,105.15558052699998,106.14962649899826,106.14962649899826,109.1546762839971,109.1546762839971,109.1546762839971,109.1546762839971,109.13421846900019,None,0,None,109.13472715999887,109.13477288599825,None,109.13488863999737,109.1435387019992,None,109.14363649999723,109.14366268199956,None,,,,,,,,,,,,,,,,,,,1,001,0,,2024-04-12_10h05.35.187,replicate_nsd,2023.2.3,59.97307460779113,2024-04-12 10h05.48.126200 -0400,
images/15_12 copy 6.jpg,6,0,0,0,0,"[9, 19, 29, 39, 49, 59, 68, 69, 70, 71]",,,,,0,6,6,6,109.1546762839971,,,,,,,,,,,,,,,,,,,,,,,,,,,,,,,,,,,,,,109.14392960999976,109.14400359799765,109.14401194699894,109.1546762839971,109.1546762839971,110.14950501599742,110.14950501599742,113.14902961499683,113.14902961499683,113.14902961499683,113.14902961499683,113.13336637499742,None,0,None,113.13366182699974,113.13368702699881,None,113.1337529429984,113.14001665399701,None,113.1401117159985,113.14013370300017,None,,,,,,,,,,,,,,,,,,,1,001,0,,2024-04-12_10h05.35.187,replicate_nsd,2023.2.3,59.97307460779113,2024-04-12 10h05.48.126200 -0400,
images/20_40 copy 2.jpg,7,0,0,0,0,"[9, 19, 29, 39, 49, 59, 68, 69, 70, 71]",,,,,0,7,7,7,113.14902961499683,,,,,,,,,,,,,,,,,,,,,,,,,,,,,,,,,,,,,,113.14035689499724,113.14042897199761,113.14043615399714,113.14902961499683,113.14902961499683,114.1494652759975,114.1494652759975,117.15498971899797,117.15498971899797,117.15498971899797,117.15498971899797,117.13411006699971,None,0,None,117.1345985179978,117.1346438239998,None,117.1347585149997,117.14334286599842,None,117.14344268700006,117.14346869699875,None,,,,,,,,,,,,,,,,,,,1,001,0,,2024-04-12_10h05.35.187,replicate_nsd,2023.2.3,59.97307460779113,2024-04-12 10h05.48.126200 -0400,
images/16_28.jpg,8,0,0,0,0,"[9, 19, 29, 39, 49, 59, 68, 69, 70, 71]",,,,,0,8,8,8,117.15498971899797,,,,,,,,,,,,,,,,,,,,,,,,,,,,,,,,,,,,,,117.14373658099794,117.14381020099972,117.14381906400013,117.15498971899797,117.15498971899797,118.14955773399925,118.14955773399925,121.15361542699975,121.15361542699975,121.15361542699975,121.15361542699975,121.13455750599678,None,0,None,121.13506615299775,121.13511241800006,None,121.13522827299676,121.14362137699936,None,121.14372100099717,121.14374717600003,None,,,,,,,,,,,,,,,,,,,1,001,0,,2024-04-12_10h05.35.187,replicate_nsd,2023.2.3,59.97307460779113,2024-04-12 10h05.48.126200 -0400,
images/blank.jpg,9,1,0,0,0,"[9, 19, 29, 39, 49, 59, 68, 69, 70, 71]",,,,,0,9,9,9,121.15361542699975,,,,,,,,,,,,,,,,,,,,,,,,,,,,,,,,,,,,,,121.14401424099924,121.14408860899857,121.1440972119999,,,,,,,,,121.1482545359977,None,0,None,121.14852119699935,125.13638507299765,None,125.13669692099938,125.14580867800032,None,125.14590973799932,125.14593617199716,None,121.15361542699975,121.15361542699975,125.15527523199853,125.15527523199853,,,,,,,,,,,,,,,1,001,0,,2024-04-12_10h05.35.187,replicate_nsd,2023.2.3,59.97307460779113,2024-04-12 10h05.48.126200 -0400,
images/20_12 copy.jpg,10,0,0,0,0,"[9, 19, 29, 39, 49, 59, 68, 69, 70, 71]",,,,,0,10,10,10,125.15527523199853,,,,,,,,,,,,,,,,,,,,,,,,,,,,,,,,,,,,,,125.14620686299895,125.14628503799759,125.14629366299778,125.15527523199853,125.15527523199853,126.14949096799683,126.14949096799683,129.15036494000014,129.15036494000014,129.15036494000014,129.15036494000014,129.13350265899862,None,0,None,129.1339007280003,129.13393790699774,None,129.13402973499979,129.13408041000002,None,129.13417159599703,129.1342005339975,None,,,,,,,,,,,,,,,,,,,1,001,0,,2024-04-12_10h05.35.187,replicate_nsd,2023.2.3,59.97307460779113,2024-04-12 10h05.48.126200 -0400,
images/pair02.jpg,11,0,0,0,0,"[9, 19, 29, 39, 49, 59, 68, 69, 70, 71]",,,,,0,11,11,11,129.15036494000014,,,,,,,,,,,,,,,,,,,,,,,,,,,,,,,,,,,,,,129.13450366999677,129.13459005299956,129.13459993599827,129.15036494000014,129.15036494000014,130.1491659969979,130.1491659969979,133.15235663899875,133.15235663899875,133.15235663899875,133.15235663899875,133.13358851199882,None,0,None,133.1339460929994,133.13397613399866,None,133.13405327099827,133.14097760499862,None,133.14107763199718,133.14110353199794,None,,,,,,,,,,,,,,,,,,,1,001,0,,2024-04-12_10h05.35.187,replicate_nsd,2023.2.3,59.97307460779113,2024-04-12 10h05.48.126200 -0400,
images/pair15 copy 6.jpg,12,0,0,0,0,"[9, 19, 29, 39, 49, 59, 68, 69, 70, 71]",,,,,0,12,12,12,133.15235663899875,,,,,,,,,,,,,,,,,,,,,,,,,,,,,,,,,,,,,,133.14137035899694,133.1414451399978,133.1414532819981,133.15235663899875,133.15235663899875,134.14963212699877,134.14963212699877,137.15365975799796,137.15365975799796,137.15365975799796,137.15365975799796,137.13418167599957,None,0,None,137.1346975009983,137.13474249599676,None,137.1348581530001,137.14243102099863,None,137.14253261299746,137.14255937099733,None,,,,,,,,,,,,,,,,,,,1,001,0,,2024-04-12_10h05.35.187,replicate_nsd,2023.2.3,59.97307460779113,2024-04-12 10h05.48.126200 -0400,
images/pair18 copy.jpg,13,0,0,0,0,"[9, 19, 29, 39, 49, 59, 68, 69, 70, 71]",,,,,0,13,13,13,137.15365975799796,,,,,,,,,,,,,,,,,,,,,,,,,,,,,,,,,,,,,,137.14284976899944,137.14292396999736,137.14293239999824,137.15365975799796,137.15365975799796,138.14943022199805,138.14943022199805,141.1490929669999,141.1490929669999,141.1490929669999,141.1490929669999,141.13552483699823,None,0,None,141.13577507899754,141.13579638599913,None,141.1358488759979,141.14059979099693,None,141.1406698589999,141.14068877399768,None,,,,,,,,,,,,,,,,,,,1,001,0,,2024-04-12_10h05.35.187,replicate_nsd,2023.2.3,59.97307460779113,2024-04-12 10h05.48.126200 -0400,
images/pair11 copy 7.jpg,14,0,0,0,0,"[9, 19, 29, 39, 49, 59, 68, 69, 70, 71]",,,,,0,14,14,14,141.1490929669999,,,,,,,,,,,,,,,,,,,,,,,,,,,,,,,,,,,,,,141.14087813899823,141.14093171999775,141.1409374169998,141.1490929669999,141.1490929669999,142.14916489999814,142.14916489999814,145.1545665699996,145.1545665699996,145.1545665699996,145.1545665699996,145.13418131099752,None,0,None,145.13469352399989,145.1347391700001,None,145.13485453300018,145.1424001919986,None,145.14250001399705,145.14252580099856,None,,,,,,,,,,,,,,,,,,,1,001,0,,2024-04-12_10h05.35.187,replicate_nsd,2023.2.3,59.97307460779113,2024-04-12 10h05.48.126200 -0400,
images/18_0 copy 4.jpg,15,0,0,0,0,"[9, 19, 29, 39, 49, 59, 68, 69, 70, 71]",,,,,0,15,15,15,145.1545665699996,,,,,,,,,,,,,,,,,,,,,,,,,,,,,,,,,,,,,,145.14279073799844,145.14286510999955,145.1428735720001,145.1545665699996,145.1545665699996,146.14942442299798,146.14942442299798,149.15416405499855,149.15416405499855,149.15416405499855,149.15416405499855,149.13413591899734,None,0,None,149.13467122399743,149.13471812399803,None,149.13483406799787,149.14250406799692,None,149.14260676799677,149.14263432999724,None,,,,,,,,,,,,,,,,,,,1,001,0,,2024-04-12_10h05.35.187,replicate_nsd,2023.2.3,59.97307460779113,2024-04-12 10h05.48.126200 -0400,
images/13_0 copy 3.jpg,16,0,0,0,0,"[9, 19, 29, 39, 49, 59, 68, 69, 70, 71]",,,,,0,16,16,16,149.15416405499855,,,,,,,,,,,,,,,,,,,,,,,,,,,,,,,,,,,,,,149.14290858099776,149.14298550999956,149.14299398799994,149.15416405499855,149.15416405499855,150.14950846499778,150.14950846499778,153.15493804799917,153.15493804799917,153.15493804799917,153.15493804799917,153.13394666399836,None,0,None,153.13445484899785,153.13449998599754,None,153.13461492900024,153.14208918299846,None,153.14219194899852,153.14221880100013,None,,,,,,,,,,,,,,,,,,,1,001,0,,2024-04-12_10h05.35.187,replicate_nsd,2023.2.3,59.97307460779113,2024-04-12 10h05.48.126200 -0400,
images/21_0 copy 7.jpg,17,0,0,0,0,"[9, 19, 29, 39, 49, 59, 68, 69, 70, 71]",,,,,0,17,17,17,153.15493804799917,,,,,,,,,,,,,,,,,,,,,,,,,,,,,,,,,,,,,,153.14249564499914,153.14257139099936,153.14258003499708,153.15493804799917,153.15493804799917,154.1495096059989,154.1495096059989,157.1551218809982,157.1551218809982,157.1551218809982,157.1551218809982,157.13420712299921,None,0,None,157.13471680399743,157.1347613809994,None,157.1348766230003,157.14250812699902,None,157.14260665099937,157.1426322369989,None,,,,,,,,,,,,,,,,,,,1,001,0,,2024-04-12_10h05.35.187,replicate_nsd,2023.2.3,59.97307460779113,2024-04-12 10h05.48.126200 -0400,
images/17_40 copy 6.jpg,18,0,0,0,0,"[9, 19, 29, 39, 49, 59, 68, 69, 70, 71]",,,,,0,18,18,18,157.1551218809982,,,,,,,,,,,,,,,,,,,,,,,,,,,,,,,,,,,,,,157.14289475799887,157.14296738199846,157.14297575899764,157.1551218809982,157.1551218809982,158.149500755997,158.149500755997,161.15129661399988,161.15129661399988,161.15129661399988,161.15129661399988,161.13414082399686,None,0,None,161.13465028799692,161.13469454799997,None,161.13481045699882,161.14229031399736,None,161.14238916199974,161.14241475499875,None,,,,,,,,,,,,,,,,,,,1,001,0,,2024-04-12_10h05.35.187,replicate_nsd,2023.2.3,59.97307460779113,2024-04-12 10h05.48.126200 -0400,
images/blank.jpg,19,1,0,0,0,"[9, 19, 29, 39, 49, 59, 68, 69, 70, 71]",,,,,0,19,19,19,161.15129661399988,,,,,,,,,,,,,,,,,,,,,,,,,,,,,,,,,,,,,,161.1426768459969,161.14275049099888,161.1427585809979,,,,,,,,,161.1449817169996,None,0,None,161.14539026700004,165.13407235799968,None,165.1342877169991,165.14222641899687,None,165.14233281499764,165.142360611997,None,161.15129661399988,161.15129661399988,165.15309062899905,165.15309062899905,,,,,,,,,,,,,,,1,001,0,,2024-04-12_10h05.35.187,replicate_nsd,2023.2.3,59.97307460779113,2024-04-12 10h05.48.126200 -0400,
images/23_12 copy 3.jpg,20,0,0,0,0,"[9, 19, 29, 39, 49, 59, 68, 69, 70, 71]",,,,,0,20,20,20,165.15309062899905,,,,,,,,,,,,,,,,,,,,,,,,,,,,,,,,,,,,,,165.14264035700035,165.1427200279977,165.14272869399792,165.15309062899905,165.15309062899905,166.14948998699765,166.14948998699765,169.14951573399958,169.14951573399958,169.14951573399958,169.14951573399958,169.1341689419969,None,0,None,169.1346588489978,169.1347039350003,None,169.13481931899878,169.1348837919977,None,169.13499925099677,169.13503545999993,None,,,,,,,,,,,,,,,,,,,1,001,0,,2024-04-12_10h05.35.187,replicate_nsd,2023.2.3,59.97307460779113,2024-04-12 10h05.48.126200 -0400,
images/pair08 copy 2.jpg,21,0,0,0,0,"[9, 19, 29, 39, 49, 59, 68, 69, 70, 71]",,,,,0,21,21,21,169.14951573399958,,,,,,,,,,,,,,,,,,,,,,,,,,,,,,,,,,,,,,169.1354130869986,169.13551905999702,169.13553156099806,169.14951573399958,169.14951573399958,170.14945305999936,170.14945305999936,173.1546107369977,173.1546107369977,173.1546107369977,173.1546107369977,173.13356872299846,None,0,None,173.13408020600036,173.13412490399787,None,173.13424010699964,173.1418207280003,None,173.1419226529979,173.14194971699908,None,,,,,,,,,,,,,,,,,,,1,001,0,,2024-04-12_10h05.35.187,replicate_nsd,2023.2.3,59.97307460779113,2024-04-12 10h05.48.126200 -0400,
images/11_12 copy 6.jpg,22,0,0,0,0,"[9, 19, 29, 39, 49, 59, 68, 69, 70, 71]",,,,,0,22,22,22,173.1546107369977,,,,,,,,,,,,,,,,,,,,,,,,,,,,,,,,,,,,,,173.14223600199693,173.1423100739994,173.1423183099978,173.1546107369977,173.1546107369977,174.14916377499685,174.14916377499685,177.1533173409989,177.1533173409989,177.1533173409989,177.1533173409989,177.1341778959977,None,0,None,177.1346835359982,177.1347285519987,None,177.13484309199703,177.14238367899816,None,177.1424864799992,177.14251321899792,None,,,,,,,,,,,,,,,,,,,1,001,0,,2024-04-12_10h05.35.187,replicate_nsd,2023.2.3,59.97307460779113,2024-04-12 10h05.48.126200 -0400,
images/15_12 copy 2.jpg,23,0,0,0,0,"[9, 19, 29, 39, 49, 59, 68, 69, 70, 71]",,,,,0,23,23,23,177.1533173409989,,,,,,,,,,,,,,,,,,,,,,,,,,,,,,,,,,,,,,177.14278566400026,177.14286146899758,177.14287023199722,177.1533173409989,177.1533173409989,178.14917028799755,178.14917028799755,181.15252641599727,181.15252641599727,181.15252641599727,181.15252641599727,181.13354995699774,None,0,None,181.13405822399727,181.13410372299768,None,181.1342193379969,181.1415646489986,None,181.14166359299998,181.14168954999695,None,,,,,,,,,,,,,,,,,,,1,001,0,,2024-04-12_10h05.35.187,replicate_nsd,2023.2.3,59.97307460779113,2024-04-12 10h05.48.126200 -0400,
images/10_40 copy 3.jpg,24,0,0,0,0,"[9, 19, 29, 39, 49, 59, 68, 69, 70, 71]",,,,,0,24,24,24,181.15252641599727,,,,,,,,,,,,,,,,,,,,,,,,,,,,,,,,,,,,,,181.14195513999948,181.1420280909988,181.14203659699706,181.15252641599727,181.15252641599727,182.1495643169983,182.1495643169983,185.1551278859988,185.1551278859988,185.1551278859988,185.1551278859988,185.13429268099935,None,0,None,185.13479980299962,185.13484473399876,None,185.1349590949976,185.14248419999785,None,185.14258467899708,185.14261141599854,None,,,,,,,,,,,,,,,,,,,1,001,0,,2024-04-12_10h05.35.187,replicate_nsd,2023.2.3,59.97307460779113,2024-04-12 10h05.48.126200 -0400,
images/22_28 copy 2.jpg,25,0,0,0,0,"[9, 19, 29, 39, 49, 59, 68, 69, 70, 71]",,,,,0,25,25,25,185.1551278859988,,,,,,,,,,,,,,,,,,,,,,,,,,,,,,,,,,,,,,185.1428791679973,185.14295450699865,185.1429628859987,185.1551278859988,185.1551278859988,186.14960333099953,186.14960333099953,189.15393823499835,189.15393823499835,189.15393823499835,189.15393823499835,189.13416781999695,None,0,None,189.1346721259979,189.13471737599684,None,189.13483128499865,189.14221646499936,None,189.14232040599745,189.14234694999686,None,,,,,,,,,,,,,,,,,,,1,001,0,,2024-04-12_10h05.35.187,replicate_nsd,2023.2.3,59.97307460779113,2024-04-12 10h05.48.126200 -0400,
images/18_0 copy 3.jpg,26,0,0,0,0,"[9, 19, 29, 39, 49, 59, 68, 69, 70, 71]",,,,,0,26,26,26,189.15393823499835,,,,,,,,,,,,,,,,,,,,,,,,,,,,,,,,,,,,,,189.14262030399914,189.1426966479994,189.14270527699773,189.15393823499835,189.15393823499835,190.14962956999807,190.14962956999807,193.15215267799795,193.15215267799795,193.15215267799795,193.15215267799795,193.1340967420001,None,0,None,193.13461344099778,193.134657786999,None,193.13477508899814,193.1422243499983,None,193.14232365599673,193.14234919399678,None,,,,,,,,,,,,,,,,,,,1,001,0,,2024-04-12_10h05.35.187,replicate_nsd,2023.2.3,59.97307460779113,2024-04-12 10h05.48.126200 -0400,
images/5_40.jpg,27,0,0,0,0,"[9, 19, 29, 39, 49, 59, 68, 69, 70, 71]",,,,,0,27,27,27,193.15215267799795,,,,,,,,,,,,,,,,,,,,,,,,,,,,,,,,,,,,,,193.14261231199998,193.1426873579985,193.14269596499798,193.15215267799795,193.15215267799795,194.15080414399927,194.15080414399927,197.15270903700002,197.15270903700002,197.15270903700002,197.15270903700002,197.13381974199729,None,0,None,197.13432813199688,197.1343726289997,None,197.13448716999847,197.14207645100032,None,197.14217998599997,197.1422070999979,None,,,,,,,,,,,,,,,,,,,1,001,0,,2024-04-12_10h05.35.187,replicate_nsd,2023.2.3,59.97307460779113,2024-04-12 10h05.48.126200 -0400,
images/13_28 copy 4.jpg,28,0,0,0,0,"[9, 19, 29, 39, 49, 59, 68, 69, 70, 71]",,,,,0,28,28,28,197.15270903700002,,,,,,,,,,,,,,,,,,,,,,,,,,,,,,,,,,,,,,197.14248076399963,197.14255772999968,197.1425665099996,197.15270903700002,197.15270903700002,198.150970106999,198.150970106999,201.14964804099873,201.14964804099873,201.14964804099873,201.14964804099873,201.13298239099822,None,0,None,201.13322509799764,201.13324576299783,None,201.13329919699754,201.13786288399933,None,201.13793347599858,201.13795196799765,None,,,,,,,,,,,,,,,,,,,1,001,0,,2024-04-12_10h05.35.187,replicate_nsd,2023.2.3,59.97307460779113,2024-04-12 10h05.48.126200 -0400,
images/blank.jpg,29,1,0,0,0,"[9, 19, 29, 39, 49, 59, 68, 69, 70, 71]",,,,,0,29,29,29,201.14964804099873,,,,,,,,,,,,,,,,,,,,,,,,,,,,,,,,,,,,,,201.13814073100002,201.13819318399692,201.13819917,,,,,,,,,201.13968798600035,None,0,None,201.1398516249974,205.13487476999944,None,205.13498890600022,205.1396066950001,None,205.13967756999773,205.13969574499788,None,201.14964804099873,201.14964804099873,205.14902959000028,205.14902959000028,,,,,,,,,,,,,,,1,001,0,,2024-04-12_10h05.35.187,replicate_nsd,2023.2.3,59.97307460779113,2024-04-12 10h05.48.126200 -0400,
images/6_12 copy.jpg,30,0,0,0,0,"[9, 19, 29, 39, 49, 59, 68, 69, 70, 71]",,,,,0,30,30,30,205.14902959000028,,,,,,,,,,,,,,,,,,,,,,,,,,,,,,,,,,,,,,205.13988915899972,205.1399431739992,205.1399490119984,205.14902959000028,205.14902959000028,206.15078130099937,206.15078130099937,209.15016165199995,209.15016165199995,209.15016165199995,209.15016165199995,209.13415924599758,None,0,None,209.13465619499766,209.13470316099847,None,209.13482108899916,209.13488681499803,None,209.13500383099745,209.13504104099775,None,,,,,,,,,,,,,,,,,,,1,001,0,,2024-04-12_10h05.35.187,replicate_nsd,2023.2.3,59.97307460779113,2024-04-12 10h05.48.126200 -0400,
images/6_12 copy 2.jpg,31,0,0,0,0,"[9, 19, 29, 39, 49, 59, 68, 69, 70, 71]",,,,,0,31,31,31,209.15016165199995,,,,,,,,,,,,,,,,,,,,,,,,,,,,,,,,,,,,,,209.13542482199773,209.13553164099721,209.13554402999944,209.15016165199995,209.15016165199995,210.15103787299813,210.15103787299813,213.15543762499874,213.15543762499874,213.15543762499874,213.15543762499874,213.13412464799694,None,0,None,213.13464076599848,213.13468715399722,None,213.13480530299785,213.14233023799898,None,213.14242932100024,213.14245542299977,None,,,,,,,,,,,,,,,,,,,1,001,0,,2024-04-12_10h05.35.187,replicate_nsd,2023.2.3,59.97307460779113,2024-04-12 10h05.48.126200 -0400,
images/pair07 copy 6.jpg,32,0,0,0,0,"[9, 19, 29, 39, 49, 59, 68, 69, 70, 71]",,,,,0,32,32,32,213.15543762499874,,,,,,,,,,,,,,,,,,,,,,,,,,,,,,,,,,,,,,213.14271928499875,213.14279375399929,213.14280333999704,213.15543762499874,213.15543762499874,214.15078932699907,214.15078932699907,217.15112497099835,217.15112497099835,217.15112497099835,217.15112497099835,217.13414810099857,None,0,None,217.13466222699935,217.13470721799968,None,217.134822693999,217.14236195799822,None,217.1424642469974,217.1424910679998,None,,,,,,,,,,,,,,,,,,,1,001,0,,2024-04-12_10h05.35.187,replicate_nsd,2023.2.3,59.97307460779113,2024-04-12 10h05.48.126200 -0400,
images/5_40.jpg,33,0,1,0,0,"[9, 19, 29, 39, 49, 59, 68, 69, 70, 71]",,,,,0,33,33,33,217.15112497099835,,,,,,,,,,,,,,,,,,,,,,,,,,,,,,,,,,,,,,217.1427633839994,217.14283954100028,217.14284824599963,217.15112497099835,217.15112497099835,218.1509429259968,218.1509429259968,221.15581707699675,221.15581707699675,221.15581707699675,221.15581707699675,221.1341768909988,None,0,None,221.13467062199925,221.13471622699944,None,221.13483431900022,221.14233636899735,None,221.14243906999764,221.14246622099745,None,,,,,,,,,,,,,,,,,,,1,001,0,,2024-04-12_10h05.35.187,replicate_nsd,2023.2.3,59.97307460779113,2024-04-12 10h05.48.126200 -0400,
images/pair15 copy 5.jpg,34,0,0,0,0,"[9, 19, 29, 39, 49, 59, 68, 69, 70, 71]",,,,,0,34,34,34,221.15581707699675,,,,,,,,,,,,,,,,,,,,,,,,,,,,,,,,,,,,,,221.14274034399932,221.14281536099952,221.1428255519968,221.15581707699675,221.15581707699675,222.15102982999815,222.15102982999815,225.1539276399999,225.1539276399999,225.1539276399999,225.1539276399999,225.1341859569984,None,0,None,225.1347013199993,225.13474759499877,None,225.1348633029993,225.1426205229982,None,225.14272358000017,225.14275035099854,None,,,,,,,,,,,,,,,,,,,1,001,0,,2024-04-12_10h05.35.187,replicate_nsd,2023.2.3,59.97307460779113,2024-04-12 10h05.48.126200 -0400,
images/17_40 copy.jpg,35,0,0,0,0,"[9, 19, 29, 39, 49, 59, 68, 69, 70, 71]",,,,,0,35,35,35,225.1539276399999,,,,,,,,,,,,,,,,,,,,,,,,,,,,,,,,,,,,,,225.14302431299802,225.14310094999746,225.14310966799894,225.1539276399999,225.1539276399999,226.1508248789978,226.1508248789978,229.1528839169987,229.1528839169987,229.1528839169987,229.1528839169987,229.13369972999863,None,0,None,229.13419266199708,229.13423820599928,None,229.13435554999887,229.14186504199824,None,229.14196958699904,229.1419963269982,None,,,,,,,,,,,,,,,,,,,1,001,0,,2024-04-12_10h05.35.187,replicate_nsd,2023.2.3,59.97307460779113,2024-04-12 10h05.48.126200 -0400,
images/5_28 copy 6.jpg,36,0,0,0,0,"[9, 19, 29, 39, 49, 59, 68, 69, 70, 71]",,,,,0,36,36,36,229.1528839169987,,,,,,,,,,,,,,,,,,,,,,,,,,,,,,,,,,,,,,229.14227209199817,229.14234830299756,229.1423568350001,229.1528839169987,229.1528839169987,230.150698180998,230.150698180998,233.15431319799973,233.15431319799973,233.15431319799973,233.15431319799973,233.13390443999742,None,0,None,233.13441920199693,233.13446368899895,None,233.13457846599704,233.1423548419989,None,233.14245702599874,233.1424838819985,None,,,,,,,,,,,,,,,,,,,1,001,0,,2024-04-12_10h05.35.187,replicate_nsd,2023.2.3,59.97307460779113,2024-04-12 10h05.48.126200 -0400,
images/22_40.jpg,37,0,0,0,0,"[9, 19, 29, 39, 49, 59, 68, 69, 70, 71]",,,,,0,37,37,37,233.15431319799973,,,,,,,,,,,,,,,,,,,,,,,,,,,,,,,,,,,,,,233.14276138999776,233.14283745399734,233.14284622899868,233.15431319799973,233.15431319799973,234.15079722599694,234.15079722599694,237.15086042399707,237.15086042399707,237.15086042399707,237.15086042399707,237.13373940999736,None,0,None,237.1342503909982,237.1342962689996,None,237.13441293099822,237.14194817099997,None,237.14205064499765,237.1420774299986,None,,,,,,,,,,,,,,,,,,,1,001,0,,2024-04-12_10h05.35.187,replicate_nsd,2023.2.3,59.97307460779113,2024-04-12 10h05.48.126200 -0400,
images/18_0 copy 3.jpg,38,0,1,0,0,"[9, 19, 29, 39, 49, 59, 68, 69, 70, 71]",,,,,0,38,38,38,237.15086042399707,,,,,,,,,,,,,,,,,,,,,,,,,,,,,,,,,,,,,,237.14235168399682,237.14242812099837,237.1424382969999,237.15086042399707,237.15086042399707,238.1507844359985,238.1507844359985,241.15079184099886,241.15079184099886,241.15079184099886,241.15079184099886,241.13412760999927,None,0,None,241.13462131099732,241.13466635700024,None,241.13478141199812,241.1423728970003,None,241.14247284299927,241.14249867499893,None,,,,,,,,,,,,,,,,,,,1,001,0,,2024-04-12_10h05.35.187,replicate_nsd,2023.2.3,59.97307460779113,2024-04-12 10h05.48.126200 -0400,
images/blank.jpg,39,1,0,0,0,"[9, 19, 29, 39, 49, 59, 68, 69, 70, 71]",,,,,0,39,39,39,241.15079184099886,,,,,,,,,,,,,,,,,,,,,,,,,,,,,,,,,,,,,,241.14276129499922,241.14283664299728,241.14284625399887,,,,,,,,,241.1449128469976,None,0,None,241.14521105499807,245.1339814569983,None,245.13420612799746,245.14188334999926,None,245.14199676699718,245.1420238669998,None,241.15079184099886,241.15079184099886,245.15316030199756,245.15316030199756,,,,,,,,,,,,,,,1,001,0,,2024-04-12_10h05.35.187,replicate_nsd,2023.2.3,59.97307460779113,2024-04-12 10h05.48.126200 -0400,
images/13_0 copy 7.jpg,40,0,0,0,0,"[9, 19, 29, 39, 49, 59, 68, 69, 70, 71]",,,,,0,40,40,40,245.15316030199756,,,,,,,,,,,,,,,,,,,,,,,,,,,,,,,,,,,,,,245.14230255099756,245.14238713899977,245.14239571699727,245.15316030199756,245.15316030199756,246.15106580499923,246.15106580499923,249.1499538809985,249.1499538809985,249.1499538809985,249.1499538809985,249.13409548399795,None,0,None,249.13461242199992,249.13465899099901,None,249.13477559699822,249.13484026699734,None,249.13495624799907,249.13499180699728,None,,,,,,,,,,,,,,,,,,,1,001,0,,2024-04-12_10h05.35.187,replicate_nsd,2023.2.3,59.97307460779113,2024-04-12 10h05.48.126200 -0400,
images/pair12 copy 2.jpg,41,0,0,0,0,"[9, 19, 29, 39, 49, 59, 68, 69, 70, 71]",,,,,0,41,41,41,249.1499538809985,,,,,,,,,,,,,,,,,,,,,,,,,,,,,,,,,,,,,,249.13537354899745,249.1354837580002,249.13549656299801,249.1499538809985,249.1499538809985,250.15107620699928,250.15107620699928,253.1532716139991,253.1532716139991,253.1532716139991,253.1532716139991,253.13409279799816,None,0,None,253.13460667699837,253.13465215999895,None,253.1347674739991,253.1422096949973,None,253.14230836599745,253.14233432999754,None,,,,,,,,,,,,,,,,,,,1,001,0,,2024-04-12_10h05.35.187,replicate_nsd,2023.2.3,59.97307460779113,2024-04-12 10h05.48.126200 -0400,
images/16_40 copy 5.jpg,42,0,0,0,0,"[9, 19, 29, 39, 49, 59, 68, 69, 70, 71]",,,,,0,42,42,42,253.1532716139991,,,,,,,,,,,,,,,,,,,,,,,,,,,,,,,,,,,,,,253.14259748899713,253.14267193199703,253.1426817219981,253.1532716139991,253.1532716139991,254.15066338699762,254.15066338699762,257.15335721799784,257.15335721799784,257.15335721799784,257.15335721799784,257.13377910099734,None,0,None,257.1342930539977,257.13433838499986,None,257.13445697099814,257.1419663409979,None,257.14206934999675,257.1420961969998,None,,,,,,,,,,,,,,,,,,,1,001,0,,2024-04-12_10h05.35.187,replicate_nsd,2023.2.3,59.97307460779113,2024-04-12 10h05.48.126200 -0400,
images/20_12 copy 4.jpg,43,0,0,0,0,"[9, 19, 29, 39, 49, 59, 68, 69, 70, 71]",,,,,0,43,43,43,257.15335721799784,,,,,,,,,,,,,,,,,,,,,,,,,,,,,,,,,,,,,,257.14237185699676,257.1424483359988,257.1424581680003,257.15335721799784,257.15335721799784,258.1507513159995,258.1507513159995,261.15463766500034,261.15463766500034,261.15463766500034,261.15463766500034,261.1342222359999,None,0,None,261.134735206997,261.1347812169988,None,261.1348979260001,261.14284876799866,None,261.1429482379972,261.1429746899994,None,,,,,,,,,,,,,,,,,,,1,001,0,,2024-04-12_10h05.35.187,replicate_nsd,2023.2.3,59.97307460779113,2024-04-12 10h05.48.126200 -0400,
images/11_28 copy 5.jpg,44,0,0,0,0,"[9, 19, 29, 39, 49, 59, 68, 69, 70, 71]",,,,,0,44,44,44,261.15463766500034,,,,,,,,,,,,,,,,,,,,,,,,,,,,,,,,,,,,,,261.1432418409968,261.143315805999,261.1433244660002,261.15463766500034,261.15463766500034,262.15076467999825,262.15076467999825,265.1531891019986,265.1531891019986,265.1531891019986,265.1531891019986,265.1337492379971,None,0,None,265.1342390889986,265.13428387899694,None,265.1344003569975,265.1417843039999,None,265.1418862249993,265.1419136329969,None,,,,,,,,,,,,,,,,,,,1,001,0,,2024-04-12_10h05.35.187,replicate_nsd,2023.2.3,59.97307460779113,2024-04-12 10h05.48.126200 -0400,
images/19_40 copy 3.jpg,45,0,0,0,0,"[9, 19, 29, 39, 49, 59, 68, 69, 70, 71]",,,,,0,45,45,45,265.1531891019986,,,,,,,,,,,,,,,,,,,,,,,,,,,,,,,,,,,,,,265.14218686499953,265.1422630729976,265.14227300399943,265.1531891019986,265.1531891019986,266.1507069429972,266.1507069429972,269.1526818370003,269.1526818370003,269.1526818370003,269.1526818370003,269.13410688099975,None,0,None,269.134597778997,269.1346425239972,None,269.1347592619968,269.14210568299677,None,269.1422039270001,269.14222997899924,None,,,,,,,,,,,,,,,,,,,1,001,0,,2024-04-12_10h05.35.187,replicate_nsd,2023.2.3,59.97307460779113,2024-04-12 10h05.48.126200 -0400,
images/18_40 copy 7.jpg,46,0,0,0,0,"[9, 19, 29, 39, 49, 59, 68, 69, 70, 71]",,,,,0,46,46,46,269.1526818370003,,,,,,,,,,,,,,,,,,,,,,,,,,,,,,,,,,,,,,269.1424945479994,269.1425678229971,269.14257750899924,269.1526818370003,269.1526818370003,270.1507274049982,270.1507274049982,273.15259981099734,273.15259981099734,273.15259981099734,273.15259981099734,273.1336702439985,None,0,None,273.1341586870003,273.13420323699756,None,273.13431955600026,273.1417619499989,None,273.14186087899725,273.1418874769988,None,,,,,,,,,,,,,,,,,,,1,001,0,,2024-04-12_10h05.35.187,replicate_nsd,2023.2.3,59.97307460779113,2024-04-12 10h05.48.126200 -0400,
images/12_0 copy 5.jpg,47,0,0,0,0,"[9, 19, 29, 39, 49, 59, 68, 69, 70, 71]",,,,,0,47,47,47,273.15259981099734,,,,,,,,,,,,,,,,,,,,,,,,,,,,,,,,,,,,,,273.1421521109987,273.1422261709995,273.14223555900026,273.15259981099734,273.15259981099734,274.15074873199774,274.15074873199774,277.1508670169969,277.1508670169969,277.1508670169969,277.1508670169969,277.13374290599677,None,0,None,277.1342520139988,277.1342970109981,None,277.1344120239992,277.1419060179978,None,277.14200762399923,277.1420345009974,None,,,,,,,,,,,,,,,,,,,1,001,0,,2024-04-12_10h05.35.187,replicate_nsd,2023.2.3,59.97307460779113,2024-04-12 10h05.48.126200 -0400,
images/23_40 copy 3.jpg,48,0,0,0,0,"[9, 19, 29, 39, 49, 59, 68, 69, 70, 71]",,,,,0,48,48,48,277.1508670169969,,,,,,,,,,,,,,,,,,,,,,,,,,,,,,,,,,,,,,277.1423082399997,277.1423848489976,277.14239453499977,277.1508670169969,277.1508670169969,278.15069307799786,278.15069307799786,281.15057228599835,281.15057228599835,281.15057228599835,281.15057228599835,281.1337222229995,None,0,None,281.1342369209997,281.13428199699774,None,281.134397267997,281.1420461569978,None,281.14214821099813,281.14217512199684,None,,,,,,,,,,,,,,,,,,,1,001,0,,2024-04-12_10h05.35.187,replicate_nsd,2023.2.3,59.97307460779113,2024-04-12 10h05.48.126200 -0400,
images/blank.jpg,49,1,0,0,0,"[9, 19, 29, 39, 49, 59, 68, 69, 70, 71]",,,,,0,49,49,49,281.15057228599835,,,,,,,,,,,,,,,,,,,,,,,,,,,,,,,,,,,,,,281.1424479699999,281.1425253419984,281.1425345619973,,,,,,,,,281.14464192599917,None,0,None,281.1449646589972,285.13397893399815,None,285.134193220998,285.14182501100004,None,285.1419289999976,285.14195666999876,None,281.15057228599835,281.15057228599835,285.15516427499824,285.15516427499824,,,,,,,,,,,,,,,1,001,0,,2024-04-12_10h05.35.187,replicate_nsd,2023.2.3,59.97307460779113,2024-04-12 10h05.48.126200 -0400,
images/pair15 copy 4.jpg,50,0,0,0,0,"[9, 19, 29, 39, 49, 59, 68, 69, 70, 71]",,,,,0,50,50,50,285.15516427499824,,,,,,,,,,,,,,,,,,,,,,,,,,,,,,,,,,,,,,285.14224457199816,285.14232342299874,285.14233206399877,285.15516427499824,285.15516427499824,286.1504350079995,286.1504350079995,289.15009986699806,289.15009986699806,289.15009986699806,289.15009986699806,289.1339722249977,None,0,None,289.13449014399885,289.1345366709975,None,289.1346541969979,289.1347182569989,None,289.1348311239999,289.1348673299981,None,,,,,,,,,,,,,,,,,,,1,001,0,,2024-04-12_10h05.35.187,replicate_nsd,2023.2.3,59.97307460779113,2024-04-12 10h05.48.126200 -0400,
images/8_12 copy 2.jpg,51,0,0,0,0,"[9, 19, 29, 39, 49, 59, 68, 69, 70, 71]",,,,,0,51,51,51,289.15009986699806,,,,,,,,,,,,,,,,,,,,,,,,,,,,,,,,,,,,,,289.1352448999969,289.13535229699846,289.13536478499736,289.15009986699806,289.15009986699806,290.15031382899906,290.15031382899906,293.1489525459983,293.1489525459983,293.1489525459983,293.1489525459983,293.1328616009996,None,0,None,293.13309343199944,293.13311367299684,None,293.1331651299988,293.13760236099915,None,293.13766993399986,293.1376879950003,None,,,,,,,,,,,,,,,,,,,1,001,0,,2024-04-12_10h05.35.187,replicate_nsd,2023.2.3,59.97307460779113,2024-04-12 10h05.48.126200 -0400,
images/13_12.jpg,52,0,0,0,0,"[9, 19, 29, 39, 49, 59, 68, 69, 70, 71]",,,,,0,52,52,52,293.1489525459983,,,,,,,,,,,,,,,,,,,,,,,,,,,,,,,,,,,,,,293.13787084199794,293.13792100299906,293.1379267809971,293.1489525459983,293.1489525459983,294.15046527899904,294.15046527899904,297.1533144690002,297.1533144690002,297.1533144690002,297.1533144690002,297.1336684509988,None,0,None,297.1341582690002,297.13420325999687,None,297.1343174119975,297.1417206240003,None,297.14181817699864,297.14184392899915,None,,,,,,,,,,,,,,,,,,,1,001,0,,2024-04-12_10h05.35.187,replicate_nsd,2023.2.3,59.97307460779113,2024-04-12 10h05.48.126200 -0400,
images/9_0 copy 7.jpg,53,0,0,0,0,"[9, 19, 29, 39, 49, 59, 68, 69, 70, 71]",,,,,0,53,53,53,297.1533144690002,,,,,,,,,,,,,,,,,,,,,,,,,,,,,,,,,,,,,,297.1421067819974,297.1421810139982,297.14218928399714,297.1533144690002,297.1533144690002,298.1506775159978,298.1506775159978,301.154779307999,301.154779307999,301.154779307999,301.154779307999,301.13380565199986,None,0,None,301.13431139399836,301.13435747199765,None,301.13447296899903,301.14215410499673,None,301.14225455799897,301.14228078999804,None,,,,,,,,,,,,,,,,,,,1,001,0,,2024-04-12_10h05.35.187,replicate_nsd,2023.2.3,59.97307460779113,2024-04-12 10h05.48.126200 -0400,
images/9_40.jpg,54,0,0,0,0,"[9, 19, 29, 39, 49, 59, 68, 69, 70, 71]",,,,,0,54,54,54,301.154779307999,,,,,,,,,,,,,,,,,,,,,,,,,,,,,,,,,,,,,,301.1425653459992,301.1426395269991,301.1426493669969,301.154779307999,301.154779307999,302.1506780879972,302.1506780879972,305.153310079997,305.153310079997,305.153310079997,305.153310079997,305.133566941,None,0,None,305.1340769689996,305.1341215419998,None,305.1342374989981,305.14162393399965,None,305.1417221209995,305.1417477279974,None,,,,,,,,,,,,,,,,,,,1,001,0,,2024-04-12_10h05.35.187,replicate_nsd,2023.2.3,59.97307460779113,2024-04-12 10h05.48.126200 -0400,
images/14_0 copy 7.jpg,55,0,0,0,0,"[9, 19, 29, 39, 49, 59, 68, 69, 70, 71]",,,,,0,55,55,55,305.153310079997,,,,,,,,,,,,,,,,,,,,,,,,,,,,,,,,,,,,,,305.1420133569991,305.142087229,305.1420969079991,305.153310079997,305.153310079997,306.1506456549978,306.1506456549978,309.1538352239986,309.1538352239986,309.1538352239986,309.1538352239986,309.13401273899944,None,0,None,309.1345249499973,309.13457022199873,None,309.1346879779994,309.14211203000013,None,309.14221065200036,309.1422371949993,None,,,,,,,,,,,,,,,,,,,1,001,0,,2024-04-12_10h05.35.187,replicate_nsd,2023.2.3,59.97307460779113,2024-04-12 10h05.48.126200 -0400,
images/5_28.jpg,56,0,0,0,0,"[9, 19, 29, 39, 49, 59, 68, 69, 70, 71]",,,,,0,56,56,56,309.1538352239986,,,,,,,,,,,,,,,,,,,,,,,,,,,,,,,,,,,,,,309.1425006879981,309.1425743619984,309.1425837280003,309.1538352239986,309.1538352239986,310.1506557399989,310.1506557399989,313.1524200450003,313.1524200450003,313.1524200450003,313.1524200450003,313.13351448499816,None,0,None,313.13402924899856,313.1340736659986,None,313.13418915599686,313.1414548169996,None,313.1415522979987,313.14157800599787,None,,,,,,,,,,,,,,,,,,,1,001,0,,2024-04-12_10h05.35.187,replicate_nsd,2023.2.3,59.97307460779113,2024-04-12 10h05.48.126200 -0400,
images/17_28 copy 7.jpg,57,0,0,0,0,"[9, 19, 29, 39, 49, 59, 68, 69, 70, 71]",,,,,0,57,57,57,313.1524200450003,,,,,,,,,,,,,,,,,,,,,,,,,,,,,,,,,,,,,,313.1418402599993,313.1419139259997,313.14192342000024,313.1524200450003,313.1524200450003,314.15067266999904,314.15067266999904,317.15318152299733,317.15318152299733,317.15318152299733,317.15318152299733,317.1336799599994,None,0,None,317.1341927879985,317.13423751699884,None,317.13435339499847,317.141812570997,None,317.1419154869982,317.14194271799715,None,,,,,,,,,,,,,,,,,,,1,001,0,,2024-04-12_10h05.35.187,replicate_nsd,2023.2.3,59.97307460779113,2024-04-12 10h05.48.126200 -0400,
images/22_0 copy.jpg,58,0,0,0,0,"[9, 19, 29, 39, 49, 59, 68, 69, 70, 71]",,,,,0,58,58,58,317.15318152299733,,,,,,,,,,,,,,,,,,,,,,,,,,,,,,,,,,,,,,317.14221461499983,317.1422911970003,317.1422999869974,317.15318152299733,317.15318152299733,318.15064827699825,318.15064827699825,321.1501531849972,321.1501531849972,321.1501531849972,321.1501531849972,321.13364722599727,None,0,None,321.13416006199986,321.13420533599856,None,321.13432174699847,321.1418432190003,None,321.14194247499836,321.14196881099997,None,,,,,,,,,,,,,,,,,,,1,001,0,,2024-04-12_10h05.35.187,replicate_nsd,2023.2.3,59.97307460779113,2024-04-12 10h05.48.126200 -0400,
images/blank.jpg,59,1,0,0,0,"[9, 19, 29, 39, 49, 59, 68, 69, 70, 71]",,,,,0,59,59,59,321.1501531849972,,,,,,,,,,,,,,,,,,,,,,,,,,,,,,,,,,,,,,321.1422340539975,321.1423077019972,321.14231627999834,,,,,,,,,321.14439472499726,None,0,None,321.1446746619986,325.133690188999,None,325.1339013889992,325.1415224379998,None,325.14162554799987,325.14165175099697,None,321.1501531849972,321.1501531849972,325.1544022279995,325.1544022279995,,,,,,,,,,,,,,,1,001,0,,2024-04-12_10h05.35.187,replicate_nsd,2023.2.3,59.97307460779113,2024-04-12 10h05.48.126200 -0400,
images/pair12 copy 7.jpg,60,0,0,0,0,"[9, 19, 29, 39, 49, 59, 68, 69, 70, 71]",,,,,0,60,60,60,325.1544022279995,,,,,,,,,,,,,,,,,,,,,,,,,,,,,,,,,,,,,,325.1419230529973,325.1420038619981,325.14201258999674,325.1544022279995,325.1544022279995,326.1502818709996,326.1502818709996,329.149991192,329.149991192,329.149991192,329.149991192,329.1336502899976,None,0,None,329.1341643409978,329.1342108939971,None,329.1343261059992,329.13438923399735,None,329.13450152099904,329.13453748699976,None,,,,,,,,,,,,,,,,,,,1,001,0,,2024-04-12_10h05.35.187,replicate_nsd,2023.2.3,59.97307460779113,2024-04-12 10h05.48.126200 -0400,
images/8_12 copy.jpg,61,0,0,0,0,"[9, 19, 29, 39, 49, 59, 68, 69, 70, 71]",,,,,0,61,61,61,329.149991192,,,,,,,,,,,,,,,,,,,,,,,,,,,,,,,,,,,,,,329.1349140349994,329.13502368899935,329.1350365269973,329.149991192,329.149991192,330.1506728489985,330.1506728489985,333.1521663209969,333.1521663209969,333.1521663209969,333.1521663209969,333.1336335399974,None,0,None,333.13414182699853,333.13418750599885,None,333.1343041439977,333.1415934260003,None,333.1416947209982,333.14172181499816,None,,,,,,,,,,,,,,,,,,,1,001,0,,2024-04-12_10h05.35.187,replicate_nsd,2023.2.3,59.97307460779113,2024-04-12 10h05.48.126200 -0400,
images/24_28 copy 5.jpg,62,0,0,0,0,"[9, 19, 29, 39, 49, 59, 68, 69, 70, 71]",,,,,0,62,62,62,333.1521663209969,,,,,,,,,,,,,,,,,,,,,,,,,,,,,,,,,,,,,,333.1419970129973,333.1420708669975,333.14207921399793,333.1521663209969,333.1521663209969,334.15066124799705,334.15066124799705,337.15501265299827,337.15501265299827,337.15501265299827,337.15501265299827,337.1336464809974,None,0,None,337.13416072199834,337.1342079419992,None,337.1343235280001,337.1417083589986,None,337.1418093559987,337.14183649999904,None,,,,,,,,,,,,,,,,,,,1,001,0,,2024-04-12_10h05.35.187,replicate_nsd,2023.2.3,59.97307460779113,2024-04-12 10h05.48.126200 -0400,
images/pair08 copy 7.jpg,63,0,0,0,0,"[9, 19, 29, 39, 49, 59, 68, 69, 70, 71]",,,,,0,63,63,63,337.15501265299827,,,,,,,,,,,,,,,,,,,,,,,,,,,,,,,,,,,,,,337.1421073899983,337.1421844340002,337.1421938739986,337.15501265299827,337.15501265299827,338.1505361210002,338.1505361210002,341.15465339399816,341.15465339399816,341.15465339399816,341.15465339399816,341.1337426399987,None,0,None,341.13427668799704,341.1343283879978,None,341.1344566179978,341.1420733899977,None,341.1421768779983,341.1422038719975,None,,,,,,,,,,,,,,,,,,,1,001,0,,2024-04-12_10h05.35.187,replicate_nsd,2023.2.3,59.97307460779113,2024-04-12 10h05.48.126200 -0400,
images/21_40.jpg,64,0,0,0,0,"[9, 19, 29, 39, 49, 59, 68, 69, 70, 71]",,,,,0,64,64,64,341.15465339399816,,,,,,,,,,,,,,,,,,,,,,,,,,,,,,,,,,,,,,341.1424785479976,341.1425592809974,341.1425678909982,341.15465339399816,341.15465339399816,342.1503041579999,342.1503041579999,345.1529451159986,345.1529451159986,345.1529451159986,345.1529451159986,345.133741190999,None,0,None,345.1342519919999,345.1342969929974,None,345.1344128159981,345.14191099899836,None,345.14201232199775,345.1420391009997,None,,,,,,,,,,,,,,,,,,,1,001,0,,2024-04-12_10h05.35.187,replicate_nsd,2023.2.3,59.97307460779113,2024-04-12 10h05.48.126200 -0400,
images/9_28 copy 6.jpg,65,0,0,0,0,"[9, 19, 29, 39, 49, 59, 68, 69, 70, 71]",,,,,0,65,65,65,345.1529451159986,,,,,,,,,,,,,,,,,,,,,,,,,,,,,,,,,,,,,,345.14231158799885,345.1423872899977,345.1423957429979,345.1529451159986,345.1529451159986,346.1506168649976,346.1506168649976,349.152953261997,349.152953261997,349.152953261997,349.152953261997,349.13345090799703,None,0,None,349.1339408999993,349.13398564999807,None,349.13410132999707,349.14155539999774,None,349.1416570709989,349.1416835559976,None,,,,,,,,,,,,,,,,,,,1,001,0,,2024-04-12_10h05.35.187,replicate_nsd,2023.2.3,59.97307460779113,2024-04-12 10h05.48.126200 -0400,
images/22_0 copy 6.jpg,66,0,0,0,0,"[9, 19, 29, 39, 49, 59, 68, 69, 70, 71]",,,,,0,66,66,66,349.152953261997,,,,,,,,,,,,,,,,,,,,,,,,,,,,,,,,,,,,,,349.1419594199979,349.14203587799784,349.1420446659977,349.152953261997,349.152953261997,350.1505886669984,350.1505886669984,353.14932981899983,353.14932981899983,353.14932981899983,353.14932981899983,353.1326195139991,None,0,None,353.13286617599806,353.13288580099834,None,353.1329369689993,353.13739604299917,None,353.13746449099926,353.1374826020001,None,,,,,,,,,,,,,,,,,,,1,001,0,,2024-04-12_10h05.35.187,replicate_nsd,2023.2.3,59.97307460779113,2024-04-12 10h05.48.126200 -0400,
images/pair07 copy.jpg,67,0,0,0,0,"[9, 19, 29, 39, 49, 59, 68, 69, 70, 71]",,,,,0,67,67,67,353.14932981899983,,,,,,,,,,,,,,,,,,,,,,,,,,,,,,,,,,,,,,353.13766309199855,353.1377157539973,353.13772139499997,353.14932981899983,353.14932981899983,354.15047785799834,354.15047785799834,357.1486519309983,357.1486519309983,357.1486519309983,357.1486519309983,357.1326450819979,None,0,None,357.13287917100024,357.1328994129981,None,357.1329511269978,357.1373963499973,None,357.13746430299943,357.13748223499715,None,,,,,,,,,,,,,,,,,,,1,001,0,,2024-04-12_10h05.35.187,replicate_nsd,2023.2.3,59.97307460779113,2024-04-12 10h05.48.126200 -0400,
images/blank.jpg,68,1,0,0,0,"[9, 19, 29, 39, 49, 59, 68, 69, 70, 71]",,,,,0,68,68,68,357.1486519309983,,,,,,,,,,,,,,,,,,,,,,,,,,,,,,,,,,,,,,357.13766676399973,357.13771776999783,357.1377234629981,,,,,,,,,357.139595810997,None,0,None,357.1397515179997,361.1335969549982,None,361.13380975799737,361.1416416949978,None,361.1417415340002,361.1417675849989,None,357.1486519309983,357.1486519309983,361.1500368429988,361.1500368429988,,,,,,,,,,,,,,,1,001,0,,2024-04-12_10h05.35.187,replicate_nsd,2023.2.3,59.97307460779113,2024-04-12 10h05.48.126200 -0400,
images/blank.jpg,69,1,0,0,0,"[9, 19, 29, 39, 49, 59, 68, 69, 70, 71]",,,,,0,69,69,69,361.1500368429988,,,,,,,,,,,,,,,,,,,,,,,,,,,,,,,,,,,,,,361.1420330359979,361.1421110279989,361.14211959399836,,,,,,,,,361.1442663050002,None,0,None,361.1445362009981,365.1336809280001,None,365.13390167000034,365.1339760899973,None,365.1341299779997,365.1341725639977,None,361.1500368429988,361.1500368429988,365.14999541699945,365.14999541699945,,,,,,,,,,,,,,,1,001,0,,2024-04-12_10h05.35.187,replicate_nsd,2023.2.3,59.97307460779113,2024-04-12 10h05.48.126200 -0400,
images/blank.jpg,70,1,0,0,0,"[9, 19, 29, 39, 49, 59, 68, 69, 70, 71]",,,,,0,70,70,70,365.14999541699945,,,,,,,,,,,,,,,,,,,,,,,,,,,,,,,,,,,,,,365.1345957049998,365.13471863499944,365.13473123899894,,,,,,,,,365.13730122799825,None,0,None,365.13762231599685,369.13360668199675,None,369.1338203319974,369.133889515997,None,369.13402205799866,369.13405919399884,None,365.14999541699945,365.14999541699945,369.1499064819982,369.1499064819982,,,,,,,,,,,,,,,1,001,0,,2024-04-12_10h05.35.187,replicate_nsd,2023.2.3,59.97307460779113,2024-04-12 10h05.48.126200 -0400,
images/blank.jpg,71,1,0,1,0,"[9, 19, 29, 39, 49, 59, 68, 69, 70, 71]",,,,,0,71,71,71,369.1499064819982,,,,,,,,,,,,,,,,,,,,,,,,,,,,,,,,,,,,,,369.1344523480002,369.13456869699803,369.1345810719977,,,,,,,,,369.1376252230002,None,0,None,369.1381128840003,373.135553529999,None,373.13576839899906,386.4209729699978,space,386.4218742849989,387.7827194450001,5,369.1499064819982,369.1499064819982,373.15013969699794,373.15013969699794,373.15013969699794,373.15013969699794,13.252017932001763,None,386.43599569899743,386.43599569899743,1.3422064670012332,None,,,,,,,1,001,0,,2024-04-12_10h05.35.187,replicate_nsd,2023.2.3,59.97307460779113,2024-04-12 10h05.48.126200 -0400,
images/12_40.jpg,0,0,1,0,1,"[9, 19, 31, 42, 56, 68, 69, 70, 71]",,,,,0,72,72,72,387.79868551899926,,,,,,,,,,,,,,,,,,,,,,,,,,,,,,,,,,,,,,387.783772494,387.7838559459997,387.7838640319969,387.79868551899926,387.79868551899926,388.8005533659998,388.8005533659998,391.7987056619968,391.7987056619968,391.7987056619968,391.7987056619968,391.7837073339979,1,0,"['1', '2', '1', '2', '1', '2', '1', '2', '1', '2', '1', '2', '2', '1']",391.78673442799845,391.78677350199723,None,391.78687453999737,391.78692761899947,None,391.7870241499986,391.78705419799735,None,,,,,,,,,,,,,2.8537918949987215,None,"[2.063541609000822, 2.227690736999648, 2.403636125000048, 2.5154843689997506, 2.6475089419982396, 2.767657332999079, 2.891633966999507, 3.0036164810007904, 3.1515029670008516, 3.2756357899997965, 3.407702870998037, 3.5195035680008004, 3.7195036979974248, 3.8556473909993656]","[None, None, None, None, None, None, None, None, None, None, None, None, None, None]",,,1,001,0,,2024-04-12_10h05.35.187,replicate_nsd,2023.2.3,59.97307460779113,2024-04-12 10h05.48.126200 -0400,
images/10_0 copy 6.jpg,1,0,0,0,1,"[9, 19, 31, 42, 56, 68, 69, 70, 71]",,,,,0,73,73,73,391.7987056619968,,,,,,,,,,,,,,,,,,,,,,,,,,,,,,,,,,,,,,391.7873607469992,391.78744845599795,391.7874585509999,391.7987056619968,391.7987056619968,392.80059219899704,392.80059219899704,395.804210686998,395.804210686998,395.804210686998,395.804210686998,395.78381232599713,1,1,"['1', '2', '1', '2', '1', '1', '1', '1', '1', '1', '1', '1', '1', '1', '1', '1']",395.78487745599705,395.78492332899987,None,395.7850361279998,395.79252499299764,None,395.79262331299833,395.7926497890003,None,,,,,,,,,,,,,2.797651983000833,None,"[0.15152617700005067, 0.21949091300120926, 0.37948643100025947, 1.2716408929991303, 1.5436523800017312, 1.7756426230007492, 1.9596823020001466, 2.1515037220015074, 2.3436507190017437, 2.5514977279999584, 2.7556418560016027, 2.951501912000822, 3.159664179001993, 3.3596313019988884, 3.57168589900175, 3.7995421330015233]","[None, None, None, None, None, None, None, None, None, None, None, None, None, None, None, None]",,,1,001,0,,2024-04-12_10h05.35.187,replicate_nsd,2023.2.3,59.97307460779113,2024-04-12 10h05.48.126200 -0400,
images/16_0 copy.jpg,2,0,0,0,1,"[9, 19, 31, 42, 56, 68, 69, 70, 71]",,,,,0,74,74,74,395.804210686998,,,,,,,,,,,,,,,,,,,,,,,,,,,,,,,,,,,,,,395.79291231899697,395.792984882999,395.79299324599924,395.804210686998,395.804210686998,396.80054123399896,396.80054123399896,399.80471106799814,399.80471106799814,399.80471106799814,399.80471106799814,399.78360375699776,1,1,"['1', '1', '1', '1', '1', '1', '1', '1', '1', '1', '1', '1', '1', '1', '1', '1', '1']",399.78455836399735,399.7846049660002,None,399.78471865999745,399.79251738199673,None,399.7926152759974,399.79264092499943,None,,,,,,,,,,,,,2.9058611689979443,None,"[0.0061410220005200244, 0.2181504309992306, 0.43411218899927917, 0.6539639740003622, 0.8580215319998388, 1.1139817619987298, 1.3341135929986194, 1.5620467650005594, 1.7701245579992246, 2.0221431509999093, 2.2541553729970474, 2.4980658069980564, 2.7259813389973715, 3.1621563240005344, 3.3701248549987213, 3.6299843179986055, 3.902183686997887]","[None, None, None, None, None, None, None, None, None, None, None, None, None, None, None, None, None]",,,1,001,0,,2024-04-12_10h05.35.187,replicate_nsd,2023.2.3,59.97307460779113,2024-04-12 10h05.48.126200 -0400,
images/20_12.jpg,3,0,0,0,1,"[9, 19, 31, 42, 56, 68, 69, 70, 71]",,,,,0,75,75,75,399.80471106799814,,,,,,,,,,,,,,,,,,,,,,,,,,,,,,,,,,,,,,399.79290209899773,399.79297510099786,399.792983602998,399.80471106799814,399.80471106799814,400.8004690050002,400.8004690050002,403.80060740099725,403.80060740099725,403.80060740099725,403.80060740099725,403.7834998849976,1,1,"['1', '1', '1', '1', '1', '1', '1', '1', '1', '1', '1', '1', '1', '1', '1', '1']",403.7844473570003,403.7844934099994,None,403.7846065979975,403.7917598690001,None,403.79185826899993,403.7918839899976,None,,,,,,,,,,,,,2.8497356370025955,None,"[0.1336472870025318, 0.4094684940027946, 0.6494682160009688, 0.88548540100237, 1.1336297300003935, 1.377643119001732, 1.653676837002422, 1.92547920600191, 2.169610234999709, 2.4216581050022796, 2.673470278001332, 2.913482449002913, 3.1575198720020126, 3.389642330002971, 3.6176334340016183, 3.845485035002639]","[None, None, None, None, None, None, None, None, None, None, None, None, None, None, None, None]",,,1,001,0,,2024-04-12_10h05.35.187,replicate_nsd,2023.2.3,59.97307460779113,2024-04-12 10h05.48.126200 -0400,
images/19_40 copy 3.jpg,4,0,1,0,1,"[9, 19, 31, 42, 56, 68, 69, 70, 71]",,,,,0,76,76,76,403.80060740099725,,,,,,,,,,,,,,,,,,,,,,,,,,,,,,,,,,,,,,403.79214584999863,403.7922188229968,403.7922270329982,403.80060740099725,403.80060740099725,404.7999177549973,404.7999177549973,407.8036853729973,407.8036853729973,407.8036853729973,407.8036853729973,407.78372983999725,2,1,"['1', '1', '1', '1', '1', '1', '1', '1', '1', '1', '2', '2', '1', '2']",407.78468435299874,407.7847300709982,None,407.7848434649968,407.7920950659973,None,407.7921944399968,407.79222021799796,None,,,,,,,,,,,,,2.886460106001323,None,"[0.08161855100115645, 0.3017391450011928, 0.5855999580016942, 0.8175850430015998, 1.1696056200016756, 1.3456205600014073, 1.6816159740010335, 1.9737219290000212, 2.325769921000756, 2.589620589002152, 3.3217391960024543, 3.5816991480023717, 3.7776395510009024, 3.885761323002953]","[None, None, None, None, None, None, None, None, None, None, None, None, None, None]",,,1,001,0,,2024-04-12_10h05.35.187,replicate_nsd,2023.2.3,59.97307460779113,2024-04-12 10h05.48.126200 -0400,
images/11_0 copy 4.jpg,5,0,0,0,1,"[9, 19, 31, 42, 56, 68, 69, 70, 71]",,,,,0,77,77,77,407.8036853729973,,,,,,,,,,,,,,,,,,,,,,,,,,,,,,,,,,,,,,407.7924831309974,407.79255603399724,407.79256460399847,407.8036853729973,407.8036853729973,408.80013537299965,408.80013537299965,411.8354983909994,411.8354983909994,411.8354983909994,411.8354983909994,411.8161402459991,1,1,"['1', '2', '1', '2', '1', '2', '1', '2', '1', '2', '1', '2', '1', '2', '1', '1', '1']",411.8171192089976,411.81716619099825,None,411.81728054199993,411.82441977899725,None,411.8245224860002,411.8245485799998,None,,,,,,,,,,,,,2.9621041969985527,None,"[0.07851602300070226, 0.1906820849981159, 0.39847150599962333, 0.5026904240003205, 0.6906537049981125, 0.6945828520001669, 0.9745333620012389, 1.018652344999282, 1.2626443730005121, 1.6826845989999129, 1.722686754001188, 2.014505750998069, 2.1906503479985986, 2.4385683859982237, 2.566705457000353, 3.2184970429989335, 3.958546926998679]","[None, None, None, None, None, None, None, None, None, None, None, None, None, None, None, None, None]",,,1,001,0,,2024-04-12_10h05.35.187,replicate_nsd,2023.2.3,59.97307460779113,2024-04-12 10h05.48.126200 -0400,
images/12_0 copy 3.jpg,6,0,0,0,1,"[9, 19, 31, 42, 56, 68, 69, 70, 71]",,,,,0,78,78,78,411.8354983909994,,,,,,,,,,,,,,,,,,,,,,,,,,,,,,,,,,,,,,411.82481131199893,411.8248901429979,411.8248985499995,411.8354983909994,411.8354983909994,412.83276439600013,412.83276439600013,415.8327622109973,415.8327622109973,415.8327622109973,415.8327622109973,415.81619348499953,2,0,"['2', '1', '2', '1', '2', '1', '2', '1', '2', '2', '1', '2', '1', '1', '2']",415.8171127619971,415.8171583459989,None,415.8172701809999,415.82446502899984,None,415.8245642969996,415.8245899729991,None,,,,,,,,,,,,,2.957427588000428,None,"[0.42672637599753216, 0.4946866219979711, 0.7627436259972455, 1.1588614079992112, 1.5388517440005671, 1.7668529719994694, 1.8748472439983743, 2.306859058997361, 2.4067138520003937, 2.878738589999557, 2.914706347997708, 3.286881273998006, 3.5348258480007644, 3.8786762689996976, 3.9546849859980284]","[None, None, None, None, None, None, None, None, None, None, None, None, None, None, None]",,,1,001,0,,2024-04-12_10h05.35.187,replicate_nsd,2023.2.3,59.97307460779113,2024-04-12 10h05.48.126200 -0400,
images/24_12 copy.jpg,7,0,0,0,1,"[9, 19, 31, 42, 56, 68, 69, 70, 71]",,,,,0,79,79,79,415.8327622109973,,,,,,,,,,,,,,,,,,,,,,,,,,,,,,,,,,,,,,415.82485466599974,415.8249276789975,415.8249360109985,415.8327622109973,415.8327622109973,416.8331016539996,416.8331016539996,419.83241890099816,419.83241890099816,419.83241890099816,419.83241890099816,419.8161813890001,2,0,"['1', '2', '1', '2', '1', '1', '2', '2', '1', '2', '1', '2', '1', '2', '1', '2', '1', '2']",419.8171320699985,419.81717869699787,None,419.8172917359989,419.8245269250001,None,419.82462564399975,419.82465118399705,None,,,,,,,,,,,,,2.9330987210014428,None,"[0.2575970719990437, 0.5814536489997408, 0.7294720230020175, 1.0416006949999428, 1.0535621529998025, 1.3454586200023186, 1.3695806200012157, 1.653472325000621, 1.9814189030003035, 2.205592237001838, 2.4654673549994186, 2.6014401579996047, 2.873566057001881, 3.049541678999958, 3.3935999570021522, 3.5174374140005966, 3.7215621270006523, 3.9334361710025405]","[None, None, None, None, None, None, None, None, None, None, None, None, None, None, None, None, None, None]",,,1,001,0,,2024-04-12_10h05.35.187,replicate_nsd,2023.2.3,59.97307460779113,2024-04-12 10h05.48.126200 -0400,
images/5_28.jpg,8,0,1,0,1,"[9, 19, 31, 42, 56, 68, 69, 70, 71]",,,,,0,80,80,80,419.83241890099816,,,,,,,,,,,,,,,,,,,,,,,,,,,,,,,,,,,,,,419.8249134689977,419.82498587399823,419.82499407799696,419.83241890099816,419.83241890099816,420.8328215859983,420.8328215859983,423.83238258799975,423.83238258799975,423.83238258799975,423.83238258799975,423.8162587489969,1,0,"['1', '1', '2', '1', '1', '2', '1', '2', '1', '2', '1', '2', '1', '2', '1', '2', '1']",423.81720001400026,423.81724644399947,None,423.81735836999724,423.82443478799905,None,423.824532355,423.82455845099685,None,,,,,,,,,,,,,2.7735671779992117,None,"[0.04985596299957251, 0.2619489959979546, 0.473953746000916, 0.6257640020012332, 1.2298176920012338, 1.4779619100008858, 1.8538993000001938, 2.0699330429997644, 2.2458207579984446, 2.5298161760001676, 2.7298146360008104, 2.9059410139998363, 3.129819353998755, 3.22977691000051, 3.5298289050006133, 3.613742210000055, 3.773960949998582]","[None, None, None, None, None, None, None, None, None, None, None, None, None, None, None, None, None]",,,1,001,0,,2024-04-12_10h05.35.187,replicate_nsd,2023.2.3,59.97307460779113,2024-04-12 10h05.48.126200 -0400,
images/blank.jpg,9,1,0,0,1,"[9, 19, 31, 42, 56, 68, 69, 70, 71]",,,,,0,81,81,81,423.83238258799975,,,,,,,,,,,,,,,,,,,,,,,,,,,,,,,,,,,,,,423.82481862299755,423.82489149299727,423.8248999440002,,,,,,,,,423.8272475729973,None,0,None,423.8277384769972,427.8162033319968,1,427.8174554389989,427.82458662299905,None,427.8246848439994,427.82471102499767,None,423.83238258799975,423.83238258799975,427.83274699699905,427.83274699699905,,,,,,,,,,,,,3.5859387529999367,None,1,001,0,,2024-04-12_10h05.35.187,replicate_nsd,2023.2.3,59.97307460779113,2024-04-12 10h05.48.126200 -0400,
images/10_28 copy 2.jpg,10,0,0,0,1,"[9, 19, 31, 42, 56, 68, 69, 70, 71]",,,,,0,82,82,82,427.83274699699905,,,,,,,,,,,,,,,,,,,,,,,,,,,,,,,,,,,,,,427.82497416099795,427.82505007500004,427.82505838999714,427.83274699699905,427.83274699699905,428.83306154099773,428.83306154099773,431.8328191869987,431.8328191869987,431.8328191869987,431.8328191869987,431.8162295849979,1,1,"['1', '1', '1', '1', '1', '1', '1', '1', '1', '1', '1', '1', '1', '1', '1', '1']",431.81718606199865,431.8172390019972,None,431.81735189999745,431.81741695299934,None,431.8175315469998,431.81756838899673,None,,,,,,,,,,,,,2.79330277400004,None,"[0.029460442998242797, 0.2134964359975129, 0.44548446199769387, 0.7535726679998334, 1.013457852997817, 1.253610479998315, 1.497444844997517, 1.725643662000948, 1.969579436998174, 2.2375810789999377, 2.457598811000935, 2.7215860819997033, 2.937576601998444, 3.3096103469979425, 3.5654962499975227, 3.793615858998237]","[None, None, None, None, None, None, None, None, None, None, None, None, None, None, None, None]",,,1,001,0,,2024-04-12_10h05.35.187,replicate_nsd,2023.2.3,59.97307460779113,2024-04-12 10h05.48.126200 -0400,
images/7_28 copy 7.jpg,11,0,0,0,1,"[9, 19, 31, 42, 56, 68, 69, 70, 71]",,,,,0,83,83,83,431.8328191869987,,,,,,,,,,,,,,,,,,,,,,,,,,,,,,,,,,,,,,431.81795545299974,431.81805919499675,431.8180691569978,431.8328191869987,431.8328191869987,432.83308898799805,432.83308898799805,435.8334873669992,435.8334873669992,435.8334873669992,435.8334873669992,435.8162241789978,1,1,"['1', '1', '1', '1', '1', '1', '1', '1', '1', '1', '1', '1', '1', '1', '1', '1']",435.8171592139988,435.8172045789979,None,435.8173158369973,435.82468887399955,None,435.82478764199914,435.82481381099933,None,,,,,,,,,,,,,2.941264607001358,None,"[0.057519676000083564, 0.2853481460006151, 0.5133833209984004, 0.7695223390001047, 1.0415116580006725, 1.35739169199951, 1.6095312479992572, 1.8615294099981838, 2.089521664998756, 2.3653471559991885, 2.645402149999427, 2.889502750000247, 3.1695101389996125, 3.425539306997962, 3.6695062770013465, 3.941526893999253]","[None, None, None, None, None, None, None, None, None, None, None, None, None, None, None, None]",,,1,001,0,,2024-04-12_10h05.35.187,replicate_nsd,2023.2.3,59.97307460779113,2024-04-12 10h05.48.126200 -0400,
images/11_40 copy 5.jpg,12,0,0,0,1,"[9, 19, 31, 42, 56, 68, 69, 70, 71]",,,,,0,84,84,84,435.8334873669992,,,,,,,,,,,,,,,,,,,,,,,,,,,,,,,,,,,,,,435.82507874899966,435.8251513019968,435.82515981399774,435.8334873669992,435.8334873669992,436.83196315199893,436.83196315199893,439.8323468519993,439.8323468519993,439.8323468519993,439.8323468519993,439.81605759099693,1,1,"['1', '1', '1', '1', '1', '1', '1', '1', '1', '1', '1', '1', '1']",439.81699960100013,439.81704565399923,None,439.8171599149973,439.82428427599734,None,439.8243810849999,439.8244064479986,None,,,,,,,,,,,,,2.830276929998945,None,"[0.1608725450023485, 0.672723619001772, 0.8886651220018393, 1.1167273890023353, 1.3528794199992262, 1.5929011250009353, 1.8167161670025962, 2.068865258999722, 2.324876642000163, 2.988888357001997, 3.22070154299945, 3.51271728500069, 3.8287388770004327]","[None, None, None, None, None, None, None, None, None, None, None, None, None]",,,1,001,0,,2024-04-12_10h05.35.187,replicate_nsd,2023.2.3,59.97307460779113,2024-04-12 10h05.48.126200 -0400,
images/21_0 copy.jpg,13,0,0,0,1,"[9, 19, 31, 42, 56, 68, 69, 70, 71]",,,,,0,85,85,85,439.8323468519993,,,,,,,,,,,,,,,,,,,,,,,,,,,,,,,,,,,,,,439.82466512099927,439.8247359639972,439.8247440979976,439.8323468519993,439.8323468519993,440.8319480989994,440.8319480989994,443.83117584999854,443.83117584999854,443.83117584999854,443.83117584999854,443.8169242099975,1,1,"['1', '1', '1', '1', '1', '1', '1', '1', '1', '1', '2', '1', '2', '1', '1', '1']",443.8174255539998,443.817448562997,None,443.81750484499935,443.8226285569981,None,443.82270466799673,443.8227241959976,None,,,,,,,,,,,,,2.474268171998119,None,"[0.11785189199872548, 0.40597489200081327, 0.6299236480008403, 0.8978793880014564, 1.145810802001506, 1.401828922000277, 1.5778323449994787, 1.9578008749995206, 2.201790257000539, 2.4218310530013696, 2.789831349000451, 3.0137828100014303, 3.0899391120001383, 3.2098372130021744, 3.401835666001716, 3.4738562849997834]","[None, None, None, None, None, None, None, None, None, None, None, None, None, None, None, None]",,,1,001,0,,2024-04-12_10h05.35.187,replicate_nsd,2023.2.3,59.97307460779113,2024-04-12 10h05.48.126200 -0400,
images/17_28 copy.jpg,14,0,0,0,1,"[9, 19, 31, 42, 56, 68, 69, 70, 71]",,,,,0,86,86,86,443.83117584999854,,,,,,,,,,,,,,,,,,,,,,,,,,,,,,,,,,,,,,443.8229222319969,443.82297992299937,443.8229861229993,443.83117584999854,443.83117584999854,444.8330319489978,444.8330319489978,447.8335827869996,447.8335827869996,447.8335827869996,447.8335827869996,447.81616682899767,None,0,None,447.81667615900005,447.81672196,None,447.8168383939992,447.8241392239979,None,447.82423741699677,447.82426361899707,None,,,,,,,,,,,,,,,,,,,1,001,0,,2024-04-12_10h05.35.187,replicate_nsd,2023.2.3,59.97307460779113,2024-04-12 10h05.48.126200 -0400,
images/22_28 copy 3.jpg,15,0,0,0,1,"[9, 19, 31, 42, 56, 68, 69, 70, 71]",,,,,0,87,87,87,447.8335827869996,,,,,,,,,,,,,,,,,,,,,,,,,,,,,,,,,,,,,,447.8245250009968,447.8245991719996,447.8246078310003,447.8335827869996,447.8335827869996,448.83306227199864,448.83306227199864,451.8335835809994,451.8335835809994,451.8335835809994,451.8335835809994,451.81619707400023,None,0,None,451.8167053340003,451.8167501989992,None,451.81686549799997,451.824418229,None,451.824520285998,451.8245470269976,None,,,,,,,,,,,,,,,,,,,1,001,0,,2024-04-12_10h05.35.187,replicate_nsd,2023.2.3,59.97307460779113,2024-04-12 10h05.48.126200 -0400,
images/7_28 copy 3.jpg,16,0,0,0,1,"[9, 19, 31, 42, 56, 68, 69, 70, 71]",,,,,0,88,88,88,451.8335835809994,,,,,,,,,,,,,,,,,,,,,,,,,,,,,,,,,,,,,,451.82481798499794,451.8248932569986,451.82490177,451.8335835809994,451.8335835809994,452.8330727479988,452.8330727479988,455.8344372350002,455.8344372350002,455.8344372350002,455.8344372350002,455.81623466699966,None,0,None,455.8167252860003,455.81676924099884,None,455.8168848839996,455.82429077199777,None,455.8243936839972,455.8244205899973,None,,,,,,,,,,,,,,,,,,,1,001,0,,2024-04-12_10h05.35.187,replicate_nsd,2023.2.3,59.97307460779113,2024-04-12 10h05.48.126200 -0400,
images/21_28 copy 6.jpg,17,0,0,0,1,"[9, 19, 31, 42, 56, 68, 69, 70, 71]",,,,,0,89,89,89,455.8344372350002,,,,,,,,,,,,,,,,,,,,,,,,,,,,,,,,,,,,,,455.82468901500033,455.8247639439978,455.82477275899873,455.8344372350002,455.8344372350002,456.83305944899985,456.83305944899985,459.83355940899855,459.83355940899855,459.83355940899855,459.83355940899855,459.81619430599676,None,0,None,459.81668405599703,459.8167295079984,None,459.81684567299817,459.8242309319976,None,459.8243321709997,459.82435914899906,None,,,,,,,,,,,,,,,,,,,1,001,0,,2024-04-12_10h05.35.187,replicate_nsd,2023.2.3,59.97307460779113,2024-04-12 10h05.48.126200 -0400,
images/10_28 copy 5.jpg,18,0,0,0,1,"[9, 19, 31, 42, 56, 68, 69, 70, 71]",,,,,0,90,90,90,459.83355940899855,,,,,,,,,,,,,,,,,,,,,,,,,,,,,,,,,,,,,,459.82462924799984,459.82470389599985,459.8247126979986,459.83355940899855,459.83355940899855,460.8331370630003,460.8331370630003,463.8495840519972,463.8495840519972,463.8495840519972,463.8495840519972,463.8162491589974,None,0,None,463.8167566189986,463.816800927998,None,463.81691628899716,463.8243546729973,None,463.82445289599855,463.8244787900003,None,,,,,,,,,,,,,,,,,,,1,001,0,,2024-04-12_10h05.35.187,replicate_nsd,2023.2.3,59.97307460779113,2024-04-12 10h05.48.126200 -0400,
images/blank.jpg,19,1,0,0,1,"[9, 19, 31, 42, 56, 68, 69, 70, 71]",,,,,0,91,91,91,463.8495840519972,,,,,,,,,,,,,,,,,,,,,,,,,,,,,,,,,,,,,,463.8247422259992,463.824815279997,463.8248238209999,,,,,,,,,463.8269239429974,None,0,None,463.8272290629975,467.8162385979995,None,467.8164559979996,467.8240257079997,None,467.8241298409994,467.8241572939987,None,463.8495840519972,463.8495840519972,,,,,,,,,,,,,,,,,1,001,0,,2024-04-12_10h05.35.187,replicate_nsd,2023.2.3,59.97307460779113,2024-04-12 10h05.48.126200 -0400,
images/10_12 copy 7.jpg,20,0,0,0,1,"[9, 19, 31, 42, 56, 68, 69, 70, 71]",,,,,0,92,92,92,467.8347914579972,,,,,,,,,,,,,,,,,,,,,,,,,,,,,,,,,,,,,,467.82443648299886,467.82451707699875,467.82452593799826,467.8347914579972,467.8347914579972,468.83304498699727,468.83304498699727,471.8320781729999,471.8320781729999,471.8320781729999,471.8320781729999,471.8181618509989,None,0,None,471.81865024999934,471.81869543799985,None,471.81881181599965,471.8188769579974,None,471.81899078999777,471.8190273529981,None,,,,,,,,,,,,,,,,,,,1,001,0,,2024-04-12_10h05.35.187,replicate_nsd,2023.2.3,59.97307460779113,2024-04-12 10h05.48.126200 -0400,
images/22_28 copy 6.jpg,21,0,0,0,1,"[9, 19, 31, 42, 56, 68, 69, 70, 71]",,,,,0,93,93,93,471.8320781729999,,,,,,,,,,,,,,,,,,,,,,,,,,,,,,,,,,,,,,471.81940442999985,471.81951118699726,471.81952388599893,471.8320781729999,471.8320781729999,472.833045864998,472.833045864998,475.83680235299835,475.83680235299835,475.83680235299835,475.83680235299835,475.8182830959995,None,0,None,475.81879062499866,475.8188372919976,None,475.8189520909982,475.8264003939985,None,475.8264960460001,475.82652092100034,None,,,,,,,,,,,,,,,,,,,1,001,0,,2024-04-12_10h05.35.187,replicate_nsd,2023.2.3,59.97307460779113,2024-04-12 10h05.48.126200 -0400,
images/20_0 copy 3.jpg,22,0,0,0,1,"[9, 19, 31, 42, 56, 68, 69, 70, 71]",,,,,0,94,94,94,475.83680235299835,,,,,,,,,,,,,,,,,,,,,,,,,,,,,,,,,,,,,,475.82677640699694,475.82685030599896,475.8268584789985,475.83680235299835,475.83680235299835,476.83307197199974,476.83307197199974,479.83379195999805,479.83379195999805,479.83379195999805,479.83379195999805,479.8159800289977,2,0,"['1', '2', '1', '2']",479.81661181699747,479.81664311299755,None,479.8167267969984,479.82318982200013,None,479.8232853720001,479.8233109049979,None,,,,,,,,,,,,,2.8371729729988147,None,"[3.3093870150005387, 3.5735601920023328, 3.6895364000010886, 3.833428191999701]","[None, None, None, None]",,,1,001,0,,2024-04-12_10h05.35.187,replicate_nsd,2023.2.3,59.97307460779113,2024-04-12 10h05.48.126200 -0400,
images/11_28 copy 6.jpg,23,0,0,0,1,"[9, 19, 31, 42, 56, 68, 69, 70, 71]",,,,,0,95,95,95,479.83379195999805,,,,,,,,,,,,,,,,,,,,,,,,,,,,,,,,,,,,,,479.82356718299707,479.823638783997,479.8236472619974,479.83379195999805,479.83379195999805,480.8330813829998,480.8330813829998,483.835045222997,483.835045222997,483.835045222997,483.835045222997,483.81587354099975,None,0,"['1', '2', '1']",483.81658880800023,483.8166346830003,None,483.8167457489981,483.8240696739995,None,483.8241666169997,483.8241921689987,None,,,,,,,,,,,,,,,"[0.012430345002940157, 0.10035996300211991, 0.22045659400100703]","[None, None, None]",,,1,001,0,,2024-04-12_10h05.35.187,replicate_nsd,2023.2.3,59.97307460779113,2024-04-12 10h05.48.126200 -0400,
images/pair06 copy 3.jpg,24,0,0,0,1,"[9, 19, 31, 42, 56, 68, 69, 70, 71]",,,,,0,96,96,96,483.835045222997,,,,,,,,,,,,,,,,,,,,,,,,,,,,,,,,,,,,,,483.82445543299764,483.82452785499845,483.82453607799835,483.835045222997,483.835045222997,484.8330717139979,484.8330717139979,487.8342994359991,487.8342994359991,487.8342994359991,487.8342994359991,487.816227755,None,0,None,487.816745549997,487.81679243799954,None,487.81690946099843,487.824228174999,None,487.8243265349993,487.82435250999697,None,,,,,,,,,,,,,,,,,,,1,001,0,,2024-04-12_10h05.35.187,replicate_nsd,2023.2.3,59.97307460779113,2024-04-12 10h05.48.126200 -0400,
images/9_40 copy 3.jpg,25,0,0,0,1,"[9, 19, 31, 42, 56, 68, 69, 70, 71]",,,,,0,97,97,97,487.8342994359991,,,,,,,,,,,,,,,,,,,,,,,,,,,,,,,,,,,,,,487.82461578400034,487.82468953499847,487.8246979249998,487.8342994359991,487.8342994359991,488.83301839999694,488.83301839999694,491.8340304550002,491.8340304550002,491.8340304550002,491.8340304550002,491.81620561599993,None,0,None,491.8166976829998,491.8167460329969,None,491.8168619889984,491.8244338379991,None,491.82453272899875,491.8245581759984,None,,,,,,,,,,,,,,,,,,,1,001,0,,2024-04-12_10h05.35.187,replicate_nsd,2023.2.3,59.97307460779113,2024-04-12 10h05.48.126200 -0400,
images/19_12 copy 3.jpg,26,0,0,0,1,"[9, 19, 31, 42, 56, 68, 69, 70, 71]",,,,,0,98,98,98,491.8340304550002,,,,,,,,,,,,,,,,,,,,,,,,,,,,,,,,,,,,,,491.8248191069979,491.82489386700036,491.8249024769975,491.8340304550002,491.8340304550002,492.83314757399785,492.83314757399785,495.8335754459986,495.8335754459986,495.8335754459986,495.8335754459986,495.8162438379986,None,0,None,495.81674403299985,495.8167895899969,None,495.8169017170003,495.8242223339985,None,495.8243191469992,495.8243444079999,None,,,,,,,,,,,,,,,,,,,1,001,0,,2024-04-12_10h05.35.187,replicate_nsd,2023.2.3,59.97307460779113,2024-04-12 10h05.48.126200 -0400,
images/17_12 copy 3.jpg,27,0,0,0,1,"[9, 19, 31, 42, 56, 68, 69, 70, 71]",,,,,0,99,99,99,495.8335754459986,,,,,,,,,,,,,,,,,,,,,,,,,,,,,,,,,,,,,,495.824599536998,495.8246712229993,495.8246793959988,495.8335754459986,495.8335754459986,496.8330992009978,496.8330992009978,499.83473669999876,499.83473669999876,499.83473669999876,499.83473669999876,499.81566868299706,None,0,None,499.8161725359969,499.81621822399757,None,499.8163322069995,499.8235835989981,None,499.823681889,499.82370748799804,None,,,,,,,,,,,,,,,,,,,1,001,0,,2024-04-12_10h05.35.187,replicate_nsd,2023.2.3,59.97307460779113,2024-04-12 10h05.48.126200 -0400,
images/pair02 copy.jpg,28,0,0,0,1,"[9, 19, 31, 42, 56, 68, 69, 70, 71]",,,,,0,100,100,100,499.83473669999876,,,,,,,,,,,,,,,,,,,,,,,,,,,,,,,,,,,,,,499.823969604,499.82404356199913,499.8240518269995,499.83473669999876,499.83473669999876,500.8325012869973,500.8325012869973,503.8316422969983,503.8316422969983,503.8316422969983,503.8316422969983,503.81685086200014,None,0,None,503.81715315199835,503.8171778219985,None,503.81725027599896,503.8221995929998,None,503.8222775159993,503.82229837999694,None,,,,,,,,,,,,,,,,,,,1,001,0,,2024-04-12_10h05.35.187,replicate_nsd,2023.2.3,59.97307460779113,2024-04-12 10h05.48.126200 -0400,
images/23_0 copy.jpg,29,0,0,0,1,"[9, 19, 31, 42, 56, 68, 69, 70, 71]",,,,,0,101,101,101,503.8316422969983,,,,,,,,,,,,,,,,,,,,,,,,,,,,,,,,,,,,,,503.8225208059994,503.8225799469983,503.82258662499953,503.8316422969983,503.8316422969983,504.8330407639987,504.8330407639987,507.8356911689989,507.8356911689989,507.8356911689989,507.8356911689989,507.8162334139997,None,0,None,507.81673815799877,507.81678358499994,None,507.81689830899995,507.82423695800026,None,507.82433621499877,507.82436182299716,None,,,,,,,,,,,,,,,,,,,1,001,0,,2024-04-12_10h05.35.187,replicate_nsd,2023.2.3,59.97307460779113,2024-04-12 10h05.48.126200 -0400,
images/15_40 copy 4.jpg,30,0,0,0,1,"[9, 19, 31, 42, 56, 68, 69, 70, 71]",,,,,0,102,102,102,507.8356911689989,,,,,,,,,,,,,,,,,,,,,,,,,,,,,,,,,,,,,,507.82462396799747,507.82469786599904,507.82470619000014,507.8356911689989,507.8356911689989,508.83313239999916,508.83313239999916,511.8353771749971,511.8353771749971,511.8353771749971,511.8353771749971,511.81604573000004,None,0,None,511.8165416470001,511.8165842589988,None,511.8166974779997,511.82419215999835,None,511.8242903709979,511.82431592099965,None,,,,,,,,,,,,,,,,,,,1,001,0,,2024-04-12_10h05.35.187,replicate_nsd,2023.2.3,59.97307460779113,2024-04-12 10h05.48.126200 -0400,
images/blank.jpg,31,1,0,0,1,"[9, 19, 31, 42, 56, 68, 69, 70, 71]",,,,,0,103,103,103,511.8353771749971,,,,,,,,,,,,,,,,,,,,,,,,,,,,,,,,,,,,,,511.8245802539968,511.8246526419971,511.82466074999684,,,,,,,,,511.8306162999979,None,0,None,511.8309334659971,515.8180578569991,None,515.8182672179973,515.8257177269988,None,515.8258156119991,515.8258413509975,None,511.8353771749971,511.8353771749971,515.8328708999979,515.8328708999979,,,,,,,,,,,,,,,1,001,0,,2024-04-12_10h05.35.187,replicate_nsd,2023.2.3,59.97307460779113,2024-04-12 10h05.48.126200 -0400,
images/20_12.jpg,32,0,1,0,1,"[9, 19, 31, 42, 56, 68, 69, 70, 71]",,,,,0,104,104,104,515.8328708999979,,,,,,,,,,,,,,,,,,,,,,,,,,,,,,,,,,,,,,515.8261038049968,515.8261813319987,515.8261893569979,515.8328708999979,515.8328708999979,516.8330375269979,516.8330375269979,519.832013670999,519.832013670999,519.832013670999,519.832013670999,519.8162559639968,None,0,None,519.8167617549989,519.8168083059973,None,519.8169209729967,519.8169856809982,None,519.8170984850003,519.8171339729997,None,,,,,,,,,,,,,,,,,,,1,001,0,,2024-04-12_10h05.35.187,replicate_nsd,2023.2.3,59.97307460779113,2024-04-12 10h05.48.126200 -0400,
images/20_28 copy.jpg,33,0,0,0,1,"[9, 19, 31, 42, 56, 68, 69, 70, 71]",,,,,0,105,105,105,519.832013670999,,,,,,,,,,,,,,,,,,,,,,,,,,,,,,,,,,,,,,519.8175044609998,519.817610438,519.8176230559984,519.832013670999,519.832013670999,520.8324047249989,520.8324047249989,523.8350835759993,523.8350835759993,523.8350835759993,523.8350835759993,523.8162502189989,None,0,None,523.8167549939972,523.8168005679981,None,523.8169150169997,523.8243366749994,None,523.8244335229974,523.8244588219968,None,,,,,,,,,,,,,,,,,,,1,001,0,,2024-04-12_10h05.35.187,replicate_nsd,2023.2.3,59.97307460779113,2024-04-12 10h05.48.126200 -0400,
images/15_28 copy 6.jpg,34,0,0,0,1,"[9, 19, 31, 42, 56, 68, 69, 70, 71]",,,,,0,106,106,106,523.8350835759993,,,,,,,,,,,,,,,,,,,,,,,,,,,,,,,,,,,,,,523.8247193429997,523.8247935279978,523.8248021099971,523.8350835759993,523.8350835759993,524.8330681099978,524.8330681099978,527.8359917849994,527.8359917849994,527.8359917849994,527.8359917849994,527.8162656690001,None,0,None,527.8167756570001,527.8168206769988,None,527.8169338609987,527.824285707,None,527.8243845420002,527.8244103039979,None,,,,,,,,,,,,,,,,,,,1,001,0,,2024-04-12_10h05.35.187,replicate_nsd,2023.2.3,59.97307460779113,2024-04-12 10h05.48.126200 -0400,
images/pair10 copy 4.jpg,35,0,0,0,1,"[9, 19, 31, 42, 56, 68, 69, 70, 71]",,,,,0,107,107,107,527.8359917849994,,,,,,,,,,,,,,,,,,,,,,,,,,,,,,,,,,,,,,527.8246734329987,527.8247463419975,527.8247548429972,527.8359917849994,527.8359917849994,528.8330009869969,528.8330009869969,531.8339155009999,531.8339155009999,531.8339155009999,531.8339155009999,531.8156380949986,None,0,None,531.8161552370002,531.816200715999,None,531.8163176029993,531.8238062579985,None,531.8239038229985,531.8239306019968,None,,,,,,,,,,,,,,,,,,,1,001,0,,2024-04-12_10h05.35.187,replicate_nsd,2023.2.3,59.97307460779113,2024-04-12 10h05.48.126200 -0400,
images/16_40 copy 2.jpg,36,0,0,0,1,"[9, 19, 31, 42, 56, 68, 69, 70, 71]",,,,,0,108,108,108,531.8339155009999,,,,,,,,,,,,,,,,,,,,,,,,,,,,,,,,,,,,,,531.824193548,531.8242674819994,531.8242758300003,531.8339155009999,531.8339155009999,532.8330294879997,532.8330294879997,535.8341645239998,535.8341645239998,535.8341645239998,535.8341645239998,535.8156664679991,None,0,None,535.8161641320003,535.8162083909992,None,535.8163189229999,535.8235979499987,None,535.8236963290001,535.8237225999983,None,,,,,,,,,,,,,,,,,,,1,001,0,,2024-04-12_10h05.35.187,replicate_nsd,2023.2.3,59.97307460779113,2024-04-12 10h05.48.126200 -0400,
images/pair07 copy 5.jpg,37,0,0,0,1,"[9, 19, 31, 42, 56, 68, 69, 70, 71]",,,,,0,109,109,109,535.8341645239998,,,,,,,,,,,,,,,,,,,,,,,,,,,,,,,,,,,,,,535.8239878040004,535.8240635179973,535.8240724569987,535.8341645239998,535.8341645239998,536.8318956629992,536.8318956629992,539.8342492259981,539.8342492259981,539.8342492259981,539.8342492259981,539.8157438709968,None,0,None,539.816251475997,539.8162965739975,None,539.8164105789983,539.8236834849995,None,539.8237807209989,539.8238063949975,None,,,,,,,,,,,,,,,,,,,1,001,0,,2024-04-12_10h05.35.187,replicate_nsd,2023.2.3,59.97307460779113,2024-04-12 10h05.48.126200 -0400,
images/15_0 copy 4.jpg,38,0,0,0,1,"[9, 19, 31, 42, 56, 68, 69, 70, 71]",,,,,0,110,110,110,539.8342492259981,,,,,,,,,,,,,,,,,,,,,,,,,,,,,,,,,,,,,,539.8240638609968,539.8241375299986,539.8241457529984,539.8342492259981,539.8342492259981,540.8326256459986,540.8326256459986,543.8369395129994,543.8369395129994,543.8369395129994,543.8369395129994,543.8162387119992,None,0,None,543.8167392809992,543.8167843779993,None,543.8168978789981,543.8242771810001,None,543.8243743099993,543.8243998910002,None,,,,,,,,,,,,,,,,,,,1,001,0,,2024-04-12_10h05.35.187,replicate_nsd,2023.2.3,59.97307460779113,2024-04-12 10h05.48.126200 -0400,
images/pair16 copy 3.jpg,39,0,0,0,1,"[9, 19, 31, 42, 56, 68, 69, 70, 71]",,,,,0,111,111,111,543.8369395129994,,,,,,,,,,,,,,,,,,,,,,,,,,,,,,,,,,,,,,543.8246584199987,543.8247313369975,543.8247395729995,543.8369395129994,543.8369395129994,544.832880427999,544.832880427999,547.8335671259993,547.8335671259993,547.8335671259993,547.8335671259993,547.8156366099975,None,0,None,547.816150917999,547.8161967220003,None,547.8163116039977,547.8236703469993,None,547.823770772,547.823798008998,None,,,,,,,,,,,,,,,,,,,1,001,0,,2024-04-12_10h05.35.187,replicate_nsd,2023.2.3,59.97307460779113,2024-04-12 10h05.48.126200 -0400,
images/9_12 copy 4.jpg,40,0,0,0,1,"[9, 19, 31, 42, 56, 68, 69, 70, 71]",,,,,0,112,112,112,547.8335671259993,,,,,,,,,,,,,,,,,,,,,,,,,,,,,,,,,,,,,,547.8240683139993,547.8241464799976,547.8241553589978,547.8335671259993,547.8335671259993,548.8330467679989,548.8330467679989,551.8350815819977,551.8350815819977,551.8350815819977,551.8350815819977,551.8161323999993,None,0,None,551.816641518999,551.8166850769994,None,551.8168003489991,551.8245148569986,None,551.824623294,551.8246505379975,None,,,,,,,,,,,,,,,,,,,1,001,0,,2024-04-12_10h05.35.187,replicate_nsd,2023.2.3,59.97307460779113,2024-04-12 10h05.48.126200 -0400,
images/pair14.jpg,41,0,0,0,1,"[9, 19, 31, 42, 56, 68, 69, 70, 71]",,,,,0,113,113,113,551.8350815819977,,,,,,,,,,,,,,,,,,,,,,,,,,,,,,,,,,,,,,551.824915412999,551.8250026159985,551.825011506,551.8350815819977,551.8350815819977,552.8329434529987,552.8329434529987,555.8331336159972,555.8331336159972,555.8331336159972,555.8331336159972,555.8165146799984,None,0,None,555.8170200979985,555.8170653899979,None,555.8171778579999,555.824722475998,None,555.8248181679992,555.8248444049968,None,,,,,,,,,,,,,,,,,,,1,001,0,,2024-04-12_10h05.35.187,replicate_nsd,2023.2.3,59.97307460779113,2024-04-12 10h05.48.126200 -0400,
images/blank.jpg,42,1,0,0,1,"[9, 19, 31, 42, 56, 68, 69, 70, 71]",,,,,0,114,114,114,555.8331336159972,,,,,,,,,,,,,,,,,,,,,,,,,,,,,,,,,,,,,,555.8250997709983,555.8251744480003,555.8251828269968,,,,,,,,,555.8281148469978,None,0,None,555.8284050389993,559.8175839409996,None,559.8178016139973,559.825615679998,None,559.8257212579992,559.8257481589972,None,555.8331336159972,555.8331336159972,559.8361748219977,559.8361748219977,,,,,,,,,,,,,,,1,001,0,,2024-04-12_10h05.35.187,replicate_nsd,2023.2.3,59.97307460779113,2024-04-12 10h05.48.126200 -0400,
images/23_12.jpg,43,0,0,0,1,"[9, 19, 31, 42, 56, 68, 69, 70, 71]",,,,,0,115,115,115,559.8361748219977,,,,,,,,,,,,,,,,,,,,,,,,,,,,,,,,,,,,,,559.8260265279969,559.8261084160004,559.826117026998,559.8361748219977,559.8361748219977,560.8325962119998,560.8325962119998,563.8320170999978,563.8320170999978,563.8320170999978,563.8320170999978,563.8162121019996,None,0,None,563.816695071997,563.8167409609996,None,563.8168544919972,563.8169183329992,None,563.8170300599995,563.8170660069991,None,,,,,,,,,,,,,,,,,,,1,001,0,,2024-04-12_10h05.35.187,replicate_nsd,2023.2.3,59.97307460779113,2024-04-12 10h05.48.126200 -0400,
images/21_40 copy 7.jpg,44,0,0,0,1,"[9, 19, 31, 42, 56, 68, 69, 70, 71]",,,,,0,116,116,116,563.8320170999978,,,,,,,,,,,,,,,,,,,,,,,,,,,,,,,,,,,,,,563.8174369279986,563.8175429449984,563.8175552829998,563.8320170999978,563.8320170999978,564.8328730649991,564.8328730649991,567.833389018997,567.833389018997,567.833389018997,567.833389018997,567.815549564999,None,0,None,567.8160529489978,567.8160978569977,None,567.8162115300001,567.823751650998,None,567.8238486299997,567.8238744720002,None,,,,,,,,,,,,,,,,,,,1,001,0,,2024-04-12_10h05.35.187,replicate_nsd,2023.2.3,59.97307460779113,2024-04-12 10h05.48.126200 -0400,
images/19_0.jpg,45,0,0,0,1,"[9, 19, 31, 42, 56, 68, 69, 70, 71]",,,,,0,117,117,117,567.833389018997,,,,,,,,,,,,,,,,,,,,,,,,,,,,,,,,,,,,,,567.8241354919992,567.8242087729996,567.8242168189972,567.833389018997,567.833389018997,568.8327117539993,568.8327117539993,571.8333259239989,571.8333259239989,571.8333259239989,571.8333259239989,571.8157108039995,None,0,None,571.8162121610003,571.8162572909969,None,571.8163687019987,571.8237505489997,None,571.8238513910001,571.8238778799969,None,,,,,,,,,,,,,,,,,,,1,001,0,,2024-04-12_10h05.35.187,replicate_nsd,2023.2.3,59.97307460779113,2024-04-12 10h05.48.126200 -0400,
images/20_12 copy 5.jpg,46,0,0,0,1,"[9, 19, 31, 42, 56, 68, 69, 70, 71]",,,,,0,118,118,118,571.8333259239989,,,,,,,,,,,,,,,,,,,,,,,,,,,,,,,,,,,,,,571.8241457009972,571.8242213809972,571.8242299789999,571.8333259239989,571.8333259239989,572.8325330629996,572.8325330629996,575.8337736229987,575.8337736229987,575.8337736229987,575.8337736229987,575.8156945189985,None,0,None,575.816198706998,575.8162442499997,None,575.8163586939991,575.8236970459984,None,575.8237985380001,575.8238253739983,None,,,,,,,,,,,,,,,,,,,1,001,0,,2024-04-12_10h05.35.187,replicate_nsd,2023.2.3,59.97307460779113,2024-04-12 10h05.48.126200 -0400,
images/pair02 copy 3.jpg,47,0,0,0,1,"[9, 19, 31, 42, 56, 68, 69, 70, 71]",,,,,0,119,119,119,575.8337736229987,,,,,,,,,,,,,,,,,,,,,,,,,,,,,,,,,,,,,,575.8241055729995,575.8241792839981,575.8241880529968,575.8337736229987,575.8337736229987,576.8325899969968,576.8325899969968,579.8350340319994,579.8350340319994,579.8350340319994,579.8350340319994,579.815625510997,None,0,None,579.8161283869995,579.8161734109999,None,579.8162878879994,579.8238699670001,None,579.8239678819991,579.823993525999,None,,,,,,,,,,,,,,,,,,,1,001,0,,2024-04-12_10h05.35.187,replicate_nsd,2023.2.3,59.97307460779113,2024-04-12 10h05.48.126200 -0400,
images/6_28 copy 2.jpg,48,0,0,0,1,"[9, 19, 31, 42, 56, 68, 69, 70, 71]",,,,,0,120,120,120,579.8350340319994,,,,,,,,,,,,,,,,,,,,,,,,,,,,,,,,,,,,,,579.8242510169985,579.8243240779993,579.8243321769987,579.8350340319994,579.8350340319994,580.8325927730002,580.8325927730002,583.832865256998,583.832865256998,583.832865256998,583.832865256998,583.8154706690002,None,0,None,583.8159566429968,583.8160015590001,None,583.8161156389979,583.823520529997,None,583.8236205299982,583.8236472629978,None,,,,,,,,,,,,,,,,,,,1,001,0,,2024-04-12_10h05.35.187,replicate_nsd,2023.2.3,59.97307460779113,2024-04-12 10h05.48.126200 -0400,
images/19_12 copy 5.jpg,49,0,0,0,1,"[9, 19, 31, 42, 56, 68, 69, 70, 71]",,,,,0,121,121,121,583.832865256998,,,,,,,,,,,,,,,,,,,,,,,,,,,,,,,,,,,,,,583.823915099998,583.8239917760002,583.8240004429972,583.832865256998,583.832865256998,584.8324849979981,584.8324849979981,587.833412983,587.833412983,587.833412983,587.833412983,587.8156836439994,None,0,None,587.816184037998,587.8162297879971,None,587.8163426869978,587.8237243839976,None,587.8238249789974,587.8238514339973,None,,,,,,,,,,,,,,,,,,,1,001,0,,2024-04-12_10h05.35.187,replicate_nsd,2023.2.3,59.97307460779113,2024-04-12 10h05.48.126200 -0400,
images/17_0 copy 3.jpg,50,0,0,0,1,"[9, 19, 31, 42, 56, 68, 69, 70, 71]",,,,,0,122,122,122,587.833412983,,,,,,,,,,,,,,,,,,,,,,,,,,,,,,,,,,,,,,587.8241165729996,587.8242048909997,587.8242134270004,587.833412983,587.833412983,588.8325380219976,588.8325380219976,591.8312190189972,591.8312190189972,591.8312190189972,591.8312190189972,591.8161235099979,None,0,None,591.8163748339975,591.8163959079975,None,591.8164473739998,591.8211610229991,None,591.8212294609984,591.8212489409998,None,,,,,,,,,,,,,,,,,,,1,001,0,,2024-04-12_10h05.35.187,replicate_nsd,2023.2.3,59.97307460779113,2024-04-12 10h05.48.126200 -0400,
images/13_0 copy.jpg,51,0,0,0,1,"[9, 19, 31, 42, 56, 68, 69, 70, 71]",,,,,0,123,123,123,591.8312190189972,,,,,,,,,,,,,,,,,,,,,,,,,,,,,,,,,,,,,,591.8214312439995,591.821494814998,591.8215007839972,591.8312190189972,591.8312190189972,592.8323276039991,592.8323276039991,595.8351715289973,595.8351715289973,595.8351715289973,595.8351715289973,595.8161213709973,None,0,None,595.8166265309992,595.8166720059999,None,595.816785854,595.8242208459997,None,595.8243181569997,595.8243436909979,None,,,,,,,,,,,,,,,,,,,1,001,0,,2024-04-12_10h05.35.187,replicate_nsd,2023.2.3,59.97307460779113,2024-04-12 10h05.48.126200 -0400,
images/23_40 copy 4.jpg,52,0,0,0,1,"[9, 19, 31, 42, 56, 68, 69, 70, 71]",,,,,0,124,124,124,595.8351715289973,,,,,,,,,,,,,,,,,,,,,,,,,,,,,,,,,,,,,,595.8246043399995,595.8246773199971,595.8246856279984,595.8351715289973,595.8351715289973,596.831369583997,596.831369583997,599.8366568849997,599.8366568849997,599.8366568849997,599.8366568849997,599.8156326039971,None,0,None,599.8161197729969,599.8161647149973,None,599.8162788919981,599.8240596529977,None,599.8241580839967,599.8241843689975,None,,,,,,,,,,,,,,,,,,,1,001,0,,2024-04-12_10h05.35.187,replicate_nsd,2023.2.3,59.97307460779113,2024-04-12 10h05.48.126200 -0400,
images/pair08 copy 6.jpg,53,0,0,0,1,"[9, 19, 31, 42, 56, 68, 69, 70, 71]",,,,,0,125,125,125,599.8366568849997,,,,,,,,,,,,,,,,,,,,,,,,,,,,,,,,,,,,,,599.8244462519979,599.8245201729987,599.824528541998,599.8366568849997,599.8366568849997,600.8325127139979,600.8325127139979,603.8342556409989,603.8342556409989,603.8342556409989,603.8342556409989,603.8161507359982,None,0,None,603.8166371389998,603.816684346999,None,603.8167995650001,603.8242802379973,None,603.8243770979971,603.8244029089983,None,,,,,,,,,,,,,,,,,,,1,001,0,,2024-04-12_10h05.35.187,replicate_nsd,2023.2.3,59.97307460779113,2024-04-12 10h05.48.126200 -0400,
images/21_0 copy 5.jpg,54,0,0,0,1,"[9, 19, 31, 42, 56, 68, 69, 70, 71]",,,,,0,126,126,126,603.8342556409989,,,,,,,,,,,,,,,,,,,,,,,,,,,,,,,,,,,,,,603.8246644760002,603.8247378630003,603.8247462449981,603.8342556409989,603.8342556409989,604.8323420449997,604.8323420449997,607.8344701319984,607.8344701319984,607.8344701319984,607.8344701319984,607.8162174719982,None,0,None,607.8167020989968,607.8167473039975,None,607.816861673,607.8243243039979,None,607.824421854999,607.8244481439979,None,,,,,,,,,,,,,,,,,,,1,001,0,,2024-04-12_10h05.35.187,replicate_nsd,2023.2.3,59.97307460779113,2024-04-12 10h05.48.126200 -0400,
images/pair05 copy 5.jpg,55,0,0,0,1,"[9, 19, 31, 42, 56, 68, 69, 70, 71]",,,,,0,127,127,127,607.8344701319984,,,,,,,,,,,,,,,,,,,,,,,,,,,,,,,,,,,,,,607.8247090829973,607.8247834670001,607.8247919349997,607.8344701319984,607.8344701319984,608.832541992997,608.832541992997,611.8340591489978,611.8340591489978,611.8340591489978,611.8340591489978,611.8156043499985,None,0,None,611.816094283,611.8161387419968,None,611.8162516589982,611.8236822969993,None,611.8237790200001,611.8238045269973,None,,,,,,,,,,,,,,,,,,,1,001,0,,2024-04-12_10h05.35.187,replicate_nsd,2023.2.3,59.97307460779113,2024-04-12 10h05.48.126200 -0400,
images/blank.jpg,56,1,0,0,1,"[9, 19, 31, 42, 56, 68, 69, 70, 71]",,,,,0,128,128,128,611.8340591489978,,,,,,,,,,,,,,,,,,,,,,,,,,,,,,,,,,,,,,611.8240608779997,611.8241349839991,611.8241434129995,,,,,,,,,611.8297582389969,None,0,None,611.8300254899987,615.8184753559981,None,615.818685588998,615.8263542229979,None,615.8264527109968,615.8264783779996,None,611.8340591489978,611.8340591489978,615.8342388189994,615.8342388189994,,,,,,,,,,,,,,,1,001,0,,2024-04-12_10h05.35.187,replicate_nsd,2023.2.3,59.97307460779113,2024-04-12 10h05.48.126200 -0400,
images/23_28.jpg,57,0,0,0,1,"[9, 19, 31, 42, 56, 68, 69, 70, 71]",,,,,0,129,129,129,615.8342388189994,,,,,,,,,,,,,,,,,,,,,,,,,,,,,,,,,,,,,,615.826739483,615.8268174339973,615.826825786,615.8342388189994,615.8342388189994,616.8324618109982,616.8324618109982,619.8320914139986,619.8320914139986,619.8320914139986,619.8320914139986,619.815482602,None,0,None,619.8159739490002,619.816017754998,None,619.8161286869981,619.8161917199977,None,619.8163030979995,619.8163395779993,None,,,,,,,,,,,,,,,,,,,1,001,0,,2024-04-12_10h05.35.187,replicate_nsd,2023.2.3,59.97307460779113,2024-04-12 10h05.48.126200 -0400,
images/7_40 copy 6.jpg,58,0,0,0,1,"[9, 19, 31, 42, 56, 68, 69, 70, 71]",,,,,0,130,130,130,619.8320914139986,,,,,,,,,,,,,,,,,,,,,,,,,,,,,,,,,,,,,,619.8167087169968,619.8168143749972,619.8168268209993,619.8320914139986,619.8320914139986,620.8324346419977,620.8324346419977,623.8348196219995,623.8348196219995,623.8348196219995,623.8348196219995,623.8156113769983,None,0,None,623.8160962239999,623.8161422269986,None,623.8162556979987,623.8236398549998,None,623.823741062999,623.8237682679974,None,,,,,,,,,,,,,,,,,,,1,001,0,,2024-04-12_10h05.35.187,replicate_nsd,2023.2.3,59.97307460779113,2024-04-12 10h05.48.126200 -0400,
images/pair17 copy.jpg,59,0,0,0,1,"[9, 19, 31, 42, 56, 68, 69, 70, 71]",,,,,0,131,131,131,623.8348196219995,,,,,,,,,,,,,,,,,,,,,,,,,,,,,,,,,,,,,,623.8240416549997,623.8241177780001,623.8241265910001,623.8348196219995,623.8348196219995,624.8324856789986,624.8324856789986,627.8372608859972,627.8372608859972,627.8372608859972,627.8372608859972,627.8178542259993,None,0,None,627.8183617510003,627.818408056999,None,627.8185219079969,627.8260194969989,None,627.8261155589971,627.8261413049986,None,,,,,,,,,,,,,,,,,,,1,001,0,,2024-04-12_10h05.35.187,replicate_nsd,2023.2.3,59.97307460779113,2024-04-12 10h05.48.126200 -0400,
