current_image,is_repeat,trial_index,is_blank_trial,is_new_run,run_num,all_blanks_list,loop_all_images.thisRepN,loop_all_images.thisTrialN,loop_all_images.thisN,loop_all_images.thisIndex,thisRow.t,notes,set_up.started,set_up.stopped,waiting_fmri.started,key_resp_2.started,text_3.started,waiting_fmri.stopped,key_resp_2.keys,key_resp_2.rt,key_resp_2.duration,set_skips.started,set_skips.stopped,trial.started,polygon.started,image.started,press_if_repeat.started,image.stopped,press_if_repeat.stopped,polygon.stopped,trial.stopped,press_if_repeat.keys,blank_trial.started,blank_trial.stopped,key_resp_3.keys,run_wait2.started,run_wait2.stopped,key_resp_5.keys,waiting_fmri_2.started,waiting_fmri_2.stopped,key_resp_4.keys,key_resp_3.started,polygon_2.started,key_resp_3.stopped,polygon_2.stopped,key_resp_3.rt,key_resp_3.duration,key_resp_5.started,text_5.started,key_resp_5.rt,key_resp_5.duration,key_resp_4.started,text_4.started,key_resp_4.rt,key_resp_4.duration,participant,session,starting_run,,date,expName,psychopyVersion,frameRate,expStart,
,,,,,,,,,,,,,0.03995636600302532,0.040192927001044154,0.04021555499639362,0.05115827199188061,0.05115827199188061,133.7253733529942,5,133.66800383498776,None,,,,,,,,,,,,,,,,,,,,,,,,,,,,,,,,,,,1,001,0,,2024-04-09_14h13.54.857,replicate_nsd,2023.2.3,59.796029880027994,2024-04-09 14h14.09.814026 -0400,
images/7_12 copy 4.jpg,0,0,0,0,0,"[9, 19, 29, 39, 49, 59, 68, 69, 70, 71]",0,0,0,0,133.85501020398806,,,,,,,,,,,133.808960105991,133.80902647098992,133.80903367800056,133.85501020398806,134.84286149800755,134.84286149800755,137.84319286898244,137.84319286898244,137.84319286898244,137.82740652401117,None,137.8286206650082,137.82867400100804,None,137.82944745899295,137.8295016050106,None,137.83020806199056,137.83024680399103,None,,,,,,,,,,,,,,,1,001,0,,2024-04-09_14h13.54.857,replicate_nsd,2023.2.3,59.796029880027994,2024-04-09 14h14.09.814026 -0400,
images/19_40 copy 3.jpg,0,1,0,0,0,"[9, 19, 29, 39, 49, 59, 68, 69, 70, 71]",0,1,1,1,137.84319286898244,,,,,,,,,,,137.83119920099853,137.83127417400829,137.8312842049927,137.84319286898244,138.8445666010084,138.8445666010084,141.84391919500194,141.84391919500194,141.84391919500194,141.82772521598963,None,141.82791439199354,141.82795768798678,None,141.82808467399445,141.828124741005,None,141.8282411719847,141.82827695499873,None,,,,,,,,,,,,,,,1,001,0,,2024-04-09_14h13.54.857,replicate_nsd,2023.2.3,59.796029880027994,2024-04-09 14h14.09.814026 -0400,
images/18_28 copy 3.jpg,0,2,0,0,0,"[9, 19, 29, 39, 49, 59, 68, 69, 70, 71]",0,2,2,2,141.84391919500194,,,,,,,,,,,141.82866087998264,141.82875207898906,141.82876451598713,141.84391919500194,142.8429103049857,142.8429103049857,145.8437634560105,145.8437634560105,145.8437634560105,145.82698443499976,None,145.82716527298908,145.82720116100973,None,145.827304172999,145.82733632301097,None,145.82742963600322,145.82745863700984,None,,,,,,,,,,,,,,,1,001,0,,2024-04-09_14h13.54.857,replicate_nsd,2023.2.3,59.796029880027994,2024-04-09 14h14.09.814026 -0400,
images/22_40 copy.jpg,0,3,0,0,0,"[9, 19, 29, 39, 49, 59, 68, 69, 70, 71]",0,3,3,3,145.8437634560105,,,,,,,,,,,145.82777640898712,145.82785472698743,145.82786518300418,145.8437634560105,146.85591733598267,146.85591733598267,147.7986038189847,147.7986038189847,147.7986038189847,147.79226910500438,None,147.79236960300477,147.79238982798415,None,147.792447824002,147.79246687100385,None,147.79251958799432,147.79253623000113,None,,,,,,,,,,,,,,,1,001,0,,2024-04-09_14h13.54.857,replicate_nsd,2023.2.3,59.796029880027994,2024-04-09 14h14.09.814026 -0400,
images/14_40 copy 4.jpg,0,4,0,0,0,"[9, 19, 29, 39, 49, 59, 68, 69, 70, 71]",0,4,4,4,147.7986038189847,,,,,,,,,,,147.7927160759864,147.79275686098845,147.79276257398305,147.7986038189847,148.00325195401092,148.00325195401092,148.66793088198756,148.66793088198756,148.66793088198756,148.65541567499167,None,148.65552926599048,148.65555269399192,None,148.65562291900278,148.65564512298442,None,148.6557089999842,148.6557288839831,None,,,,,,,,,,,,,,,1,001,0,,2024-04-09_14h13.54.857,replicate_nsd,2023.2.3,59.796029880027994,2024-04-09 14h14.09.814026 -0400,
images/pair04 copy 5.jpg,0,5,0,0,0,"[9, 19, 29, 39, 49, 59, 68, 69, 70, 71]",0,5,5,5,148.66793088198756,,,,,,,,,,,148.65594579599565,148.65599425000255,148.6560011850088,148.66793088198756,148.8503786920046,148.8503786920046,149.76142461798736,149.76142461798736,149.76142461798736,149.75183638199815,None,149.75202248600544,149.75206438600435,None,149.75219167399337,149.7522339420102,None,149.75235069100745,149.7523874809849,None,,,,,,,,,,,,,,,1,001,0,,2024-04-09_14h13.54.857,replicate_nsd,2023.2.3,59.796029880027994,2024-04-09 14h14.09.814026 -0400,
images/22_12.jpg,0,6,0,0,0,"[9, 19, 29, 39, 49, 59, 68, 69, 70, 71]",0,6,6,6,149.76142461798736,,,,,,,,,,,149.7527715890028,149.75286005798262,149.75287237099838,149.76142461798736,149.9612835769949,149.9612835769949,150.70960001900676,150.70960001900676,150.70960001900676,150.7010487279913,None,150.70120169999427,150.70123554000747,None,150.70133664199966,150.70136981000542,None,150.70146370699513,150.70149284999934,None,,,,,,,,,,,,,,,1,001,0,,2024-04-09_14h13.54.857,replicate_nsd,2023.2.3,59.796029880027994,2024-04-09 14h14.09.814026 -0400,
images/8_28 copy 4.jpg,0,7,0,0,0,"[9, 19, 29, 39, 49, 59, 68, 69, 70, 71]",0,7,7,7,150.70960001900676,,,,,,,,,,,150.70180011898628,150.70187071498367,150.7018806010019,150.70960001900676,150.90231504201074,150.90231504201074,151.6725416679983,151.6725416679983,151.6725416679983,151.6650330859993,None,151.66516742599197,151.6651942319877,None,151.66527629899792,151.66530269998475,None,151.66537681999034,151.66539996798383,None,,,,,,,,,,,,,,,1,001,0,,2024-04-09_14h13.54.857,replicate_nsd,2023.2.3,59.796029880027994,2024-04-09 14h14.09.814026 -0400,
images/18_40 copy.jpg,0,8,0,0,0,"[9, 19, 29, 39, 49, 59, 68, 69, 70, 71]",0,8,8,8,151.6725416679983,,,,,,,,,,,151.66564676599228,151.6657033849915,151.6657109799853,151.6725416679983,151.86148885800503,151.86148885800503,152.63934050299576,152.63934050299576,152.63934050299576,152.6327550970018,None,152.6329002440034,152.63292514000204,None,152.63300091499696,152.63302551500965,None,152.63309024000773,152.63311074100784,None,,,,,,,,,,,,,,,1,001,0,,2024-04-09_14h13.54.857,replicate_nsd,2023.2.3,59.796029880027994,2024-04-09 14h14.09.814026 -0400,
images/blank.jpg,0,9,1,0,0,"[9, 19, 29, 39, 49, 59, 68, 69, 70, 71]",0,9,9,9,152.63934050299576,,,,,,,,,,,152.6333341980062,152.63338633198873,152.63339305701084,,,,,,,152.63554407900665,None,152.6356482889969,153.42354333700496,lctrl,153.4242328410037,153.42426089401124,None,153.42433553599403,153.42435749800643,None,152.63934050299576,152.63934050299576,153.43089504700038,153.43089504700038,0.4796782949997578,None,,,,,,,,,1,001,0,,2024-04-09_14h13.54.857,replicate_nsd,2023.2.3,59.796029880027994,2024-04-09 14h14.09.814026 -0400,
images/pair03 copy 7.jpg,0,10,0,0,0,"[9, 19, 29, 39, 49, 59, 68, 69, 70, 71]",0,10,10,10,153.43089504700038,,,,,,,,,,,153.42457994198776,153.4246284920082,153.4246351289912,153.43089504700038,153.64627202801057,153.64627202801057,156.64171141499537,156.64171141499537,156.64171141499537,156.62764950998826,None,156.62783535500057,156.62788128000102,None,156.62800807898748,156.62804839998716,None,156.6281629249861,156.6281991720025,None,,,,,,,,,,,,,,,1,001,0,,2024-04-09_14h13.54.857,replicate_nsd,2023.2.3,59.796029880027994,2024-04-09 14h14.09.814026 -0400,
images/8_28 copy.jpg,0,11,0,0,0,"[9, 19, 29, 39, 49, 59, 68, 69, 70, 71]",0,11,11,11,156.64171141499537,,,,,,,,,,,156.6285748250084,156.6286606139911,156.6286726380058,156.64171141499537,157.64217311199172,157.64217311199172,160.64478490600595,160.64478490600595,160.64478490600595,160.62787706399104,None,160.628034991998,160.6280699869967,None,160.62817249499494,160.6282055019983,None,160.62829747700016,160.62832626799354,None,,,,,,,,,,,,,,,1,001,0,,2024-04-09_14h13.54.857,replicate_nsd,2023.2.3,59.796029880027994,2024-04-09 14h14.09.814026 -0400,
images/17_28 copy.jpg,0,12,0,0,0,"[9, 19, 29, 39, 49, 59, 68, 69, 70, 71]",0,12,12,12,160.64478490600595,,,,,,,,,,,160.62863358898903,160.62870483400184,160.6287142749934,160.64478490600595,160.98326844500843,160.98326844500843,161.7539469760086,161.7539469760086,161.7539469760086,161.74368423499982,None,161.74387481398298,161.74391645999276,None,161.7440440930077,161.74408529198263,None,161.7442006150086,161.74423713301076,None,,,,,,,,,,,,,,,1,001,0,,2024-04-09_14h13.54.857,replicate_nsd,2023.2.3,59.796029880027994,2024-04-09 14h14.09.814026 -0400,
images/pair11 copy 5.jpg,0,13,0,0,0,"[9, 19, 29, 39, 49, 59, 68, 69, 70, 71]",0,13,13,13,161.7539469760086,,,,,,,,,,,161.74462382899947,161.74471179000102,161.74472395400517,161.7539469760086,161.97751159398467,161.97751159398467,162.7983365120017,162.7983365120017,162.7983365120017,162.78865914201015,None,162.7889091100078,162.7889716209902,None,162.78913895000005,162.78918374198838,None,162.78930660299375,162.7893445820082,None,,,,,,,,,,,,,,,1,001,0,,2024-04-09_14h13.54.857,replicate_nsd,2023.2.3,59.796029880027994,2024-04-09 14h14.09.814026 -0400,
images/pair13.jpg,0,14,0,0,0,"[9, 19, 29, 39, 49, 59, 68, 69, 70, 71]",0,14,14,14,162.7983365120017,,,,,,,,,,,162.78972961299587,162.78983538900502,162.7898452639929,162.7983365120017,163.00704687999678,163.00704687999678,163.77713975298684,163.77713975298684,163.77713975298684,163.77027591699152,None,163.77040337299695,163.7704303250066,None,163.77051320500323,163.77053922699997,None,163.77061502999277,163.77063866800745,None,,,,,,,,,,,,,,,1,001,0,,2024-04-09_14h13.54.857,replicate_nsd,2023.2.3,59.796029880027994,2024-04-09 14h14.09.814026 -0400,
images/8_28 copy 3.jpg,0,15,0,0,0,"[9, 19, 29, 39, 49, 59, 68, 69, 70, 71]",0,15,15,15,163.77713975298684,,,,,,,,,,,163.7708935010014,163.7709508719854,163.77095862900023,163.77713975298684,163.96046919599758,163.96046919599758,164.7351941629895,164.7351941629895,164.7351941629895,164.72658306499943,None,164.72677172499243,164.72681317001116,None,164.7269408039865,164.72698208299698,None,164.72709896799643,164.72713511099573,None,,,,,,,,,,,,,,,1,001,0,,2024-04-09_14h13.54.857,replicate_nsd,2023.2.3,59.796029880027994,2024-04-09 14h14.09.814026 -0400,
images/23_40 copy.jpg,0,16,0,0,0,"[9, 19, 29, 39, 49, 59, 68, 69, 70, 71]",0,16,16,16,164.7351941629895,,,,,,,,,,,164.72752085400862,164.72760956198908,164.72762193798553,164.7351941629895,165.06069805298466,165.06069805298466,167.84023824500036,167.84023824500036,167.84023824500036,167.834151440009,None,167.83426532600424,167.83428751598694,None,167.8343570200086,167.8343793420063,None,167.83444130499265,167.83446090199868,None,,,,,,,,,,,,,,,1,001,0,,2024-04-09_14h13.54.857,replicate_nsd,2023.2.3,59.796029880027994,2024-04-09 14h14.09.814026 -0400,
images/23_40 copy 6.jpg,0,17,0,0,0,"[9, 19, 29, 39, 49, 59, 68, 69, 70, 71]",0,17,17,17,167.84023824500036,,,,,,,,,,,167.83467328900588,167.8347217440023,167.8347283519979,167.84023824500036,168.02920940399054,168.02920940399054,168.78114517198992,168.78114517198992,168.78114517198992,168.77293144899886,None,168.77308813799755,168.77312215798884,None,168.77322549300152,168.7732585420017,None,168.77335242799018,168.77338137099287,None,,,,,,,,,,,,,,,1,001,0,,2024-04-09_14h13.54.857,replicate_nsd,2023.2.3,59.796029880027994,2024-04-09 14h14.09.814026 -0400,
images/20_40 copy 2.jpg,0,18,0,0,0,"[9, 19, 29, 39, 49, 59, 68, 69, 70, 71]",0,18,18,18,168.78114517198992,,,,,,,,,,,168.77369820699096,168.7737685930042,168.77377826499287,168.78114517198992,168.98174473899417,168.98174473899417,169.78942530200584,169.78942530200584,169.78942530200584,169.78200160199776,None,169.78218746799394,169.78222876999644,None,169.78235617198516,169.7823959249945,None,169.78251315499074,169.78254916099831,None,,,,,,,,,,,,,,,1,001,0,,2024-04-09_14h13.54.857,replicate_nsd,2023.2.3,59.796029880027994,2024-04-09 14h14.09.814026 -0400,
images/blank.jpg,0,19,1,0,0,"[9, 19, 29, 39, 49, 59, 68, 69, 70, 71]",0,19,19,19,169.78942530200584,,,,,,,,,,,169.78293772300822,169.78302554500988,169.7830376829952,,,,,,,169.78536139600328,None,169.78548010598752,170.56721720501082,return,170.56750829698285,170.56753530399874,None,170.56759721098933,170.56761789901066,None,169.78942530200584,169.78942530200584,170.5732577079907,170.5732577079907,0.18966952300979756,None,,,,,,,,,1,001,0,,2024-04-09_14h13.54.857,replicate_nsd,2023.2.3,59.796029880027994,2024-04-09 14h14.09.814026 -0400,
images/12_28 copy.jpg,0,20,0,0,0,"[9, 19, 29, 39, 49, 59, 68, 69, 70, 71]",0,20,20,20,170.5732577079907,,,,,,,,,,,170.56782158999704,170.56786983599886,170.56787637600792,170.5732577079907,170.75820802000817,170.75820802000817,171.38822680799058,171.38822680799058,171.38822680799058,171.38204791399767,None,171.38214641300146,171.38216721100616,None,171.38222678698367,171.38224646198796,None,171.38229916300043,171.38231618399732,None,,,,,,,,,,,,,,,1,001,0,,2024-04-09_14h13.54.857,replicate_nsd,2023.2.3,59.796029880027994,2024-04-09 14h14.09.814026 -0400,
images/6_0 copy 7.jpg,0,21,0,0,0,"[9, 19, 29, 39, 49, 59, 68, 69, 70, 71]",0,21,21,21,171.38822680799058,,,,,,,,,,,171.3824988429842,171.38253925499157,171.38254486498772,171.38822680799058,171.56812803598586,171.56812803598586,172.2734517469944,172.2734517469944,172.2734517469944,172.2647227240086,None,172.2649093880027,172.26495033100946,None,172.26507813000353,172.26511946800747,None,172.26523565099342,172.2652726919914,None,,,,,,,,,,,,,,,1,001,0,,2024-04-09_14h13.54.857,replicate_nsd,2023.2.3,59.796029880027994,2024-04-09 14h14.09.814026 -0400,
images/15_28 copy 3.jpg,0,22,0,0,0,"[9, 19, 29, 39, 49, 59, 68, 69, 70, 71]",0,22,22,22,172.2734517469944,,,,,,,,,,,172.26565987500362,172.2657473429863,172.26575936100562,172.2734517469944,172.49377529200865,172.49377529200865,173.2606269280077,173.2606269280077,173.2606269280077,173.25396818498848,None,173.25406371598365,173.2540828110068,None,173.2541400459886,173.2541586989828,None,173.25421049300348,173.2542274739826,None,,,,,,,,,,,,,,,1,001,0,,2024-04-09_14h13.54.857,replicate_nsd,2023.2.3,59.796029880027994,2024-04-09 14h14.09.814026 -0400,
images/14_28 copy 5.jpg,0,23,0,0,0,"[9, 19, 29, 39, 49, 59, 68, 69, 70, 71]",0,23,23,23,173.2606269280077,,,,,,,,,,,173.25440480999532,173.2544447479886,173.2544502170058,173.2606269280077,173.44136805899325,173.44136805899325,174.11345586300013,174.11345586300013,174.11345586300013,174.1051580380008,None,174.10531460199854,174.10534776898567,None,174.10544933599886,174.10548150600516,None,174.10557386599248,174.10560269700363,None,,,,,,,,,,,,,,,1,001,0,,2024-04-09_14h13.54.857,replicate_nsd,2023.2.3,59.796029880027994,2024-04-09 14h14.09.814026 -0400,
images/11_0 copy 2.jpg,0,24,0,0,0,"[9, 19, 29, 39, 49, 59, 68, 69, 70, 71]",0,24,24,24,174.11345586300013,,,,,,,,,,,174.10591241999646,174.10598272198695,174.10599268600345,174.11345586300013,174.31854610398295,174.31854610398295,175.04288039600942,175.04288039600942,175.04288039600942,175.03690261999145,None,175.03700335000758,175.03702292000526,None,175.0370817350049,175.03710151900304,None,175.0371550709824,175.03717185999267,None,,,,,,,,,,,,,,,1,001,0,,2024-04-09_14h13.54.857,replicate_nsd,2023.2.3,59.796029880027994,2024-04-09 14h14.09.814026 -0400,
images/23_40 copy 4.jpg,0,25,0,0,0,"[9, 19, 29, 39, 49, 59, 68, 69, 70, 71]",0,25,25,25,175.04288039600942,,,,,,,,,,,175.037367996003,175.037410600984,175.03741632500896,175.04288039600942,175.23061605999828,175.23061605999828,175.9539817390032,175.9539817390032,175.9539817390032,175.94809259599424,None,175.94820510598947,175.94822811198537,None,175.94829915798618,175.94832199200755,None,175.94838614400942,175.94840601200121,None,,,,,,,,,,,,,,,1,001,0,,2024-04-09_14h13.54.857,replicate_nsd,2023.2.3,59.796029880027994,2024-04-09 14h14.09.814026 -0400,
images/14_40 copy 7.jpg,0,26,0,0,0,"[9, 19, 29, 39, 49, 59, 68, 69, 70, 71]",0,26,26,26,175.9539817390032,,,,,,,,,,,175.94861989398487,175.94866938798805,175.94867608198547,175.9539817390032,176.1424750649894,176.1424750649894,176.84507312899223,176.84507312899223,176.84507312899223,176.83837134001078,None,176.83855153698823,176.8385823139979,None,176.838660281006,176.83868609700585,None,176.83875237600296,176.8387741209881,None,,,,,,,,,,,,,,,1,001,0,,2024-04-09_14h13.54.857,replicate_nsd,2023.2.3,59.796029880027994,2024-04-09 14h14.09.814026 -0400,
images/24_40 copy 7.jpg,0,27,0,0,0,"[9, 19, 29, 39, 49, 59, 68, 69, 70, 71]",0,27,27,27,176.84507312899223,,,,,,,,,,,176.83900245500263,176.8390591229836,176.83906614099396,176.84507312899223,177.04246271998272,177.04246271998272,177.7128281419864,177.7128281419864,177.7128281419864,177.70596800700878,None,177.70608300098684,177.7061062149878,None,177.70617783800117,177.70620094100013,None,177.70626543299295,177.70628572799615,None,,,,,,,,,,,,,,,1,001,0,,2024-04-09_14h13.54.857,replicate_nsd,2023.2.3,59.796029880027994,2024-04-09 14h14.09.814026 -0400,
images/21_0 copy 6.jpg,0,28,0,0,0,"[9, 19, 29, 39, 49, 59, 68, 69, 70, 71]",0,28,28,28,177.7128281419864,,,,,,,,,,,177.7065022859897,177.70655078499112,177.70655772599275,177.7128281419864,177.89494918799028,177.89494918799028,178.61141635500826,178.61141635500826,178.61141635500826,178.6043439490022,None,178.60452814999735,178.60456856398378,None,178.60469263000414,178.60473260699655,None,178.60484612398432,178.6048818519921,None,,,,,,,,,,,,,,,1,001,0,,2024-04-09_14h13.54.857,replicate_nsd,2023.2.3,59.796029880027994,2024-04-09 14h14.09.814026 -0400,
images/blank.jpg,0,29,1,0,0,"[9, 19, 29, 39, 49, 59, 68, 69, 70, 71]",0,29,29,29,178.61141635500826,,,,,,,,,,,178.6052575109934,178.60534537499188,178.60535731801065,,,,,,,178.60762955000973,None,178.60775239000213,179.34943352799746,None,179.34953834299813,179.34956246698857,None,179.34963017998962,179.34965070299222,None,178.61141635500826,178.61141635500826,179.3557930699899,179.3557930699899,,,,,,,,,,,1,001,0,,2024-04-09_14h13.54.857,replicate_nsd,2023.2.3,59.796029880027994,2024-04-09 14h14.09.814026 -0400,
images/9_0 copy 7.jpg,0,30,0,0,0,"[9, 19, 29, 39, 49, 59, 68, 69, 70, 71]",0,30,30,30,179.3557930699899,,,,,,,,,,,179.3498611789837,179.3499083830102,179.34991491000983,179.3557930699899,179.53782190699712,179.53782190699712,180.22056469900417,180.22056469900417,180.22056469900417,180.21428391698282,None,180.21438353098347,180.21440369600896,None,180.21446292399196,180.21448268799577,None,180.21453616098734,180.21455351699842,None,,,,,,,,,,,,,,,1,001,0,,2024-04-09_14h13.54.857,replicate_nsd,2023.2.3,59.796029880027994,2024-04-09 14h14.09.814026 -0400,
images/17_12 copy 3.jpg,0,31,0,0,0,"[9, 19, 29, 39, 49, 59, 68, 69, 70, 71]",0,31,31,31,180.22056469900417,,,,,,,,,,,180.2147364859993,180.21477753299405,180.21478316999855,180.22056469900417,180.40520630500396,180.40520630500396,181.0851550560037,181.0851550560037,181.0851550560037,181.07632011000533,None,181.07650927599752,181.0765504410083,None,181.07667728498927,181.07671812101034,None,181.0768361930095,181.07687232398894,None,,,,,,,,,,,,,,,1,001,0,,2024-04-09_14h13.54.857,replicate_nsd,2023.2.3,59.796029880027994,2024-04-09 14h14.09.814026 -0400,
images/16_28 copy 6.jpg,0,32,0,0,0,"[9, 19, 29, 39, 49, 59, 68, 69, 70, 71]",0,32,32,32,181.0851550560037,,,,,,,,,,,181.07725810899865,181.07734592800261,181.0773581149988,181.0851550560037,181.2965578349831,181.2965578349831,182.05702262898558,182.05702262898558,182.05702262898558,182.05000652599847,None,182.050192419003,182.05023510099272,None,182.05036638400634,182.05040720899706,None,182.05052726098802,182.05056318099378,None,,,,,,,,,,,,,,,1,001,0,,2024-04-09_14h13.54.857,replicate_nsd,2023.2.3,59.796029880027994,2024-04-09 14h14.09.814026 -0400,
images/24_40 copy 7.jpg,0,33,0,0,0,"[9, 19, 29, 39, 49, 59, 68, 69, 70, 71]",0,33,33,33,182.05702262898558,,,,,,,,,,,182.05094779800856,182.05103607400088,182.0510483609978,182.05702262898558,182.25015791499754,182.25015791499754,182.97345030499855,182.97345030499855,182.97345030499855,182.96445138199488,None,182.96459926498937,182.96463221000158,None,182.96473378999508,182.96476565900957,None,182.96485743299127,182.96488605000195,None,,,,,,,,,,,,,,,1,001,0,,2024-04-09_14h13.54.857,replicate_nsd,2023.2.3,59.796029880027994,2024-04-09 14h14.09.814026 -0400,
images/pair10.jpg,0,34,0,0,0,"[9, 19, 29, 39, 49, 59, 68, 69, 70, 71]",0,34,34,34,182.97345030499855,,,,,,,,,,,182.9651936349983,182.96526440998423,182.96527431099094,182.97345030499855,183.1593281319947,183.1593281319947,183.909179631999,183.909179631999,183.909179631999,183.90116835798835,None,183.90131662398926,183.9013487510092,None,183.9014481290069,183.90148006999516,None,183.90157230000477,183.90160079399357,None,,,,,,,,,,,,,,,1,001,0,,2024-04-09_14h13.54.857,replicate_nsd,2023.2.3,59.796029880027994,2024-04-09 14h14.09.814026 -0400,
images/9_12 copy 2.jpg,0,35,0,0,0,"[9, 19, 29, 39, 49, 59, 68, 69, 70, 71]",0,35,35,35,183.909179631999,,,,,,,,,,,183.90190532201086,183.9019756889902,183.90198561598663,183.909179631999,184.10009454700048,184.10009454700048,184.80396111900336,184.80396111900336,184.80396111900336,184.7972384520108,None,184.79736370098544,184.79738561899285,None,184.79745278699556,184.79747450599098,None,184.79753510199953,184.79755417600973,None,,,,,,,,,,,,,,,1,001,0,,2024-04-09_14h13.54.857,replicate_nsd,2023.2.3,59.796029880027994,2024-04-09 14h14.09.814026 -0400,
images/13_40 copy.jpg,0,36,0,0,0,"[9, 19, 29, 39, 49, 59, 68, 69, 70, 71]",0,36,36,36,184.80396111900336,,,,,,,,,,,184.79776179799228,184.79780835600104,184.79781458698562,184.80396111900336,184.9863862549828,184.9863862549828,185.69132179601002,185.69132179601002,185.69132179601002,185.68388317601057,None,185.68397716101026,185.68399567398592,None,185.68418474300415,185.68420415799483,None,185.68425678400672,185.68427338500624,None,,,,,,,,,,,,,,,1,001,0,,2024-04-09_14h13.54.857,replicate_nsd,2023.2.3,59.796029880027994,2024-04-09 14h14.09.814026 -0400,
images/pair01.jpg,0,37,0,0,0,"[9, 19, 29, 39, 49, 59, 68, 69, 70, 71]",0,37,37,37,185.69132179601002,,,,,,,,,,,185.68444736200036,185.6844870139903,185.68449239898473,185.69132179601002,185.88926496199565,185.88926496199565,186.63602159699076,186.63602159699076,186.63602159699076,186.62918364501093,None,186.62933647699538,186.62936926601105,None,186.62947053898824,186.62950254799216,None,186.62959446100285,186.62962275301106,None,,,,,,,,,,,,,,,1,001,0,,2024-04-09_14h13.54.857,replicate_nsd,2023.2.3,59.796029880027994,2024-04-09 14h14.09.814026 -0400,
images/14_40 copy 7.jpg,0,38,0,0,0,"[9, 19, 29, 39, 49, 59, 68, 69, 70, 71]",0,38,38,38,186.63602159699076,,,,,,,,,,,186.62992790000862,186.6299981669872,186.63000783199095,186.63602159699076,186.82125254400307,186.82125254400307,187.5152035630017,187.5152035630017,187.5152035630017,187.51016571201035,None,187.51026417000685,187.51028357099858,None,187.51034332299605,187.51036255699,None,187.51041643100325,187.51043369999388,None,,,,,,,,,,,,,,,1,001,0,,2024-04-09_14h13.54.857,replicate_nsd,2023.2.3,59.796029880027994,2024-04-09 14h14.09.814026 -0400,
images/blank.jpg,0,39,1,0,0,"[9, 19, 29, 39, 49, 59, 68, 69, 70, 71]",0,39,39,39,187.5152035630017,,,,,,,,,,,187.5106165430043,187.5106570099888,187.51066278500366,,,,,,,187.51201675800257,None,187.51208771698293,188.24732219500584,None,188.24747038198984,188.24750653799856,None,188.24760620298912,188.24763619501027,None,187.5152035630017,187.5152035630017,188.25649699900532,188.25649699900532,,,,,,,,,,,1,001,0,,2024-04-09_14h13.54.857,replicate_nsd,2023.2.3,59.796029880027994,2024-04-09 14h14.09.814026 -0400,
images/pair15 copy 7.jpg,0,40,0,0,0,"[9, 19, 29, 39, 49, 59, 68, 69, 70, 71]",0,40,40,40,188.25649699900532,,,,,,,,,,,188.24794758099597,188.24801830298384,188.24802787500084,188.25649699900532,188.47104266899987,188.47104266899987,189.23482423400856,189.23482423400856,189.23482423400856,189.22555401199497,None,189.22570826500305,189.22574167500716,None,189.22584375800216,189.22587654800736,None,189.22596927298582,189.22599821400945,None,,,,,,,,,,,,,,,1,001,0,,2024-04-09_14h13.54.857,replicate_nsd,2023.2.3,59.796029880027994,2024-04-09 14h14.09.814026 -0400,
images/15_0 copy.jpg,0,41,0,0,0,"[9, 19, 29, 39, 49, 59, 68, 69, 70, 71]",0,41,41,41,189.23482423400856,,,,,,,,,,,189.22630728199147,189.2263777430053,189.22638727299636,189.23482423400856,189.43813579599373,189.43813579599373,190.16121675199247,190.16121675199247,190.16121675199247,190.1524525769928,None,190.15264083899092,190.1526829909999,None,190.15281256099115,190.1528536590049,None,190.15297164701042,190.15300840701093,None,,,,,,,,,,,,,,,1,001,0,,2024-04-09_14h13.54.857,replicate_nsd,2023.2.3,59.796029880027994,2024-04-09 14h14.09.814026 -0400,
images/21_40.jpg,0,42,0,0,0,"[9, 19, 29, 39, 49, 59, 68, 69, 70, 71]",0,42,42,42,190.16121675199247,,,,,,,,,,,190.1533993369958,190.15348751400597,190.15349976098514,190.16121675199247,190.3471555179858,190.3471555179858,191.03494581699488,191.03494581699488,191.03494581699488,191.02675264899153,None,191.02694096899359,191.02698232000694,None,191.0271105839929,191.02715128098498,None,191.0272678519832,191.02730418898864,None,,,,,,,,,,,,,,,1,001,0,,2024-04-09_14h13.54.857,replicate_nsd,2023.2.3,59.796029880027994,2024-04-09 14h14.09.814026 -0400,
images/21_28 copy 7.jpg,0,43,0,0,0,"[9, 19, 29, 39, 49, 59, 68, 69, 70, 71]",0,43,43,43,191.03494581699488,,,,,,,,,,,191.02769300498767,191.0277812469867,191.02779421999003,191.03494581699488,191.22288053200464,191.22288053200464,191.89061132099596,191.89061132099596,191.89061132099596,191.88272384699667,None,191.88282935300958,191.88285124799586,None,191.88291616298375,191.8829373609915,None,191.8829966709891,191.88301612299983,None,,,,,,,,,,,,,,,1,001,0,,2024-04-09_14h13.54.857,replicate_nsd,2023.2.3,59.796029880027994,2024-04-09 14h14.09.814026 -0400,
images/pair18 copy 2.jpg,0,44,0,0,0,"[9, 19, 29, 39, 49, 59, 68, 69, 70, 71]",0,44,44,44,191.89061132099596,,,,,,,,,,,191.88321795599768,191.88326306498493,191.8832692260039,191.89061132099596,192.0751778910053,192.0751778910053,192.77444476800156,192.77444476800156,192.77444476800156,192.7652843039832,None,192.7654726629844,192.76551394199487,None,192.76564365299419,192.76568461200804,None,192.76580279198242,192.76583938498516,None,,,,,,,,,,,,,,,1,001,0,,2024-04-09_14h13.54.857,replicate_nsd,2023.2.3,59.796029880027994,2024-04-09 14h14.09.814026 -0400,
images/20_28 copy 4.jpg,0,45,0,0,0,"[9, 19, 29, 39, 49, 59, 68, 69, 70, 71]",0,45,45,45,192.77444476800156,,,,,,,,,,,192.7662251679867,192.76631255898974,192.76632517800317,192.77444476800156,192.9568278180086,192.9568278180086,193.60120406199712,193.60120406199712,193.60120406199712,193.59409333899384,None,193.5942088390002,193.59423187500215,None,193.59430394798983,193.5943276429898,None,193.59439105101046,193.5944113160076,None,,,,,,,,,,,,,,,1,001,0,,2024-04-09_14h13.54.857,replicate_nsd,2023.2.3,59.796029880027994,2024-04-09 14h14.09.814026 -0400,
images/6_40 copy 4.jpg,0,46,0,0,0,"[9, 19, 29, 39, 49, 59, 68, 69, 70, 71]",0,46,46,46,193.60120406199712,,,,,,,,,,,193.59463007299928,193.59467895200942,193.5946854839858,193.60120406199712,193.7960564160021,193.7960564160021,194.463434461999,194.463434461999,194.463434461999,194.4553382289887,None,194.45552743700682,194.45556837500772,None,194.45569455699297,194.4557352460106,None,194.45585045299958,194.4558868749882,None,,,,,,,,,,,,,,,1,001,0,,2024-04-09_14h13.54.857,replicate_nsd,2023.2.3,59.796029880027994,2024-04-09 14h14.09.814026 -0400,
images/10_28 copy 4.jpg,0,47,0,0,0,"[9, 19, 29, 39, 49, 59, 68, 69, 70, 71]",0,47,47,47,194.463434461999,,,,,,,,,,,194.4562681739917,194.45633927898598,194.45634903400787,194.463434461999,194.66851970000425,194.66851970000425,195.3888027080102,195.3888027080102,195.3888027080102,195.3824387479981,None,195.3825371809944,195.3825561979902,None,195.3826156819996,195.38263499198365,None,195.38268902199343,195.38270605698926,None,,,,,,,,,,,,,,,1,001,0,,2024-04-09_14h13.54.857,replicate_nsd,2023.2.3,59.796029880027994,2024-04-09 14h14.09.814026 -0400,
images/21_12 copy 4.jpg,0,48,0,0,0,"[9, 19, 29, 39, 49, 59, 68, 69, 70, 71]",0,48,48,48,195.3888027080102,,,,,,,,,,,195.38288838800509,195.38292968500173,195.382935489004,195.3888027080102,195.57611648298916,195.57611648298916,196.26979037100682,196.26979037100682,196.26979037100682,196.2636870169954,None,196.26379285100847,196.26381246198434,None,196.26387616200373,196.26389558799565,None,196.26395014798618,196.2639674959937,None,,,,,,,,,,,,,,,1,001,0,,2024-04-09_14h13.54.857,replicate_nsd,2023.2.3,59.796029880027994,2024-04-09 14h14.09.814026 -0400,
images/blank.jpg,0,49,1,0,0,"[9, 19, 29, 39, 49, 59, 68, 69, 70, 71]",0,49,49,49,196.26979037100682,,,,,,,,,,,196.2641550769913,196.26419667201117,196.2642204669828,,,,,,,196.26611087299534,None,196.2661896290083,197.0173246159975,None,197.01744021099876,197.01746704499237,None,197.01753909300896,197.01756061599008,None,196.26979037100682,196.26979037100682,197.02422156799003,197.02422156799003,,,,,,,,,,,1,001,0,,2024-04-09_14h13.54.857,replicate_nsd,2023.2.3,59.796029880027994,2024-04-09 14h14.09.814026 -0400,
images/7_0 copy 3.jpg,0,50,0,0,0,"[9, 19, 29, 39, 49, 59, 68, 69, 70, 71]",0,50,50,50,197.02422156799003,,,,,,,,,,,197.01778489799472,197.01783524200437,197.01784232098726,197.02422156799003,197.20713259698823,197.20713259698823,197.87491880200105,197.87491880200105,197.87491880200105,197.86752239399357,None,197.8676462440053,197.86767245500232,None,197.86775364200003,197.8677793740062,None,197.86785174900433,197.86787385700154,None,,,,,,,,,,,,,,,1,001,0,,2024-04-09_14h13.54.857,replicate_nsd,2023.2.3,59.796029880027994,2024-04-09 14h14.09.814026 -0400,
images/22_12 copy 7.jpg,0,51,0,0,0,"[9, 19, 29, 39, 49, 59, 68, 69, 70, 71]",0,51,51,51,197.87491880200105,,,,,,,,,,,197.86812027398264,197.86817599099595,197.8681838370103,197.87491880200105,198.06887201499194,198.06887201499194,198.77195753200795,198.77195753200795,198.77195753200795,198.76368119000108,None,198.76386935799383,198.76391167400288,None,198.76404027000535,198.76408164700842,None,198.7641967459931,198.76423347298987,None,,,,,,,,,,,,,,,1,001,0,,2024-04-09_14h13.54.857,replicate_nsd,2023.2.3,59.796029880027994,2024-04-09 14h14.09.814026 -0400,
images/18_28 copy.jpg,0,52,0,0,0,"[9, 19, 29, 39, 49, 59, 68, 69, 70, 71]",0,52,52,52,198.77195753200795,,,,,,,,,,,198.76462142998935,198.76471012100228,198.7647224960092,198.77195753200795,198.9836382009962,198.9836382009962,199.77346893699723,199.77346893699723,199.77346893699723,199.7657027390087,None,199.76588960998924,199.76593037499697,None,199.7660585489939,199.7660993229947,None,199.76621709798928,199.76625363298808,None,,,,,,,,,,,,,,,1,001,0,,2024-04-09_14h13.54.857,replicate_nsd,2023.2.3,59.796029880027994,2024-04-09 14h14.09.814026 -0400,
images/10_28 copy.jpg,0,53,0,0,0,"[9, 19, 29, 39, 49, 59, 68, 69, 70, 71]",0,53,53,53,199.77346893699723,,,,,,,,,,,199.76664637800422,199.76673429700895,199.76674658199772,199.77346893699723,199.98815563099924,199.98815563099924,200.7635812019871,200.7635812019871,200.7635812019871,200.7563715080032,None,200.75646901299478,200.75648883800022,None,200.7565503079968,200.7565703500004,None,200.75662656099303,200.7566443530086,None,,,,,,,,,,,,,,,1,001,0,,2024-04-09_14h13.54.857,replicate_nsd,2023.2.3,59.796029880027994,2024-04-09 14h14.09.814026 -0400,
images/pair11 copy 2.jpg,0,54,0,0,0,"[9, 19, 29, 39, 49, 59, 68, 69, 70, 71]",0,54,54,54,200.7635812019871,,,,,,,,,,,200.75683415998355,200.75687666799058,200.75688250700478,200.7635812019871,200.9452033349953,200.9452033349953,201.7237625090056,201.7237625090056,201.7237625090056,201.71434933700948,None,201.71453770098742,201.71457883200492,None,201.7147057990078,201.7147478759871,None,201.71486431598896,201.71490084999823,None,,,,,,,,,,,,,,,1,001,0,,2024-04-09_14h13.54.857,replicate_nsd,2023.2.3,59.796029880027994,2024-04-09 14h14.09.814026 -0400,
images/15_0.jpg,0,55,0,0,0,"[9, 19, 29, 39, 49, 59, 68, 69, 70, 71]",0,55,55,55,201.7237625090056,,,,,,,,,,,201.71528921698336,201.71537678898312,201.71538894699188,201.7237625090056,201.93306166800903,201.93306166800903,202.7218161470082,202.7218161470082,202.7218161470082,202.71300977599458,None,202.71319602400763,202.71323756099446,None,202.7133668269962,202.71340762200998,None,202.71352353098337,202.71355939900968,None,,,,,,,,,,,,,,,1,001,0,,2024-04-09_14h13.54.857,replicate_nsd,2023.2.3,59.796029880027994,2024-04-09 14h14.09.814026 -0400,
images/15_12 copy 3.jpg,0,56,0,0,0,"[9, 19, 29, 39, 49, 59, 68, 69, 70, 71]",0,56,56,56,202.7218161470082,,,,,,,,,,,202.71396205198835,202.71405089099426,202.7140630070062,202.7218161470082,202.90256284800125,202.90256284800125,203.68527402100153,203.68527402100153,203.68527402100153,203.6756620790111,None,203.6758498410054,203.67588971799705,None,203.67601450299844,203.67605505598476,None,203.67616834799992,203.6762042400078,None,,,,,,,,,,,,,,,1,001,0,,2024-04-09_14h13.54.857,replicate_nsd,2023.2.3,59.796029880027994,2024-04-09 14h14.09.814026 -0400,
images/18_40 copy 4.jpg,0,57,0,0,0,"[9, 19, 29, 39, 49, 59, 68, 69, 70, 71]",0,57,57,57,203.68527402100153,,,,,,,,,,,203.67658849598956,203.6766764060012,203.6766884959943,203.68527402100153,203.8994211179961,203.8994211179961,204.67084381298628,204.67084381298628,204.67084381298628,204.66234946800978,None,204.66253788699396,204.66257857199525,None,204.66270773898577,204.66274882300058,None,204.66286584798945,204.66290288799792,None,,,,,,,,,,,,,,,1,001,0,,2024-04-09_14h13.54.857,replicate_nsd,2023.2.3,59.796029880027994,2024-04-09 14h14.09.814026 -0400,
images/23_28 copy 3.jpg,0,58,0,0,0,"[9, 19, 29, 39, 49, 59, 68, 69, 70, 71]",0,58,58,58,204.67084381298628,,,,,,,,,,,204.6632931260101,204.66338161498425,204.66339410899673,204.67084381298628,204.8718839249923,204.8718839249923,205.6511641780089,205.6511641780089,205.6511641780089,205.64458364999155,None,205.64473520198953,205.64476785200532,None,205.64487162799924,205.64490417100023,None,205.64499631599756,205.64502487299615,None,,,,,,,,,,,,,,,1,001,0,,2024-04-09_14h13.54.857,replicate_nsd,2023.2.3,59.796029880027994,2024-04-09 14h14.09.814026 -0400,
images/blank.jpg,0,59,1,0,0,"[9, 19, 29, 39, 49, 59, 68, 69, 70, 71]",0,59,59,59,205.6511641780089,,,,,,,,,,,205.64533193199895,205.64540247200057,205.64541213799384,,,,,,,205.64745774198673,None,205.64758541699848,206.4539008970023,None,206.45405063798535,206.45408756198594,None,206.45418880699435,206.4542192610097,None,205.6511641780089,205.6511641780089,206.4611376679968,206.4611376679968,,,,,,,,,,,1,001,0,,2024-04-09_14h13.54.857,replicate_nsd,2023.2.3,59.796029880027994,2024-04-09 14h14.09.814026 -0400,
images/15_28 copy 4.jpg,0,60,0,0,0,"[9, 19, 29, 39, 49, 59, 68, 69, 70, 71]",0,60,60,60,206.4611376679968,,,,,,,,,,,206.45454333999078,206.45461452100426,206.45462462399155,206.4611376679968,206.66944375398452,206.66944375398452,207.4595516140107,207.4595516140107,207.4595516140107,207.4515751170111,None,207.4517646729946,207.45180685800733,None,207.45193441800075,207.451976278011,None,207.45209401400643,207.45213093899656,None,,,,,,,,,,,,,,,1,001,0,,2024-04-09_14h13.54.857,replicate_nsd,2023.2.3,59.796029880027994,2024-04-09 14h14.09.814026 -0400,
images/6_40 copy.jpg,0,61,0,0,0,"[9, 19, 29, 39, 49, 59, 68, 69, 70, 71]",0,61,61,61,207.4595516140107,,,,,,,,,,,207.4525174649898,207.4526065760001,207.45261877099983,207.4595516140107,207.67277558898786,207.67277558898786,208.32407029299065,208.32407029299065,208.32407029299065,208.31727053798386,None,208.31738669399056,208.31740951701067,None,208.31748045698623,208.3175035220047,None,208.31756750500062,208.31758763399557,None,,,,,,,,,,,,,,,1,001,0,,2024-04-09_14h13.54.857,replicate_nsd,2023.2.3,59.796029880027994,2024-04-09 14h14.09.814026 -0400,
images/13_28.jpg,0,62,0,0,0,"[9, 19, 29, 39, 49, 59, 68, 69, 70, 71]",0,62,62,62,208.32407029299065,,,,,,,,,,,208.31780577698373,208.31785499298712,208.3178617169906,208.32407029299065,208.50967015398783,208.50967015398783,209.16035989200464,209.16035989200464,209.16035989200464,209.15423589598504,None,209.15435064499616,209.154373620986,None,209.15444450901123,209.15446744198562,None,209.15453087099013,209.15455126800225,None,,,,,,,,,,,,,,,1,001,0,,2024-04-09_14h13.54.857,replicate_nsd,2023.2.3,59.796029880027994,2024-04-09 14h14.09.814026 -0400,
images/24_0 copy 7.jpg,0,63,0,0,0,"[9, 19, 29, 39, 49, 59, 68, 69, 70, 71]",0,63,63,63,209.16035989200464,,,,,,,,,,,209.15476929099532,209.15481956899748,209.1548262499855,209.16035989200464,209.34784569998737,209.34784569998737,210.133848019992,210.133848019992,210.133848019992,210.1247685010021,None,210.12495689099887,210.12499868799932,None,210.12512554699788,210.12516686698655,None,210.12528338099946,210.1253202969965,None,,,,,,,,,,,,,,,1,001,0,,2024-04-09_14h13.54.857,replicate_nsd,2023.2.3,59.796029880027994,2024-04-09 14h14.09.814026 -0400,
images/5_12 copy 7.jpg,0,64,0,0,0,"[9, 19, 29, 39, 49, 59, 68, 69, 70, 71]",0,64,64,64,210.133848019992,,,,,,,,,,,210.1257087799895,210.12579757301137,210.12580997199984,210.133848019992,210.35011244000634,210.35011244000634,211.13695978498436,211.13695978498436,211.13695978498436,211.1266203589912,None,211.12690464698244,211.12696930399397,None,211.1271680810023,211.12725071198656,None,211.12736539400066,211.12740110000595,None,,,,,,,,,,,,,,,1,001,0,,2024-04-09_14h13.54.857,replicate_nsd,2023.2.3,59.796029880027994,2024-04-09 14h14.09.814026 -0400,
images/18_0 copy.jpg,0,65,0,0,0,"[9, 19, 29, 39, 49, 59, 68, 69, 70, 71]",0,65,65,65,211.13695978498436,,,,,,,,,,,211.1277849499893,211.12787371099694,211.12788586399984,211.13695978498436,211.35669512400636,211.35669512400636,212.1481259370048,212.1481259370048,212.1481259370048,212.1382290860056,None,212.13841193600092,212.13845255799242,None,212.1385758399847,212.13861590300803,None,212.13873239600798,212.1387691719865,None,,,,,,,,,,,,,,,1,001,0,,2024-04-09_14h13.54.857,replicate_nsd,2023.2.3,59.796029880027994,2024-04-09 14h14.09.814026 -0400,
images/pair13 copy 7.jpg,0,66,0,0,0,"[9, 19, 29, 39, 49, 59, 68, 69, 70, 71]",0,66,66,66,212.1481259370048,,,,,,,,,,,212.13914554700023,212.13923332598642,212.1392450419953,212.1481259370048,212.33875999200973,212.33875999200973,213.03738526199595,213.03738526199595,213.03738526199595,213.02910754698678,None,213.02926020798623,213.0292931989825,None,213.02939350099768,213.0294258100039,None,213.02951686800225,213.0295448859979,None,,,,,,,,,,,,,,,1,001,0,,2024-04-09_14h13.54.857,replicate_nsd,2023.2.3,59.796029880027994,2024-04-09 14h14.09.814026 -0400,
images/18_40 copy 2.jpg,0,67,0,0,0,"[9, 19, 29, 39, 49, 59, 68, 69, 70, 71]",0,67,67,67,213.03738526199595,,,,,,,,,,,213.02985325199552,213.02992327100947,213.02993266101112,213.03738526199595,213.244241812994,213.244241812994,214.03538769998704,214.03538769998704,214.03538769998704,214.0281724059896,None,214.02835965098348,214.02840104800998,None,214.0285298509989,214.02857088198652,None,214.02868784801103,214.0287230820104,None,,,,,,,,,,,,,,,1,001,0,,2024-04-09_14h13.54.857,replicate_nsd,2023.2.3,59.796029880027994,2024-04-09 14h14.09.814026 -0400,
images/blank.jpg,0,68,1,0,0,"[9, 19, 29, 39, 49, 59, 68, 69, 70, 71]",0,68,68,68,214.03538769998704,,,,,,,,,,,214.02911841199966,214.02920711800107,214.0292196520022,,,,,,,214.03153106599348,None,214.03165094199358,214.89830475699273,None,214.89848949498264,214.89853562400094,None,214.89866420300677,214.89870348200202,None,214.03538769998704,214.03538769998704,214.90520644100616,214.90520644100616,,,,,,,,,,,1,001,0,,2024-04-09_14h13.54.857,replicate_nsd,2023.2.3,59.796029880027994,2024-04-09 14h14.09.814026 -0400,
images/blank.jpg,0,69,1,0,0,"[9, 19, 29, 39, 49, 59, 68, 69, 70, 71]",0,69,69,69,214.90520644100616,,,,,,,,,,,214.89909507799894,214.89918333798414,214.8992004689935,,,,,,,214.90142672500224,None,214.90154662099667,215.7799438519869,None,215.78012836599373,215.78017474198714,None,215.7803024009918,215.78034119401127,None,214.90520644100616,214.90520644100616,215.78700792600284,215.78700792600284,,,,,,,,,,,1,001,0,,2024-04-09_14h13.54.857,replicate_nsd,2023.2.3,59.796029880027994,2024-04-09 14h14.09.814026 -0400,
images/blank.jpg,0,70,1,0,0,"[9, 19, 29, 39, 49, 59, 68, 69, 70, 71]",0,70,70,70,215.78700792600284,,,,,,,,,,,215.78073639399372,215.7808247889916,215.78083720599534,,,,,,,215.7830787569983,None,215.78319878000184,216.659446501988,None,216.65962893000687,216.6596754019847,None,216.65980246700929,216.65984136398765,None,215.78700792600284,215.78700792600284,216.66619181400165,216.66619181400165,,,,,,,,,,,1,001,0,,2024-04-09_14h13.54.857,replicate_nsd,2023.2.3,59.796029880027994,2024-04-09 14h14.09.814026 -0400,
images/blank.jpg,0,71,1,1,0,"[9, 19, 29, 39, 49, 59, 68, 69, 70, 71]",0,71,71,71,216.66619181400165,,,,,,,,,,,216.6602345239953,216.66032316800556,216.6603357109998,,,,,,,216.6624383390008,None,216.6625581109838,217.52952086998266,None,217.52966967600514,271.4835556379985,f15,271.48425061799935,300.5902686769841,5,216.66619181400165,216.66619181400165,217.53253821199178,217.53253821199178,,,220.65173941198736,220.65173941198736,50.83128483200562,None,271.48823677099426,271.48823677099426,29.09490804700181,None,1,001,0,,2024-04-09_14h13.54.857,replicate_nsd,2023.2.3,59.796029880027994,2024-04-09 14h14.09.814026 -0400,
images/22_40 copy.jpg,0,0,0,0,1,"[9, 19, 31, 42, 56, 68, 69, 70, 71]",0,72,72,72,300.6074261160102,,,,,,,,,,,300.5911029249837,300.59115528300754,300.5911624819855,300.6074261160102,301.6078613899881,301.6078613899881,304.6077129629848,304.6077129629848,304.6077129629848,304.59382926800754,None,304.5940204249928,304.5940645840019,None,304.5941905090003,304.5942325659853,None,304.5943496830005,304.5943869779876,None,,,,,,,,,,,,,,,1,001,0,,2024-04-09_14h13.54.857,replicate_nsd,2023.2.3,59.796029880027994,2024-04-09 14h14.09.814026 -0400,
images/8_0 copy 3.jpg,0,1,0,0,1,"[9, 19, 31, 42, 56, 68, 69, 70, 71]",0,73,73,73,304.6077129629848,,,,,,,,,,,304.59477353599505,304.59486175200436,304.59487366798567,304.6077129629848,305.60738538598525,305.60738538598525,308.6078874449886,308.6078874449886,308.6078874449886,308.59123843500856,None,308.5914300569857,308.5914708650089,None,308.5915979889978,308.59163884300506,None,308.5917538199865,308.5917897610052,None,,,,,,,,,,,,,,,1,001,0,,2024-04-09_14h13.54.857,replicate_nsd,2023.2.3,59.796029880027994,2024-04-09 14h14.09.814026 -0400,
images/14_0 copy 2.jpg,0,2,0,0,1,"[9, 19, 31, 42, 56, 68, 69, 70, 71]",0,74,74,74,308.6078874449886,,,,,,,,,,,308.59242833100143,308.5925164909859,308.5925290340092,308.6078874449886,309.60785405599745,309.60785405599745,312.6078673779848,312.6078673779848,312.6078673779848,312.5912660099857,None,312.59145544999046,312.5914964530093,None,312.5916234370088,312.5916639539937,None,312.59178086399334,312.59181659898604,None,,,,,,,,,,,,,,,1,001,0,,2024-04-09_14h13.54.857,replicate_nsd,2023.2.3,59.796029880027994,2024-04-09 14h14.09.814026 -0400,
images/5_28 copy 3.jpg,0,3,0,0,1,"[9, 19, 31, 42, 56, 68, 69, 70, 71]",0,75,75,75,312.6078673779848,,,,,,,,,,,312.5922034760006,312.59229234600207,312.592304980004,312.6078673779848,313.6071930809994,313.6071930809994,316.6078829749895,316.6078829749895,316.6078829749895,316.5912539139972,None,316.5914433230064,316.5914846189844,None,316.59161114899325,316.5916510219977,None,316.59176659898367,316.5918016769865,None,,,,,,,,,,,,,,,1,001,0,,2024-04-09_14h13.54.857,replicate_nsd,2023.2.3,59.796029880027994,2024-04-09 14h14.09.814026 -0400,
images/20_28 copy 4.jpg,0,4,0,0,1,"[9, 19, 31, 42, 56, 68, 69, 70, 71]",0,76,76,76,316.6078829749895,,,,,,,,,,,316.592189922987,316.5922780460096,316.592290236993,316.6078829749895,317.6078794799978,317.6078794799978,320.6078978269943,320.6078978269943,320.6078978269943,320.5912433080084,None,320.5914320379961,320.5914742820023,None,320.5916011009831,320.5916419480054,None,320.59175833599875,320.59179519000463,None,,,,,,,,,,,,,,,1,001,0,,2024-04-09_14h13.54.857,replicate_nsd,2023.2.3,59.796029880027994,2024-04-09 14h14.09.814026 -0400,
images/8_0 copy.jpg,0,5,0,0,1,"[9, 19, 31, 42, 56, 68, 69, 70, 71]",0,77,77,77,320.6078978269943,,,,,,,,,,,320.5921810400032,320.5922699479852,320.59228226699634,320.6078978269943,321.60738906599,321.60738906599,324.60716690699337,324.60716690699337,324.60716690699337,324.5932659890095,None,324.5934554460109,324.59349656599807,None,324.5936220829899,324.593662158004,None,324.5937782450055,324.5938132980082,None,,,,,,,,,,,,,,,1,001,0,,2024-04-09_14h13.54.857,replicate_nsd,2023.2.3,59.796029880027994,2024-04-09 14h14.09.814026 -0400,
images/12_40 copy 3.jpg,0,6,0,0,1,"[9, 19, 31, 42, 56, 68, 69, 70, 71]",0,78,78,78,324.60716690699337,,,,,,,,,,,324.59419951500604,324.59428852199926,324.5943008129834,324.60716690699337,325.6074005769915,325.6074005769915,328.6078529130027,328.6078529130027,328.6078529130027,328.5912319039926,None,328.591420199984,328.59146181700635,None,328.59158960400964,328.59163092900417,None,328.5917476589966,328.59178397999494,None,,,,,,,,,,,,,,,1,001,0,,2024-04-09_14h13.54.857,replicate_nsd,2023.2.3,59.796029880027994,2024-04-09 14h14.09.814026 -0400,
images/13_40 copy 7.jpg,0,7,0,0,1,"[9, 19, 31, 42, 56, 68, 69, 70, 71]",0,79,79,79,328.6078529130027,,,,,,,,,,,328.5921661029861,328.5922547240043,328.59226699199644,328.6078529130027,329.60783960699337,329.60783960699337,332.6073676479864,332.6073676479864,332.6073676479864,332.5932733799855,None,332.59346365500824,332.59350516000995,None,332.593632796983,332.5936736209842,None,332.5937899489945,332.5938262300042,None,,,,,,,,,,,,,,,1,001,0,,2024-04-09_14h13.54.857,replicate_nsd,2023.2.3,59.796029880027994,2024-04-09 14h14.09.814026 -0400,
images/15_12 copy 3.jpg,0,8,0,0,1,"[9, 19, 31, 42, 56, 68, 69, 70, 71]",0,80,80,80,332.6073676479864,,,,,,,,,,,332.5942122270062,332.5943009519833,332.5943134329864,332.6073676479864,333.6078597379965,333.6078597379965,336.6078747829888,336.6078747829888,336.6078747829888,336.5912465750007,None,336.5914370190003,336.5914782100008,None,336.5916066339996,336.59164666599827,None,336.5917637980019,336.5918003729894,None,,,,,,,,,,,,,,,1,001,0,,2024-04-09_14h13.54.857,replicate_nsd,2023.2.3,59.796029880027994,2024-04-09 14h14.09.814026 -0400,
images/blank.jpg,0,9,1,0,1,"[9, 19, 31, 42, 56, 68, 69, 70, 71]",0,81,81,81,336.6078747829888,,,,,,,,,,,336.59218976300326,336.59227849100716,336.59229081700323,,,,,,,336.5955880949914,None,336.5957081489905,340.59463659100584,lctrl,340.5949633549899,340.59500235298765,None,340.59510386400507,340.5951356239966,None,336.6078747829888,336.6078747829888,340.61073387699435,340.61073387699435,3.9112370439979713,None,,,,,,,,,1,001,0,,2024-04-09_14h13.54.857,replicate_nsd,2023.2.3,59.796029880027994,2024-04-09 14h14.09.814026 -0400,
images/12_12 copy 2.jpg,0,10,0,0,1,"[9, 19, 31, 42, 56, 68, 69, 70, 71]",0,82,82,82,340.61073387699435,,,,,,,,,,,340.59555061298306,340.5956358469848,340.59564600800513,340.61073387699435,341.6088571189903,341.6088571189903,344.0587747329846,344.0587747329846,344.0587747329846,344.05043381400174,None,344.0506254459906,344.0506695889926,None,344.05079803499393,344.0508383139968,None,344.0509545370005,344.0509911380068,None,,,,,,,,,,,,,,,1,001,0,,2024-04-09_14h13.54.857,replicate_nsd,2023.2.3,59.796029880027994,2024-04-09 14h14.09.814026 -0400,
images/6_40 copy 6.jpg,0,11,0,0,1,"[9, 19, 31, 42, 56, 68, 69, 70, 71]",0,83,83,83,344.0587747329846,,,,,,,,,,,344.0513794370054,344.0514676239982,344.0514795820054,344.0587747329846,344.2821443149878,344.2821443149878,345.06121780499234,345.06121780499234,345.06121780499234,345.05363192100776,None,345.0537846320076,345.05381752198446,None,345.05392064599437,345.05395353399217,None,345.05404581100447,345.05407473098603,None,,,,,,,,,,,,,,,1,001,0,,2024-04-09_14h13.54.857,replicate_nsd,2023.2.3,59.796029880027994,2024-04-09 14h14.09.814026 -0400,
images/6_28 copy 6.jpg,0,12,0,0,1,"[9, 19, 31, 42, 56, 68, 69, 70, 71]",0,84,84,84,345.06121780499234,,,,,,,,,,,345.0543848309899,345.0544562760042,345.05446597898845,345.06121780499234,345.24813655301114,345.24813655301114,346.02764409501106,346.02764409501106,346.02764409501106,346.020260669,None,346.02045021700906,346.02048951599863,None,346.0206139739894,346.02065370298806,None,346.02076698699966,346.0208015709941,None,,,,,,,,,,,,,,,1,001,0,,2024-04-09_14h13.54.857,replicate_nsd,2023.2.3,59.796029880027994,2024-04-09 14h14.09.814026 -0400,
images/19_12 copy 6.jpg,0,13,0,0,1,"[9, 19, 31, 42, 56, 68, 69, 70, 71]",0,85,85,85,346.02764409501106,,,,,,,,,,,346.0211346060096,346.0212039320031,346.02121353999246,346.02764409501106,346.2257796789927,346.2257796789927,346.9764187819965,346.9764187819965,346.9764187819965,346.9656767749984,None,346.965826027008,346.965858629992,None,346.96595838599023,346.9659907610039,None,346.9660836950061,346.9661126139981,None,,,,,,,,,,,,,,,1,001,0,,2024-04-09_14h13.54.857,replicate_nsd,2023.2.3,59.796029880027994,2024-04-09 14h14.09.814026 -0400,
images/pair08 copy.jpg,0,14,0,0,1,"[9, 19, 31, 42, 56, 68, 69, 70, 71]",0,86,86,86,346.9764187819965,,,,,,,,,,,346.96642041398445,346.9664912910084,346.9665008820011,346.9764187819965,347.1989778779971,347.1989778779971,347.96014423598535,347.96014423598535,347.96014423598535,347.9524557820114,None,347.9525693739997,347.9525919269945,None,347.95266139198793,347.95268429099815,None,347.95274723300827,347.95276682599797,None,,,,,,,,,,,,,,,1,001,0,,2024-04-09_14h13.54.857,replicate_nsd,2023.2.3,59.796029880027994,2024-04-09 14h14.09.814026 -0400,
images/24_12 copy 7.jpg,0,15,0,0,1,"[9, 19, 31, 42, 56, 68, 69, 70, 71]",0,87,87,87,347.96014423598535,,,,,,,,,,,347.9529810560052,347.95302962398273,347.95303640700877,347.96014423598535,348.1532543069916,348.1532543069916,348.8779667690105,348.8779667690105,348.8779667690105,348.86958037500153,None,348.86970874099643,348.8697320339852,None,348.8698033769906,348.86982646398246,None,348.86988906600163,348.8699098280049,None,,,,,,,,,,,,,,,1,001,0,,2024-04-09_14h13.54.857,replicate_nsd,2023.2.3,59.796029880027994,2024-04-09 14h14.09.814026 -0400,
images/7_12 copy 2.jpg,0,16,0,0,1,"[9, 19, 31, 42, 56, 68, 69, 70, 71]",0,88,88,88,348.8779667690105,,,,,,,,,,,348.87012714799494,348.87017608998576,348.87018285199883,348.8779667690105,349.0661623610067,349.0661623610067,349.7517249689845,349.7517249689845,349.7517249689845,349.7451387369947,None,349.7452496989863,349.74527292800485,None,349.74534395500086,349.74536724199424,None,349.7454318680102,349.7454523080087,None,,,,,,,,,,,,,,,1,001,0,,2024-04-09_14h13.54.857,replicate_nsd,2023.2.3,59.796029880027994,2024-04-09 14h14.09.814026 -0400,
images/12_28 copy 5.jpg,0,17,0,0,1,"[9, 19, 31, 42, 56, 68, 69, 70, 71]",0,89,89,89,349.7517249689845,,,,,,,,,,,349.74567557199043,349.74572569099837,349.74573264000355,349.7517249689845,349.94599944900256,349.94599944900256,350.6472269860096,350.6472269860096,350.6472269860096,350.639961517998,None,350.6401150559832,350.64014321699506,None,350.6402308199904,350.64025915198727,None,350.64033823800855,350.64036200998817,None,,,,,,,,,,,,,,,1,001,0,,2024-04-09_14h13.54.857,replicate_nsd,2023.2.3,59.796029880027994,2024-04-09 14h14.09.814026 -0400,
images/6_0.jpg,0,18,0,0,1,"[9, 19, 31, 42, 56, 68, 69, 70, 71]",0,90,90,90,350.6472269860096,,,,,,,,,,,350.64062499901047,350.64069910001126,350.64070747199,350.6472269860096,350.83695248299045,350.83695248299045,351.5407427249884,351.5407427249884,351.5407427249884,351.5326437409967,None,351.5327935619862,351.532826893992,None,351.53292538798996,351.53295729198726,None,351.53304739299347,351.5330755409959,None,,,,,,,,,,,,,,,1,001,0,,2024-04-09_14h13.54.857,replicate_nsd,2023.2.3,59.796029880027994,2024-04-09 14h14.09.814026 -0400,
images/blank.jpg,0,19,1,0,1,"[9, 19, 31, 42, 56, 68, 69, 70, 71]",0,91,91,91,351.5407427249884,,,,,,,,,,,351.53337657099473,351.53344620700227,351.53345593900303,,,,,,,351.5359246470034,None,351.5361599320022,352.28146701699006,None,352.28157357600867,352.28159849499934,None,352.28166653000517,352.2816868730006,None,351.5407427249884,351.5407427249884,352.28791555398493,352.28791555398493,,,,,,,,,,,1,001,0,,2024-04-09_14h13.54.857,replicate_nsd,2023.2.3,59.796029880027994,2024-04-09 14h14.09.814026 -0400,
images/21_12 copy.jpg,0,20,0,0,1,"[9, 19, 31, 42, 56, 68, 69, 70, 71]",0,92,92,92,352.28791555398493,,,,,,,,,,,352.2819013140106,352.2819486820081,352.28195524099283,352.28791555398493,352.47188626098796,352.47188626098796,353.1990052899928,353.1990052899928,353.1990052899928,353.19140223399154,None,353.1915340429987,353.19156145700254,None,353.1916433259903,353.19167076799204,None,353.1917454439972,353.1917687850073,None,,,,,,,,,,,,,,,1,001,0,,2024-04-09_14h13.54.857,replicate_nsd,2023.2.3,59.796029880027994,2024-04-09 14h14.09.814026 -0400,
images/15_40.jpg,0,21,0,0,1,"[9, 19, 31, 42, 56, 68, 69, 70, 71]",0,93,93,93,353.1990052899928,,,,,,,,,,,353.19201734798844,353.19207443800406,353.1920824100089,353.1990052899928,353.38742853098665,353.38742853098665,354.1661974659946,354.1661974659946,354.1661974659946,354.1583615599957,None,354.15851433199714,354.1585476610053,None,354.1586490549962,354.1586811179877,None,354.15877434500726,354.1588029929844,None,,,,,,,,,,,,,,,1,001,0,,2024-04-09_14h13.54.857,replicate_nsd,2023.2.3,59.796029880027994,2024-04-09 14h14.09.814026 -0400,
images/20_12 copy 4.jpg,0,22,0,0,1,"[9, 19, 31, 42, 56, 68, 69, 70, 71]",0,94,94,94,354.1661974659946,,,,,,,,,,,354.159110743989,354.1591813190025,354.15919126500376,354.1661974659946,354.3541258419864,354.3541258419864,355.1211087369884,355.1211087369884,355.1211087369884,355.1123292580014,None,355.11251530901063,355.11255619398435,None,355.11268199599,355.11272189900046,None,355.1128382489842,355.1128746609902,None,,,,,,,,,,,,,,,1,001,0,,2024-04-09_14h13.54.857,replicate_nsd,2023.2.3,59.796029880027994,2024-04-09 14h14.09.814026 -0400,
images/12_40 copy 2.jpg,0,23,0,0,1,"[9, 19, 31, 42, 56, 68, 69, 70, 71]",0,95,95,95,355.1211087369884,,,,,,,,,,,355.1132560329861,355.1133434009971,355.1133552000101,355.1211087369884,355.33847488398897,355.33847488398897,356.09081969599356,356.09081969599356,356.09081969599356,356.0821687740099,None,356.0823606890044,356.08240366500104,None,356.0825325699989,356.0825739110005,None,356.0826903760026,356.0827267660061,None,,,,,,,,,,,,,,,1,001,0,,2024-04-09_14h13.54.857,replicate_nsd,2023.2.3,59.796029880027994,2024-04-09 14h14.09.814026 -0400,
images/16_0 copy.jpg,0,24,0,0,1,"[9, 19, 31, 42, 56, 68, 69, 70, 71]",0,96,96,96,356.09081969599356,,,,,,,,,,,356.08311039899127,356.08319855399895,356.0832108350005,356.09081969599356,356.2759098119859,356.2759098119859,357.0273414129915,357.0273414129915,357.0273414129915,357.0190097930026,None,357.019173342007,357.01920691499254,None,357.01930785298464,357.019340075989,None,357.01943255000515,357.0194614949869,None,,,,,,,,,,,,,,,1,001,0,,2024-04-09_14h13.54.857,replicate_nsd,2023.2.3,59.796029880027994,2024-04-09 14h14.09.814026 -0400,
images/15_28 copy 6.jpg,0,25,0,0,1,"[9, 19, 31, 42, 56, 68, 69, 70, 71]",0,97,97,97,357.0273414129915,,,,,,,,,,,357.0198832459864,357.0199607429968,357.01997146900976,357.0273414129915,357.21386245801114,357.21386245801114,357.97974847300793,357.97974847300793,357.97974847300793,357.97144155198475,None,357.97163251199527,357.9716903399967,None,357.97179366400815,357.97182576500927,None,357.97192014200846,357.9719493369921,None,,,,,,,,,,,,,,,1,001,0,,2024-04-09_14h13.54.857,replicate_nsd,2023.2.3,59.796029880027994,2024-04-09 14h14.09.814026 -0400,
images/8_28 copy 5.jpg,0,26,0,0,1,"[9, 19, 31, 42, 56, 68, 69, 70, 71]",0,98,98,98,357.97974847300793,,,,,,,,,,,357.9723482299887,357.97242304700194,357.972432998009,357.97974847300793,358.1708835570025,358.1708835570025,358.8449264380033,358.8449264380033,358.8449264380033,358.83714949100977,None,358.8372693579877,358.8372908520105,None,358.8373565340007,358.83742239599815,None,358.8375003070105,358.83751793499687,None,,,,,,,,,,,,,,,1,001,0,,2024-04-09_14h13.54.857,replicate_nsd,2023.2.3,59.796029880027994,2024-04-09 14h14.09.814026 -0400,
images/14_28.jpg,0,27,0,0,1,"[9, 19, 31, 42, 56, 68, 69, 70, 71]",0,99,99,99,358.8449264380033,,,,,,,,,,,358.8377112209855,358.83775524399243,358.83776132398634,358.8449264380033,359.03378769298433,359.03378769298433,359.70105249399785,359.70105249399785,359.70105249399785,359.6951901130087,None,359.69530228400254,359.69532554000034,None,359.6953953249904,359.6954177739972,None,359.6954805130081,359.6955002169998,None,,,,,,,,,,,,,,,1,001,0,,2024-04-09_14h13.54.857,replicate_nsd,2023.2.3,59.796029880027994,2024-04-09 14h14.09.814026 -0400,
images/22_0 copy.jpg,0,28,0,0,1,"[9, 19, 31, 42, 56, 68, 69, 70, 71]",0,100,100,100,359.70105249399785,,,,,,,,,,,359.6957150649978,359.69576443498954,359.6957710069837,359.70105249399785,359.8872206439846,359.8872206439846,360.60122878599213,360.60122878599213,360.60122878599213,360.5917639909894,None,360.59195215799264,360.59199353598524,None,360.59212084900355,360.59216106898384,None,360.5922772969934,360.5923133069882,None,,,,,,,,,,,,,,,1,001,0,,2024-04-09_14h13.54.857,replicate_nsd,2023.2.3,59.796029880027994,2024-04-09 14h14.09.814026 -0400,
images/9_40 copy 6.jpg,0,29,0,0,1,"[9, 19, 31, 42, 56, 68, 69, 70, 71]",0,101,101,101,360.60122878599213,,,,,,,,,,,360.59269836198655,360.5927865440026,360.59279884700663,360.60122878599213,360.8169668589835,360.8169668589835,361.5871037550096,361.5871037550096,361.5871037550096,361.5803363629966,None,361.58046203598497,361.5804888040002,None,361.58056885399856,361.58059481700184,None,361.58066811499884,361.58069116799743,None,,,,,,,,,,,,,,,1,001,0,,2024-04-09_14h13.54.857,replicate_nsd,2023.2.3,59.796029880027994,2024-04-09 14h14.09.814026 -0400,
images/16_12 copy 3.jpg,0,30,0,0,1,"[9, 19, 31, 42, 56, 68, 69, 70, 71]",0,102,102,102,361.5871037550096,,,,,,,,,,,361.5809349009942,361.58099180299905,361.5809993669973,361.5871037550096,361.7805107559834,361.7805107559834,362.5720121439954,362.5720121439954,362.5720121439954,362.56341642700136,None,362.56359803298255,362.5636385139951,None,362.5637630999845,362.56380331498804,None,362.5639175429824,362.56395390001126,None,,,,,,,,,,,,,,,1,001,0,,2024-04-09_14h13.54.857,replicate_nsd,2023.2.3,59.796029880027994,2024-04-09 14h14.09.814026 -0400,
images/blank.jpg,0,31,1,0,1,"[9, 19, 31, 42, 56, 68, 69, 70, 71]",0,103,103,103,362.5720121439954,,,,,,,,,,,362.56432969498564,362.5644169469888,362.5644291189965,,,,,,,362.567262638011,None,362.56749515098636,363.402180657984,None,363.40236219600774,363.40240719000576,None,363.402531366999,363.40256923399284,None,362.5720121439954,362.5720121439954,363.41042182198726,363.41042182198726,,,,,,,,,,,1,001,0,,2024-04-09_14h13.54.857,replicate_nsd,2023.2.3,59.796029880027994,2024-04-09 14h14.09.814026 -0400,
images/5_28 copy 3.jpg,0,32,0,0,1,"[9, 19, 31, 42, 56, 68, 69, 70, 71]",0,104,104,104,363.41042182198726,,,,,,,,,,,363.40295595198404,363.4030434640008,363.40305517899105,363.41042182198726,363.6081679050112,363.6081679050112,366.55847510599415,366.55847510599415,366.55847510599415,366.5419775719929,None,366.5421311710088,366.5421675090038,None,366.54226954400656,366.5423018669826,None,366.5423944380018,366.5424226729956,None,,,,,,,,,,,,,,,1,001,0,,2024-04-09_14h13.54.857,replicate_nsd,2023.2.3,59.796029880027994,2024-04-09 14h14.09.814026 -0400,
images/16_12 copy 7.jpg,0,33,0,0,1,"[9, 19, 31, 42, 56, 68, 69, 70, 71]",0,105,105,105,366.55847510599415,,,,,,,,,,,366.5427321289899,366.542803874996,366.5428136519913,366.55847510599415,367.558368330996,367.558368330996,370.55719767999835,370.55719767999835,370.55719767999835,370.54316115399706,None,370.5433492590091,370.5433902349905,None,370.54351673900965,370.5435570649861,None,370.5436736349948,370.5437099339906,None,,,,,,,,,,,,,,,1,001,0,,2024-04-09_14h13.54.857,replicate_nsd,2023.2.3,59.796029880027994,2024-04-09 14h14.09.814026 -0400,
images/8_40 copy 5.jpg,0,34,0,0,1,"[9, 19, 31, 42, 56, 68, 69, 70, 71]",0,106,106,106,370.55719767999835,,,,,,,,,,,370.54409579199273,370.544183475984,370.5441954479902,370.55719767999835,371.5576550019905,371.5576550019905,374.55875836199266,374.55875836199266,374.55875836199266,374.54275746500934,None,374.54291213600663,374.54294686898356,None,374.54304742001113,374.543080642994,None,374.5431714610022,374.5432001669833,None,,,,,,,,,,,,,,,1,001,0,,2024-04-09_14h13.54.857,replicate_nsd,2023.2.3,59.796029880027994,2024-04-09 14h14.09.814026 -0400,
images/12_12 copy 4.jpg,0,35,0,0,1,"[9, 19, 31, 42, 56, 68, 69, 70, 71]",0,107,107,107,374.55875836199266,,,,,,,,,,,374.5435064389894,374.5435777719831,374.54358733200934,374.55875836199266,375.5589989029977,375.5589989029977,378.55734625199693,378.55734625199693,378.55734625199693,378.54114339800435,None,378.54133001199807,378.54137359699234,None,378.54150027700234,378.5415408510016,None,378.54165628599003,378.54169275899767,None,,,,,,,,,,,,,,,1,001,0,,2024-04-09_14h13.54.857,replicate_nsd,2023.2.3,59.796029880027994,2024-04-09 14h14.09.814026 -0400,
images/6_12 copy 7.jpg,0,36,0,0,1,"[9, 19, 31, 42, 56, 68, 69, 70, 71]",0,108,108,108,378.55734625199693,,,,,,,,,,,378.5420788729971,378.5421662729932,378.5421784739883,378.55734625199693,379.55726995898294,379.55726995898294,382.5573502279876,382.5573502279876,382.5573502279876,382.54114063299494,None,382.5413293050078,382.541370602994,None,382.5414980479982,382.5415383979853,None,382.5416547349887,382.5416909609921,None,,,,,,,,,,,,,,,1,001,0,,2024-04-09_14h13.54.857,replicate_nsd,2023.2.3,59.796029880027994,2024-04-09 14h14.09.814026 -0400,
images/8_12.jpg,0,37,0,0,1,"[9, 19, 31, 42, 56, 68, 69, 70, 71]",0,109,109,109,382.5573502279876,,,,,,,,,,,382.5420760299894,382.54216424698825,382.54217644498567,382.5573502279876,383.5568215579842,383.5568215579842,386.5578161349986,386.5578161349986,386.5578161349986,386.5411626389832,None,386.5413495679968,386.54139102000045,None,386.5415177340037,386.54155914200237,None,386.5416770550073,386.5417148960114,None,,,,,,,,,,,,,,,1,001,0,,2024-04-09_14h13.54.857,replicate_nsd,2023.2.3,59.796029880027994,2024-04-09 14h14.09.814026 -0400,
images/14_0 copy 6.jpg,0,38,0,0,1,"[9, 19, 31, 42, 56, 68, 69, 70, 71]",0,110,110,110,386.5578161349986,,,,,,,,,,,386.54210151601,386.5421900229994,386.5422028109897,386.5578161349986,387.557245161006,387.557245161006,390.55728039200767,390.55728039200767,390.55728039200767,390.54064672099776,None,390.5408360819856,390.5408779789868,None,390.5410053599917,390.54104649298824,None,390.54116155099473,390.5411973219889,None,,,,,,,,,,,,,,,1,001,0,,2024-04-09_14h13.54.857,replicate_nsd,2023.2.3,59.796029880027994,2024-04-09 14h14.09.814026 -0400,
images/17_12 copy 2.jpg,0,39,0,0,1,"[9, 19, 31, 42, 56, 68, 69, 70, 71]",0,111,111,111,390.55728039200767,,,,,,,,,,,390.5415818699985,390.5416702289949,390.54168230100186,390.55728039200767,391.55726097300067,391.55726097300067,394.5572643390042,394.5572643390042,394.5572643390042,394.5406698109873,None,394.54085733401007,394.5408985730028,None,394.5410248650005,394.5410659649933,None,394.5411816499836,394.541218067985,None,,,,,,,,,,,,,,,1,001,0,,2024-04-09_14h13.54.857,replicate_nsd,2023.2.3,59.796029880027994,2024-04-09 14h14.09.814026 -0400,
images/pair11 copy 7.jpg,0,40,0,0,1,"[9, 19, 31, 42, 56, 68, 69, 70, 71]",0,112,112,112,394.5572643390042,,,,,,,,,,,394.54159980098484,394.541686904995,394.541698918998,394.5572643390042,395.55785124300746,395.55785124300746,398.5572528449993,398.5572528449993,398.5572528449993,398.54066088300897,None,398.5408481739869,398.5408897489833,None,398.5410156380094,398.54105630499544,None,398.54117151000537,398.5412080079841,None,,,,,,,,,,,,,,,1,001,0,,2024-04-09_14h13.54.857,replicate_nsd,2023.2.3,59.796029880027994,2024-04-09 14h14.09.814026 -0400,
images/21_40 copy.jpg,0,41,0,0,1,"[9, 19, 31, 42, 56, 68, 69, 70, 71]",0,113,113,113,398.5572528449993,,,,,,,,,,,398.5415896140039,398.54167663500994,398.54168859499623,398.5572528449993,399.5572551570076,399.5572551570076,402.5572777389898,402.5572777389898,402.5572777389898,402.5406290850078,None,402.5408165449917,402.54085826300434,None,402.54098562698346,402.54102607100504,None,402.5411410469969,402.5411773099913,None,,,,,,,,,,,,,,,1,001,0,,2024-04-09_14h13.54.857,replicate_nsd,2023.2.3,59.796029880027994,2024-04-09 14h14.09.814026 -0400,
images/blank.jpg,0,42,1,0,1,"[9, 19, 31, 42, 56, 68, 69, 70, 71]",0,114,114,114,402.5572777389898,,,,,,,,,,,402.5415600249835,402.5416474599915,402.54165976899094,,,,,,,402.5438277570065,None,402.54394635299104,406.54057323600864,None,406.54076016598265,406.5408058349858,None,406.54093142898637,406.54097054799786,None,402.5572777389898,402.5572777389898,406.5572764799872,406.5572764799872,,,,,,,,,,,1,001,0,,2024-04-09_14h13.54.857,replicate_nsd,2023.2.3,59.796029880027994,2024-04-09 14h14.09.814026 -0400,
images/18_0 copy 2.jpg,0,43,0,0,1,"[9, 19, 31, 42, 56, 68, 69, 70, 71]",0,115,115,115,406.5572764799872,,,,,,,,,,,406.5413607429946,406.5414501949854,406.5414621460077,406.5572764799872,407.5577489679854,407.5577489679854,410.55730755999684,410.55730755999684,410.55730755999684,410.54061730299145,None,410.5408051669947,410.5408481429913,None,410.5409758029855,410.54101688601077,None,410.5411342539883,410.5411707239982,None,,,,,,,,,,,,,,,1,001,0,,2024-04-09_14h13.54.857,replicate_nsd,2023.2.3,59.796029880027994,2024-04-09 14h14.09.814026 -0400,
images/8_40 copy 2.jpg,0,44,0,0,1,"[9, 19, 31, 42, 56, 68, 69, 70, 71]",0,116,116,116,410.55730755999684,,,,,,,,,,,410.54155670598266,410.5416440219851,410.5416562980099,410.55730755999684,411.5572497959947,411.5572497959947,414.5572218860034,414.5572218860034,414.5572218860034,414.54058707499644,None,414.540774278983,414.54081562301144,None,414.5409434750036,414.54098527500173,None,414.54110268098884,414.5411393629911,None,,,,,,,,,,,,,,,1,001,0,,2024-04-09_14h13.54.857,replicate_nsd,2023.2.3,59.796029880027994,2024-04-09 14h14.09.814026 -0400,
images/7_12 copy 5.jpg,0,45,0,0,1,"[9, 19, 31, 42, 56, 68, 69, 70, 71]",0,117,117,117,414.5572218860034,,,,,,,,,,,414.5415276919957,414.5416164099879,414.54162864299724,414.5572218860034,415.55718493499444,415.55718493499444,418.5572216009896,418.5572216009896,418.5572216009896,418.5432615710015,None,418.54344952799147,418.54349114600336,None,418.5436193080095,418.5436606130097,None,418.54377786201076,418.54381485198974,None,,,,,,,,,,,,,,,1,001,0,,2024-04-09_14h13.54.857,replicate_nsd,2023.2.3,59.796029880027994,2024-04-09 14h14.09.814026 -0400,
images/10_12 copy 7.jpg,0,46,0,0,1,"[9, 19, 31, 42, 56, 68, 69, 70, 71]",0,118,118,118,418.5572216009896,,,,,,,,,,,418.54420084200683,418.5442901189963,418.54430211600265,418.5572216009896,419.55682676899596,419.55682676899596,422.55722786299884,422.55722786299884,422.55722786299884,422.5432867409836,None,422.5434729119879,422.5435144259827,None,422.5436404729844,422.54368075498496,None,422.5437954829831,422.54383168398635,None,,,,,,,,,,,,,,,1,001,0,,2024-04-09_14h13.54.857,replicate_nsd,2023.2.3,59.796029880027994,2024-04-09 14h14.09.814026 -0400,
images/23_12 copy 3.jpg,0,47,0,0,1,"[9, 19, 31, 42, 56, 68, 69, 70, 71]",0,119,119,119,422.55722786299884,,,,,,,,,,,422.5442194399948,422.5443087980093,422.5443209699879,422.55722786299884,423.5572474869841,423.5572474869841,426.55808487700415,426.55808487700415,426.55808487700415,426.5421141469851,None,426.54230248500244,426.54234540698235,None,426.5427427300019,426.54278503599926,None,426.54290262798895,426.5429397599946,None,,,,,,,,,,,,,,,1,001,0,,2024-04-09_14h13.54.857,replicate_nsd,2023.2.3,59.796029880027994,2024-04-09 14h14.09.814026 -0400,
images/pair18 copy 4.jpg,0,48,0,0,1,"[9, 19, 31, 42, 56, 68, 69, 70, 71]",0,120,120,120,426.55808487700415,,,,,,,,,,,426.5433256489923,426.5434152020025,426.5434272880084,426.55808487700415,427.2852456579858,427.2852456579858,428.0104060169833,428.0104060169833,428.0104060169833,428.00154124500114,None,428.00172797599225,428.0017686249921,None,428.001893920009,428.001934689004,None,428.0020499769889,428.00208628500695,None,,,,,,,,,,,,,,,1,001,0,,2024-04-09_14h13.54.857,replicate_nsd,2023.2.3,59.796029880027994,2024-04-09 14h14.09.814026 -0400,
images/10_0 copy 3.jpg,0,49,0,0,1,"[9, 19, 31, 42, 56, 68, 69, 70, 71]",0,121,121,121,428.0104060169833,,,,,,,,,,,428.00247020699317,428.0025590249861,428.0025716079981,428.0104060169833,428.2273103100015,428.2273103100015,428.97324486999423,428.97324486999423,428.97324486999423,428.96395050300634,None,428.9641005329904,428.96413227100857,None,428.9642336709949,428.9642658919911,None,428.964358111989,428.96438675999525,None,,,,,,,,,,,,,,,1,001,0,,2024-04-09_14h13.54.857,replicate_nsd,2023.2.3,59.796029880027994,2024-04-09 14h14.09.814026 -0400,
images/9_0 copy 5.jpg,0,50,0,0,1,"[9, 19, 31, 42, 56, 68, 69, 70, 71]",0,122,122,122,428.97324486999423,,,,,,,,,,,428.9646923120017,428.9647621109907,428.9647717989865,428.97324486999423,429.17899387099897,429.17899387099897,429.9653423719865,429.9653423719865,429.9653423719865,429.95295918299234,None,429.95314888999565,429.95317037799396,None,429.9533047940058,429.9533463990083,None,429.95340164299705,429.95341939199716,None,,,,,,,,,,,,,,,1,001,0,,2024-04-09_14h13.54.857,replicate_nsd,2023.2.3,59.796029880027994,2024-04-09 14h14.09.814026 -0400,
images/pair04 copy 4.jpg,0,51,0,0,1,"[9, 19, 31, 42, 56, 68, 69, 70, 71]",0,123,123,123,429.9653423719865,,,,,,,,,,,429.9536138289841,429.9536594829988,429.9536653799878,429.9653423719865,430.18948668200755,430.18948668200755,430.86646486399695,430.86646486399695,430.86646486399695,430.85949512399384,None,430.8595991990005,430.8596189240052,None,430.85967969999183,430.8596994979889,None,430.85975268800394,430.8597699739912,None,,,,,,,,,,,,,,,1,001,0,,2024-04-09_14h13.54.857,replicate_nsd,2023.2.3,59.796029880027994,2024-04-09 14h14.09.814026 -0400,
images/8_0 copy 6.jpg,0,52,0,0,1,"[9, 19, 31, 42, 56, 68, 69, 70, 71]",0,124,124,124,430.86646486399695,,,,,,,,,,,430.8599542029842,430.85999602798256,430.8600017649878,430.86646486399695,431.0553154030058,431.0553154030058,433.09083737200126,433.09083737200126,433.09083737200126,433.0743220729928,None,433.07450993699604,433.0745543499943,None,433.074681188009,433.07472145499196,None,433.0748374479881,433.07487373400363,None,,,,,,,,,,,,,,,1,001,0,,2024-04-09_14h13.54.857,replicate_nsd,2023.2.3,59.796029880027994,2024-04-09 14h14.09.814026 -0400,
images/5_0 copy 2.jpg,0,53,0,0,1,"[9, 19, 31, 42, 56, 68, 69, 70, 71]",0,125,125,125,433.09083737200126,,,,,,,,,,,433.075260040001,433.0753495359968,433.07536191600957,433.09083737200126,434.09045596499345,434.09045596499345,437.09022847999586,437.09022847999586,437.09022847999586,437.07425724400673,None,437.0744474410021,437.07448915799614,None,437.07461734098615,437.07465822499944,None,437.0747748859867,437.07481041998835,None,,,,,,,,,,,,,,,1,001,0,,2024-04-09_14h13.54.857,replicate_nsd,2023.2.3,59.796029880027994,2024-04-09 14h14.09.814026 -0400,
images/pair01 copy 7.jpg,0,54,0,0,1,"[9, 19, 31, 42, 56, 68, 69, 70, 71]",0,126,126,126,437.09022847999586,,,,,,,,,,,437.0751958329929,437.07528289800393,437.0752950629976,437.09022847999586,438.09095052900375,438.09095052900375,441.0902256660047,441.0902256660047,441.0902256660047,441.07617600398953,None,441.076363553002,441.07640604500193,None,441.07653081798344,441.0765712799912,None,441.0766852439847,441.07672093398287,None,,,,,,,,,,,,,,,1,001,0,,2024-04-09_14h13.54.857,replicate_nsd,2023.2.3,59.796029880027994,2024-04-09 14h14.09.814026 -0400,
images/11_28.jpg,0,55,0,0,1,"[9, 19, 31, 42, 56, 68, 69, 70, 71]",0,127,127,127,441.0902256660047,,,,,,,,,,,441.07710497200605,441.07719303900376,441.0772049849911,441.0902256660047,442.0931061349984,442.0931061349984,445.09041211399017,445.09041211399017,445.09041211399017,445.0738105759956,None,445.0739972589945,445.0740375290043,None,445.0741619769833,445.0742030929832,None,445.07431672498933,445.0743524649879,None,,,,,,,,,,,,,,,1,001,0,,2024-04-09_14h13.54.857,replicate_nsd,2023.2.3,59.796029880027994,2024-04-09 14h14.09.814026 -0400,
images/blank.jpg,0,56,1,0,1,"[9, 19, 31, 42, 56, 68, 69, 70, 71]",0,128,128,128,445.09041211399017,,,,,,,,,,,445.0747312660096,445.07481841699337,445.0748302869906,,,,,,,445.0775702050014,None,445.0778045420011,449.07378395998967,None,449.0739705619926,449.07401593899704,None,449.0741411729832,449.07417916398845,None,445.09041211399017,445.09041211399017,449.09037189898663,449.09037189898663,,,,,,,,,,,1,001,0,,2024-04-09_14h13.54.857,replicate_nsd,2023.2.3,59.796029880027994,2024-04-09 14h14.09.814026 -0400,
images/18_28 copy 7.jpg,0,57,0,0,1,"[9, 19, 31, 42, 56, 68, 69, 70, 71]",0,129,129,129,449.09037189898663,,,,,,,,,,,449.07456649900996,449.07465433501056,449.07466691499576,449.09037189898663,450.0901758679829,450.0901758679829,453.09038755099755,453.09038755099755,453.09038755099755,453.0737774219888,None,453.0739657969971,453.07400744600454,None,453.0741337669897,453.0741748769942,None,453.07429136300925,453.0743273400003,None,,,,,,,,,,,,,,,1,001,0,,2024-04-09_14h13.54.857,replicate_nsd,2023.2.3,59.796029880027994,2024-04-09 14h14.09.814026 -0400,
images/16_28 copy 7.jpg,0,58,0,0,1,"[9, 19, 31, 42, 56, 68, 69, 70, 71]",0,130,130,130,453.09038755099755,,,,,,,,,,,453.07471288900706,453.0748012319964,453.074813498999,453.09038755099755,454.09039778998704,454.09039778998704,457.0904301200062,457.0904301200062,457.0904301200062,457.07377273298334,None,457.07396125100786,457.0740023870021,None,457.074129177985,457.074170398002,None,457.07428584000445,457.074321831984,None,,,,,,,,,,,,,,,1,001,0,,2024-04-09_14h13.54.857,replicate_nsd,2023.2.3,59.796029880027994,2024-04-09 14h14.09.814026 -0400,
images/20_0 copy 4.jpg,0,59,0,0,1,"[9, 19, 31, 42, 56, 68, 69, 70, 71]",0,131,131,131,457.0904301200062,,,,,,,,,,,457.0747065960022,457.0747944529867,457.0748068050016,457.0904301200062,458.090947218996,458.090947218996,461.09040754300077,461.09040754300077,461.09040754300077,461.0737740570039,None,461.0739650579926,461.07400667099864,None,461.0741345449933,461.07417512498796,None,461.07429332999163,461.074329717987,None,,,,,,,,,,,,,,,1,001,0,,2024-04-09_14h13.54.857,replicate_nsd,2023.2.3,59.796029880027994,2024-04-09 14h14.09.814026 -0400,
images/7_40 copy.jpg,0,60,0,0,1,"[9, 19, 31, 42, 56, 68, 69, 70, 71]",0,132,132,132,461.09040754300077,,,,,,,,,,,461.0747169360111,461.0748043899948,461.07481647099485,461.09040754300077,462.0909437829978,462.0909437829978,465.0904166440014,465.0904166440014,465.0904166440014,465.07426353599294,None,465.0744516309933,465.0744924939936,None,465.07461969100405,465.0746599829872,None,465.0747743480024,465.07480981899425,None,,,,,,,,,,,,,,,1,001,0,,2024-04-09_14h13.54.857,replicate_nsd,2023.2.3,59.796029880027994,2024-04-09 14h14.09.814026 -0400,
images/21_40 copy 6.jpg,0,61,0,0,1,"[9, 19, 31, 42, 56, 68, 69, 70, 71]",0,133,133,133,465.0904166440014,,,,,,,,,,,465.07519317101105,465.07528022900806,465.07529223000165,465.0904166440014,466.09090424500755,466.09090424500755,469.09040106099565,469.09040106099565,469.09040106099565,469.07357256600517,None,469.07376209800714,469.07380360600655,None,469.0739303669834,469.0739715890086,None,469.0740867560089,469.07412280899007,None,,,,,,,,,,,,,,,1,001,0,,2024-04-09_14h13.54.857,replicate_nsd,2023.2.3,59.796029880027994,2024-04-09 14h14.09.814026 -0400,
images/19_0 copy 5.jpg,0,62,0,0,1,"[9, 19, 31, 42, 56, 68, 69, 70, 71]",0,134,134,134,469.09040106099565,,,,,,,,,,,469.0745072340069,469.07459595799446,469.0746080359968,469.09040106099565,470.09092252500704,470.09092252500704,473.0904211989837,473.0904211989837,473.0904211989837,473.0737843629904,None,473.0739735320094,473.07401424698764,None,473.07414178500767,473.07418246701127,None,473.074299512984,473.0743362089852,None,,,,,,,,,,,,,,,1,001,0,,2024-04-09_14h13.54.857,replicate_nsd,2023.2.3,59.796029880027994,2024-04-09 14h14.09.814026 -0400,
images/14_40 copy 2.jpg,0,63,0,0,1,"[9, 19, 31, 42, 56, 68, 69, 70, 71]",0,135,135,135,473.0904211989837,,,,,,,,,,,473.0747232149879,473.07481060299324,473.0748229819874,473.0904211989837,474.09039140000823,474.09039140000823,477.08955556800356,477.08955556800356,477.08955556800356,477.07329996599583,None,477.07340683598886,477.0734275720024,None,477.0734902539989,477.07351058299537,None,477.0735663549858,477.0735842240101,None,,,,,,,,,,,,,,,1,001,0,,2024-04-09_14h13.54.857,replicate_nsd,2023.2.3,59.796029880027994,2024-04-09 14h14.09.814026 -0400,
images/7_40 copy 6.jpg,0,64,0,0,1,"[9, 19, 31, 42, 56, 68, 69, 70, 71]",0,136,136,136,477.08955556800356,,,,,,,,,,,477.0737747710082,477.0738185069931,477.07382424300886,477.08955556800356,478.08983963998617,478.08983963998617,481.08960034899064,481.08960034899064,481.08960034899064,481.0727411530097,None,481.0728526090097,481.0728737080062,None,481.0729375249939,481.0729584530054,None,481.07301479700254,481.07303209099337,None,,,,,,,,,,,,,,,1,001,0,,2024-04-09_14h13.54.857,replicate_nsd,2023.2.3,59.796029880027994,2024-04-09 14h14.09.814026 -0400,
images/11_0 copy 5.jpg,0,65,0,0,1,"[9, 19, 31, 42, 56, 68, 69, 70, 71]",0,137,137,137,481.08960034899064,,,,,,,,,,,481.07322346098954,481.0732670169964,481.073272921989,481.08960034899064,482.0901542250067,482.0901542250067,485.09037414600607,485.09037414600607,485.09037414600607,485.0763198869827,None,485.0765079050034,485.0765498339897,None,485.0766749790055,485.07671587198274,None,485.0768310530111,485.0768676059961,None,,,,,,,,,,,,,,,1,001,0,,2024-04-09_14h13.54.857,replicate_nsd,2023.2.3,59.796029880027994,2024-04-09 14h14.09.814026 -0400,
images/9_40 copy 3.jpg,0,66,0,0,1,"[9, 19, 31, 42, 56, 68, 69, 70, 71]",0,138,138,138,485.09037414600607,,,,,,,,,,,485.077249784983,485.0773373990087,485.07734978498775,485.09037414600607,486.09037293700385,486.09037293700385,489.09038433400565,489.09038433400565,489.09038433400565,489.07377478899434,None,489.07396403400344,489.0740052929905,None,489.0741320969828,489.07417245500255,None,489.0742894799914,489.074326795002,None,,,,,,,,,,,,,,,1,001,0,,2024-04-09_14h13.54.857,replicate_nsd,2023.2.3,59.796029880027994,2024-04-09 14h14.09.814026 -0400,
images/pair01 copy 2.jpg,0,67,0,0,1,"[9, 19, 31, 42, 56, 68, 69, 70, 71]",0,139,139,139,489.09038433400565,,,,,,,,,,,489.0747133709956,489.07480017398484,489.0748123569938,489.09038433400565,490.0895588560088,490.0895588560088,493.09041211300064,493.09041211300064,493.09041211300064,493.0764252200024,None,493.0766136129969,493.0766545329825,None,493.07678103400394,493.0768211449904,None,493.0769361839921,493.0769717619987,None,,,,,,,,,,,,,,,1,001,0,,2024-04-09_14h13.54.857,replicate_nsd,2023.2.3,59.796029880027994,2024-04-09 14h14.09.814026 -0400,
images/blank.jpg,0,68,1,0,1,"[9, 19, 31, 42, 56, 68, 69, 70, 71]",0,140,140,140,493.09041211300064,,,,,,,,,,,493.077354870009,493.0774419909867,493.07745426599286,,,,,,,493.0812202040106,None,493.0813401970081,497.07371532099205,None,497.07389955600956,497.0739433639974,None,497.0740663179895,497.0741036309919,None,493.09041211300064,493.09041211300064,497.09037678400637,497.09037678400637,,,,,,,,,,,1,001,0,,2024-04-09_14h13.54.857,replicate_nsd,2023.2.3,59.796029880027994,2024-04-09 14h14.09.814026 -0400,
images/blank.jpg,0,69,1,0,1,"[9, 19, 31, 42, 56, 68, 69, 70, 71]",0,141,141,141,497.09037678400637,,,,,,,,,,,497.07451441598823,497.074604214984,497.074616583006,,,,,,,497.07680753900786,None,497.07692021800904,501.0735736610077,None,501.0737671699899,501.0738046930055,None,501.0739058970066,501.0739366039925,None,497.09037678400637,497.09037678400637,501.0904056209838,501.0904056209838,,,,,,,,,,,1,001,0,,2024-04-09_14h13.54.857,replicate_nsd,2023.2.3,59.796029880027994,2024-04-09 14h14.09.814026 -0400,
images/blank.jpg,0,70,1,0,1,"[9, 19, 31, 42, 56, 68, 69, 70, 71]",0,142,142,142,501.0904056209838,,,,,,,,,,,501.0742516719911,501.07432410900947,501.0743337330059,,,,,,,501.076361910993,None,501.07647917600116,505.0754761649878,None,505.07568066200474,505.0757178940112,None,505.0758248720085,505.0758550800092,None,501.0904056209838,501.0904056209838,505.0894671480055,505.0894671480055,,,,,,,,,,,1,001,0,,2024-04-09_14h13.54.857,replicate_nsd,2023.2.3,59.796029880027994,2024-04-09 14h14.09.814026 -0400,
images/blank.jpg,0,71,1,1,1,"[9, 19, 31, 42, 56, 68, 69, 70, 71]",0,143,143,143,505.0894671480055,,,,,,,,,,,505.0761918030039,505.07627073698677,505.0762856309884,,,,,,,505.0783001820091,None,505.07842313099536,509.0762253080029,None,509.07634276899626,512.6597567469871,space,512.6599989210081,514.9735955889919,5,505.0894671480055,505.0894671480055,509.0897480179847,509.0897480179847,,,509.0897480179847,509.0897480179847,3.553332525974838,None,512.6753388709913,512.6753388709913,2.2957563799864147,None,1,001,0,,2024-04-09_14h13.54.857,replicate_nsd,2023.2.3,59.796029880027994,2024-04-09 14h14.09.814026 -0400,
images/15_28.jpg,0,0,0,0,2,"[9, 19, 29, 39, 49, 59, 68, 69, 70, 71]",0,144,144,144,514.9896678240038,,,,,,,,,,,514.9739711529983,514.9740197520005,514.9740263560088,514.9896678240038,515.99032433299,515.99032433299,518.9916889950109,518.9916889950109,518.9916889950109,518.9751167070062,None,518.9752745849837,518.9753107950091,None,518.9754134810064,518.9754467660096,None,518.9755389489874,518.9755685449927,None,,,,,,,,,,,,,,,1,001,0,,2024-04-09_14h13.54.857,replicate_nsd,2023.2.3,59.796029880027994,2024-04-09 14h14.09.814026 -0400,
images/pair09 copy 7.jpg,0,1,0,0,2,"[9, 19, 29, 39, 49, 59, 68, 69, 70, 71]",0,145,145,145,518.9916889950109,,,,,,,,,,,518.9758763370046,518.9759477810003,518.9759572070034,518.9916889950109,519.9914621489879,519.9914621489879,522.9908123060013,522.9908123060013,522.9908123060013,522.9760368659918,None,522.9762359579909,522.9762801369943,None,522.9764074200066,522.9764486489876,None,522.9765648510074,522.9766008330043,None,,,,,,,,,,,,,,,1,001,0,,2024-04-09_14h13.54.857,replicate_nsd,2023.2.3,59.796029880027994,2024-04-09 14h14.09.814026 -0400,
images/16_28 copy 6.jpg,0,2,0,0,2,"[9, 19, 29, 39, 49, 59, 68, 69, 70, 71]",0,146,146,146,522.9908123060013,,,,,,,,,,,522.9770076719869,522.9770966779906,522.9771085389948,522.9908123060013,523.9904930180055,523.9904930180055,526.9914852769871,526.9914852769871,526.9914852769871,526.9748995440023,None,526.9750886989932,526.97513002099,None,526.9752570359851,526.9752983390063,None,526.975416250003,526.9754520969873,None,,,,,,,,,,,,,,,1,001,0,,2024-04-09_14h13.54.857,replicate_nsd,2023.2.3,59.796029880027994,2024-04-09 14h14.09.814026 -0400,
images/16_12 copy 3.jpg,0,3,0,0,2,"[9, 19, 29, 39, 49, 59, 68, 69, 70, 71]",0,147,147,147,526.9914852769871,,,,,,,,,,,526.9758377239923,526.9759264889872,526.9759390300023,526.9914852769871,527.9905959249882,527.9905959249882,530.9904001269897,530.9904001269897,530.9904001269897,530.974315266998,None,530.9745060880086,530.9745502540027,None,530.9746771419886,530.9747185820015,None,530.9748351239832,530.9748717359907,None,,,,,,,,,,,,,,,1,001,0,,2024-04-09_14h13.54.857,replicate_nsd,2023.2.3,59.796029880027994,2024-04-09 14h14.09.814026 -0400,
,,,,,,,,,,,530.9904001269897,,,,,,,,,,,530.975256803009,530.9753442619985,530.9753561829857,530.9904001269897,,,,,,,,,,,,,,,,,,,,,,,,,,,,,,,,,,,,,,,,
