current_image,is_repeat,trial_index,is_blank_trial,is_new_run,run_num,all_blanks_list,loop_all_images.thisRepN,loop_all_images.thisTrialN,loop_all_images.thisN,loop_all_images.thisIndex,thisRow.t,notes,set_up.started,set_up.stopped,waiting_fmri.started,key_resp_2.started,text_3.started,waiting_fmri.stopped,key_resp_2.keys,key_resp_2.rt,key_resp_2.duration,set_skips.started,set_skips.stopped,trial.started,polygon.started,image.started,press_if_repeat.started,image.stopped,press_if_repeat.stopped,polygon.stopped,trial.stopped,press_if_repeat.keys,blank_trial.started,blank_trial.stopped,key_resp_3.keys,run_wait2.started,run_wait2.stopped,key_resp_5.keys,waiting_fmri_2.started,waiting_fmri_2.stopped,key_resp_4.keys,key_resp_3.started,polygon_2.started,key_resp_3.stopped,polygon_2.stopped,key_resp_3.rt,key_resp_3.duration,key_resp_5.started,text_5.started,key_resp_5.rt,key_resp_5.duration,key_resp_4.started,text_4.started,key_resp_4.rt,key_resp_4.duration,participant,session,starting_run,,date,expName,psychopyVersion,frameRate,expStart,
,,,,,,,,,,,,,0.03238269599387422,0.03254226001445204,0.03255567100131884,0.042179857002338395,0.042179857002338395,1.719130965997465,5,1.660505968000507,None,,,,,,,,,,,,,,,,,,,,,,,,,,,,,,,,,,,1,001,0,,2024-04-09_12h50.05.030,replicate_nsd,2023.2.3,59.96358422543912,2024-04-09 12h50.15.352925 -0400,
images/6_28 copy 2.jpg,0,0,0,0,0,"[9, 19, 29, 39, 49, 59, 68, 69, 70, 71]",0,0,0,0,1.8410571340064052,,,,,,,,,,,1.7960365769977216,1.7961380039923824,1.7961450570146553,1.8410571340064052,2.8186511560052168,2.8186511560052168,5.817691948002903,5.817691948002903,5.817691948002903,5.801343977014767,None,5.802039136993699,5.802068021992454,None,5.802572806016542,5.802601830015192,None,5.803093377995538,5.803119329997571,None,,,,,,,,,,,,,,,1,001,0,,2024-04-09_12h50.05.030,replicate_nsd,2023.2.3,59.96358422543912,2024-04-09 12h50.15.352925 -0400,
images/10_40 copy 4.jpg,0,1,0,0,0,"[9, 19, 29, 39, 49, 59, 68, 69, 70, 71]",0,1,1,1,5.817691948002903,,,,,,,,,,,5.803769677004311,5.803877833997831,5.8038846389972605,5.817691948002903,6.817149089998566,6.817149089998566,9.818488306016661,9.818488306016661,9.818488306016661,9.801979512994876,None,9.802167051995639,9.802209742018022,None,9.802337660017656,9.80237673400552,None,9.802494055009447,9.802529212000081,None,,,,,,,,,,,,,,,1,001,0,,2024-04-09_12h50.05.030,replicate_nsd,2023.2.3,59.96358422543912,2024-04-09 12h50.15.352925 -0400,
images/5_40 copy 5.jpg,0,2,0,0,0,"[9, 19, 29, 39, 49, 59, 68, 69, 70, 71]",0,2,2,2,9.818488306016661,,,,,,,,,,,9.802927910001017,9.803160166018642,9.803172290005023,9.818488306016661,10.817563557007816,10.817563557007816,13.817875252017984,13.817875252017984,13.817875252017984,13.801871028001187,None,13.80206015901058,13.802102971996646,None,13.802229863998946,13.802270115003921,None,13.802387439995073,13.802422951994231,None,,,,,,,,,,,,,,,1,001,0,,2024-04-09_12h50.05.030,replicate_nsd,2023.2.3,59.96358422543912,2024-04-09 12h50.15.352925 -0400,
images/10_0 copy 6.jpg,0,3,0,0,0,"[9, 19, 29, 39, 49, 59, 68, 69, 70, 71]",0,3,3,3,13.817875252017984,,,,,,,,,,,13.802821148012299,13.802994743018644,13.803006767004263,13.817875252017984,14.818600102007622,14.818600102007622,17.05825278701377,17.05825278701377,17.05825278701377,17.04984515401884,None,17.049996437999653,17.050030345999403,None,17.05013287899783,17.050164253014373,None,17.05025728099281,17.050286250014324,None,,,,,,,,,,,,,,,1,001,0,,2024-04-09_12h50.05.030,replicate_nsd,2023.2.3,59.96358422543912,2024-04-09 12h50.15.352925 -0400,
images/10_0 copy 3.jpg,0,4,0,0,0,"[9, 19, 29, 39, 49, 59, 68, 69, 70, 71]",0,4,4,4,17.05825278701377,,,,,,,,,,,17.05059508001432,17.05073450601776,17.050743820000207,17.05825278701377,17.27748614200391,17.27748614200391,17.97217250801623,17.97217250801623,17.97217250801623,17.964141517993994,None,17.964239894005004,17.964259956002934,None,17.96432018702035,17.964339227008168,None,17.96439326700056,17.96441065601539,None,,,,,,,,,,,,,,,1,001,0,,2024-04-09_12h50.05.030,replicate_nsd,2023.2.3,59.96358422543912,2024-04-09 12h50.15.352925 -0400,
images/5_28 copy 3.jpg,0,5,0,0,0,"[9, 19, 29, 39, 49, 59, 68, 69, 70, 71]",0,5,5,5,17.97217250801623,,,,,,,,,,,17.964592787000583,17.964706187020056,17.964712206012337,17.97217250801623,18.167262997012585,18.167262997012585,18.809154398011742,18.809154398011742,18.809154398011742,18.803090177010745,None,18.803187842015177,18.803208338009426,None,18.803270967997378,18.803290430019842,None,18.803347297012806,18.803365358995507,None,,,,,,,,,,,,,,,1,001,0,,2024-04-09_12h50.05.030,replicate_nsd,2023.2.3,59.96358422543912,2024-04-09 12h50.15.352925 -0400,
images/22_0.jpg,0,6,0,0,0,"[9, 19, 29, 39, 49, 59, 68, 69, 70, 71]",0,6,6,6,18.809154398011742,,,,,,,,,,,18.803556098020636,18.803642047016183,18.803647912020097,18.809154398011742,18.991997863020515,18.991997863020515,19.71904172099312,19.71904172099312,19.71904172099312,19.712653496011626,None,19.71275121200597,19.712771178019466,None,19.712829312018584,19.712847877992317,None,19.712900190002983,19.71291652400396,None,,,,,,,,,,,,,,,1,001,0,,2024-04-09_12h50.05.030,replicate_nsd,2023.2.3,59.96358422543912,2024-04-09 12h50.15.352925 -0400,
images/10_12 copy 2.jpg,0,7,0,0,0,"[9, 19, 29, 39, 49, 59, 68, 69, 70, 71]",0,7,7,7,19.71904172099312,,,,,,,,,,,19.713096665014746,19.71317706000991,19.713182652019896,19.71904172099312,19.90690562000964,19.90690562000964,20.58691527901101,20.58691527901101,20.58691527901101,20.580795706016943,None,20.580897628009552,20.58091831600177,None,20.580980953003746,20.58100074599497,None,20.58105633300147,20.581074204994366,None,,,,,,,,,,,,,,,1,001,0,,2024-04-09_12h50.05.030,replicate_nsd,2023.2.3,59.96358422543912,2024-04-09 12h50.15.352925 -0400,
images/5_40 copy 7.jpg,0,8,0,0,0,"[9, 19, 29, 39, 49, 59, 68, 69, 70, 71]",0,8,8,8,20.58691527901101,,,,,,,,,,,20.58126615700894,20.581439308007248,20.581450080993818,20.58691527901101,20.76823814099771,20.76823814099771,22.534324756998103,22.534324756998103,22.534324756998103,22.520035680005094,None,22.52015394900809,22.520174189005047,None,22.52023205300793,22.520250389992725,None,22.52030391601147,22.520320403011283,None,,,,,,,,,,,,,,,1,001,0,,2024-04-09_12h50.05.030,replicate_nsd,2023.2.3,59.96358422543912,2024-04-09 12h50.15.352925 -0400,
images/blank.jpg,0,9,1,0,0,"[9, 19, 29, 39, 49, 59, 68, 69, 70, 71]",0,9,9,9,22.534324756998103,,,,,,,,,,,22.520504014013568,22.52058842999395,22.52059395800461,,,,,,,22.52282694299356,None,22.522896451991983,26.517808825010434,None,26.518000926007517,26.51804488999187,None,26.518171789997723,26.518210289010312,None,22.534324756998103,22.534324756998103,26.534360331017524,26.534360331017524,,,,,,,,,,,1,001,0,,2024-04-09_12h50.05.030,replicate_nsd,2023.2.3,59.96358422543912,2024-04-09 12h50.15.352925 -0400,
images/13_28 copy 4.jpg,0,10,0,0,0,"[9, 19, 29, 39, 49, 59, 68, 69, 70, 71]",0,10,10,10,26.534360331017524,,,,,,,,,,,26.51860821500304,26.518860042997403,26.51887471199734,26.534360331017524,27.534339236997766,27.534339236997766,30.535905304015614,30.535905304015614,30.535905304015614,30.51961504400242,None,30.519805185002042,30.519849711010465,None,30.51997690400458,30.520016245020088,None,30.52013381102006,30.520170402014628,None,,,,,,,,,,,,,,,1,001,0,,2024-04-09_12h50.05.030,replicate_nsd,2023.2.3,59.96358422543912,2024-04-09 12h50.15.352925 -0400,
images/17_12 copy 3.jpg,0,11,0,0,0,"[9, 19, 29, 39, 49, 59, 68, 69, 70, 71]",0,11,11,11,30.535905304015614,,,,,,,,,,,30.520555069000693,30.52074438301497,30.52075641299598,30.535905304015614,31.53582936199382,31.53582936199382,34.5384404649958,34.5384404649958,34.5384404649958,34.52296101799584,None,34.5232484730077,34.52331628400134,None,34.52351956200437,34.52359152099234,None,34.523734902002616,34.52377217801404,None,,,,,,,,,,,,,,,1,001,0,,2024-04-09_12h50.05.030,replicate_nsd,2023.2.3,59.96358422543912,2024-04-09 12h50.15.352925 -0400,
images/6_40 copy.jpg,0,12,0,0,0,"[9, 19, 29, 39, 49, 59, 68, 69, 70, 71]",0,12,12,12,34.5384404649958,,,,,,,,,,,34.52428382501239,34.52446156999213,34.52447408399894,34.5384404649958,35.539768437010935,35.539768437010935,38.53886942600366,38.53886942600366,38.53886942600366,38.52327645299374,None,38.52347041500616,38.52351267199265,None,38.52363923899247,38.523679003992584,None,38.52379604999442,38.52383246200043,None,,,,,,,,,,,,,,,1,001,0,,2024-04-09_12h50.05.030,replicate_nsd,2023.2.3,59.96358422543912,2024-04-09 12h50.15.352925 -0400,
images/21_12 copy 3.jpg,0,13,0,0,0,"[9, 19, 29, 39, 49, 59, 68, 69, 70, 71]",0,13,13,13,38.53886942600366,,,,,,,,,,,38.52421530999709,38.52441588000511,38.524425962008536,38.53886942600366,39.540109302004566,39.540109302004566,42.5340355070075,42.5340355070075,42.5340355070075,42.518064620002406,None,42.518197002995294,42.518221311998786,None,42.5182908650022,42.51831214799313,None,42.518375548010226,42.518395671999315,None,,,,,,,,,,,,,,,1,001,0,,2024-04-09_12h50.05.030,replicate_nsd,2023.2.3,59.96358422543912,2024-04-09 12h50.15.352925 -0400,
images/7_0 copy.jpg,0,14,0,0,0,"[9, 19, 29, 39, 49, 59, 68, 69, 70, 71]",0,14,14,14,42.5340355070075,,,,,,,,,,,42.51860770100029,42.51870661700377,42.518713132012635,42.5340355070075,43.54212292400189,43.54212292400189,46.53438916199957,46.53438916199957,46.53438916199957,46.517770728009054,None,46.51795851701172,46.51800137400278,None,46.51813059099368,46.51817075899453,None,46.518287737009814,46.51832395300153,None,,,,,,,,,,,,,,,1,001,0,,2024-04-09_12h50.05.030,replicate_nsd,2023.2.3,59.96358422543912,2024-04-09 12h50.15.352925 -0400,
images/19_0.jpg,0,15,0,0,0,"[9, 19, 29, 39, 49, 59, 68, 69, 70, 71]",0,15,15,15,46.53438916199957,,,,,,,,,,,46.51870808901731,46.51889608000056,46.5189084809972,46.53438916199957,47.534657968994,47.534657968994,50.53441366300103,50.53441366300103,50.53441366300103,50.517782759008696,None,50.51797243001056,50.51801549701486,None,50.51814455201384,50.51818401401397,None,50.5183006930165,50.51833620300749,None,,,,,,,,,,,,,,,1,001,0,,2024-04-09_12h50.05.030,replicate_nsd,2023.2.3,59.96358422543912,2024-04-09 12h50.15.352925 -0400,
images/24_12 copy 2.jpg,0,16,0,0,0,"[9, 19, 29, 39, 49, 59, 68, 69, 70, 71]",0,16,16,16,50.53441366300103,,,,,,,,,,,50.51872138000908,50.51891634101048,50.51892864299589,50.53441366300103,51.53470064600697,51.53470064600697,54.53414133301703,54.53414133301703,54.53414133301703,54.520395986008225,None,54.52058509399649,54.52062899299199,None,54.52075636500376,54.52079583401792,None,54.520912289997796,54.52094843701343,None,,,,,,,,,,,,,,,1,001,0,,2024-04-09_12h50.05.030,replicate_nsd,2023.2.3,59.96358422543912,2024-04-09 12h50.15.352925 -0400,
images/24_0 copy 5.jpg,0,17,0,0,0,"[9, 19, 29, 39, 49, 59, 68, 69, 70, 71]",0,17,17,17,54.53414133301703,,,,,,,,,,,54.52133123099338,54.521521726012,54.52153418501257,54.53414133301703,55.54111131001264,55.54111131001264,58.53334171001916,58.53334171001916,58.53334171001916,58.51714992200141,None,58.51726350001991,58.517287348018726,None,58.517358070996124,58.51738007899257,None,58.517444243014324,58.5174641039921,None,,,,,,,,,,,,,,,1,001,0,,2024-04-09_12h50.05.030,replicate_nsd,2023.2.3,59.96358422543912,2024-04-09 12h50.15.352925 -0400,
images/13_12 copy 2.jpg,0,18,0,0,0,"[9, 19, 29, 39, 49, 59, 68, 69, 70, 71]",0,18,18,18,58.53334171001916,,,,,,,,,,,58.517679640004644,58.51778484499664,58.517791857011616,58.53334171001916,59.53892466501566,59.53892466501566,62.53389971199795,62.53389971199795,62.53389971199795,62.518950747995405,None,62.5190673879988,62.519091379013844,None,62.519162400014466,62.51918450699304,None,62.519249075005064,62.51926879500388,None,,,,,,,,,,,,,,,1,001,0,,2024-04-09_12h50.05.030,replicate_nsd,2023.2.3,59.96358422543912,2024-04-09 12h50.15.352925 -0400,
images/blank.jpg,0,19,1,0,0,"[9, 19, 29, 39, 49, 59, 68, 69, 70, 71]",0,19,19,19,62.53389971199795,,,,,,,,,,,62.5194882620126,62.519593502016505,62.51960010500625,,,,,,,62.521300230000634,None,62.52138514700346,66.51947353899595,None,66.51966310600983,66.51970693000476,None,66.5198353320011,66.51987345700036,None,62.53389971199795,62.53389971199795,66.53436843599775,66.53436843599775,,,,,,,,,,,1,001,0,,2024-04-09_12h50.05.030,replicate_nsd,2023.2.3,59.96358422543912,2024-04-09 12h50.15.352925 -0400,
images/11_28 copy 7.jpg,0,20,0,0,0,"[9, 19, 29, 39, 49, 59, 68, 69, 70, 71]",0,20,20,20,66.53436843599775,,,,,,,,,,,66.52027054000064,66.52046065899776,66.52047300399863,66.53436843599775,67.53562817000784,67.53562817000784,70.53359547801665,70.53359547801665,70.53359547801665,70.5195985980099,None,70.51978778699413,70.51983105399995,None,70.5199601240165,70.52000008602045,None,70.5201177370036,70.52015379301156,None,,,,,,,,,,,,,,,1,001,0,,2024-04-09_12h50.05.030,replicate_nsd,2023.2.3,59.96358422543912,2024-04-09 12h50.15.352925 -0400,
images/5_0.jpg,0,21,0,0,0,"[9, 19, 29, 39, 49, 59, 68, 69, 70, 71]",0,21,21,21,70.53359547801665,,,,,,,,,,,70.5205410940107,70.52073044600547,70.52074244001415,70.53359547801665,71.53547075300594,71.53547075300594,74.53551182101364,74.53551182101364,74.53551182101364,74.51903249099269,None,74.51918450399535,74.51921835099347,None,74.51931957001216,74.5193505770003,None,74.51944185700268,74.51946992400917,None,,,,,,,,,,,,,,,1,001,0,,2024-04-09_12h50.05.030,replicate_nsd,2023.2.3,59.96358422543912,2024-04-09 12h50.15.352925 -0400,
images/21_12 copy 4.jpg,0,22,0,0,0,"[9, 19, 29, 39, 49, 59, 68, 69, 70, 71]",0,22,22,22,74.53551182101364,,,,,,,,,,,74.51977071299916,74.5199117489974,74.51992128501297,74.53551182101364,75.42650997501914,75.42650997501914,76.10484963201452,76.10484963201452,76.10484963201452,76.09745571701205,None,76.09761830000207,76.09765447699465,None,76.09782241200446,76.09789823001483,None,76.09809271001723,76.09812880001846,None,,,,,,,,,,,,,,,1,001,0,,2024-04-09_12h50.05.030,replicate_nsd,2023.2.3,59.96358422543912,2024-04-09 12h50.15.352925 -0400,
images/10_12 copy 4.jpg,0,23,0,0,0,"[9, 19, 29, 39, 49, 59, 68, 69, 70, 71]",0,23,23,23,76.10484963201452,,,,,,,,,,,76.09846994199324,76.0985754209978,76.09858256101143,76.10484963201452,76.29354224499548,76.29354224499548,76.9691340830177,76.9691340830177,76.9691340830177,76.96303160101525,None,76.96313065299182,76.9631507830054,None,76.9632089480001,76.96324037300656,None,76.96337571300683,76.96340028801933,None,,,,,,,,,,,,,,,1,001,0,,2024-04-09_12h50.05.030,replicate_nsd,2023.2.3,59.96358422543912,2024-04-09 12h50.15.352925 -0400,
images/7_12 copy 3.jpg,0,24,0,0,0,"[9, 19, 29, 39, 49, 59, 68, 69, 70, 71]",0,24,24,24,76.9691340830177,,,,,,,,,,,76.96360492400709,76.9636882340128,76.96369363099802,76.9691340830177,77.15274165500887,77.15274165500887,77.7993994950084,77.7993994950084,77.7993994950084,77.788665021013,None,77.78876323299482,77.78878295700997,None,77.78884227701928,77.78886043501552,None,77.78891472000396,77.78893536599935,None,,,,,,,,,,,,,,,1,001,0,,2024-04-09_12h50.05.030,replicate_nsd,2023.2.3,59.96358422543912,2024-04-09 12h50.15.352925 -0400,
images/pair02 copy.jpg,0,25,0,0,0,"[9, 19, 29, 39, 49, 59, 68, 69, 70, 71]",0,25,25,25,77.7993994950084,,,,,,,,,,,77.78911942301784,77.78920012101298,77.78920574500808,77.7993994950084,77.97960364099708,77.97960364099708,78.6693613929965,78.6693613929965,78.6693613929965,78.66212517800159,None,78.66224576401873,78.66227025300032,None,78.66234301999793,78.66236522400868,None,78.6624291500193,78.66244941699551,None,,,,,,,,,,,,,,,1,001,0,,2024-04-09_12h50.05.030,replicate_nsd,2023.2.3,59.96358422543912,2024-04-09 12h50.15.352925 -0400,
images/23_12 copy 3.jpg,0,26,0,0,0,"[9, 19, 29, 39, 49, 59, 68, 69, 70, 71]",0,26,26,26,78.6693613929965,,,,,,,,,,,78.6626739439962,78.66277598400484,78.66278298900579,78.6693613929965,78.86124073999235,78.86124073999235,79.51080741701298,79.51080741701298,79.51080741701298,79.50412344999495,None,79.50425969800563,79.50428479901166,None,79.50436379699386,79.50438688200666,None,79.50445158602088,79.50447232701117,None,,,,,,,,,,,,,,,1,001,0,,2024-04-09_12h50.05.030,replicate_nsd,2023.2.3,59.96358422543912,2024-04-09 12h50.15.352925 -0400,
images/14_12.jpg,0,27,0,0,0,"[9, 19, 29, 39, 49, 59, 68, 69, 70, 71]",0,27,27,27,79.51080741701298,,,,,,,,,,,79.50469733800855,79.50481645201216,79.50482360101887,79.51080741701298,79.69079048401909,79.69079048401909,80.3313810529944,80.3313810529944,80.3313810529944,80.32486113300547,None,80.32496701000491,80.32498889201088,None,80.32505455301725,80.32507535099285,None,80.32513431701227,80.3251532120048,None,,,,,,,,,,,,,,,1,001,0,,2024-04-09_12h50.05.030,replicate_nsd,2023.2.3,59.96358422543912,2024-04-09 12h50.15.352925 -0400,
images/18_0 copy 3.jpg,0,28,0,0,0,"[9, 19, 29, 39, 49, 59, 68, 69, 70, 71]",0,28,28,28,80.3313810529944,,,,,,,,,,,80.32535090099555,80.32545142201707,80.32545779400971,80.3313810529944,80.51521102400147,80.51521102400147,81.15307426001527,81.15307426001527,81.15307426001527,81.14672068000073,None,81.14685319899581,81.14687843501451,None,81.1469467630086,81.14696880200063,None,81.14703060901957,81.14704994601198,None,,,,,,,,,,,,,,,1,001,0,,2024-04-09_12h50.05.030,replicate_nsd,2023.2.3,59.96358422543912,2024-04-09 12h50.15.352925 -0400,
images/blank.jpg,0,29,1,0,0,"[9, 19, 29, 39, 49, 59, 68, 69, 70, 71]",0,29,29,29,81.15307426001527,,,,,,,,,,,81.14726342001813,81.14739793702029,81.1474052919948,,,,,,,81.14951233699685,None,81.14960176401655,81.90306618899922,return,81.90367128400248,81.90369471799931,None,81.90375689600478,81.9037764990062,None,81.15307426001527,81.15307426001527,81.90945323900087,81.90945323900087,0.10958271400886588,None,,,,,,,,,1,001,0,,2024-04-09_12h50.05.030,replicate_nsd,2023.2.3,59.96358422543912,2024-04-09 12h50.15.352925 -0400,
images/16_0 copy 7.jpg,0,30,0,0,0,"[9, 19, 29, 39, 49, 59, 68, 69, 70, 71]",0,30,30,30,81.90945323900087,,,,,,,,,,,81.90396989500732,81.9040567020129,81.90406258500298,81.90945323900087,82.091407696018,82.091407696018,82.77023436900345,82.77023436900345,82.77023436900345,82.7631871009944,None,82.76337643500301,82.76340953999897,None,82.76354529199307,82.76357325300341,None,82.76366589299869,82.76368931599427,None,,,,,,,,,,,,,,,1,001,0,,2024-04-09_12h50.05.030,replicate_nsd,2023.2.3,59.96358422543912,2024-04-09 12h50.15.352925 -0400,
images/19_0 copy 2.jpg,0,31,0,0,0,"[9, 19, 29, 39, 49, 59, 68, 69, 70, 71]",0,31,31,31,82.77023436900345,,,,,,,,,,,82.76393364500836,82.76403869199567,82.76404546402046,82.77023436900345,82.9577233119926,82.9577233119926,83.62162326902035,83.62162326902035,83.62162326902035,83.61441156300134,None,83.61452075600391,83.61457877900102,None,83.6146681829996,83.61468970801798,None,83.61483927399968,83.61485724599333,None,,,,,,,,,,,,,,,1,001,0,,2024-04-09_12h50.05.030,replicate_nsd,2023.2.3,59.96358422543912,2024-04-09 12h50.15.352925 -0400,
images/13_28 copy 7.jpg,0,32,0,0,0,"[9, 19, 29, 39, 49, 59, 68, 69, 70, 71]",0,32,32,32,83.62162326902035,,,,,,,,,,,83.61508619299275,83.61524691499653,83.61525269100093,83.62162326902035,83.80439074401511,83.80439074401511,84.4421931609977,84.4421931609977,84.4421931609977,84.43657798101776,None,84.43668386299396,84.43670557500445,None,84.43676937601413,84.43678946900764,None,84.43684787501115,84.43686609901488,None,,,,,,,,,,,,,,,1,001,0,,2024-04-09_12h50.05.030,replicate_nsd,2023.2.3,59.96358422543912,2024-04-09 12h50.15.352925 -0400,
images/14_12.jpg,0,33,0,0,0,"[9, 19, 29, 39, 49, 59, 68, 69, 70, 71]",0,33,33,33,84.4421931609977,,,,,,,,,,,84.43707940500462,84.43716889500502,84.43717503399239,84.4421931609977,84.62401853801566,84.62401853801566,85.25768112202059,85.25768112202059,85.25768112202059,85.25107134401333,None,85.25118084001588,85.25120355401305,None,85.2512704700057,85.25129153899616,None,85.25135247499566,85.25137106201146,None,,,,,,,,,,,,,,,1,001,0,,2024-04-09_12h50.05.030,replicate_nsd,2023.2.3,59.96358422543912,2024-04-09 12h50.15.352925 -0400,
images/23_28 copy.jpg,0,34,0,0,0,"[9, 19, 29, 39, 49, 59, 68, 69, 70, 71]",0,34,34,34,85.25768112202059,,,,,,,,,,,85.25157588801812,85.25166720000561,85.2516734689998,85.25768112202059,85.44021846001851,85.44021846001851,86.08707352500642,86.08707352500642,86.08707352500642,86.0805700540077,None,86.08068192302017,86.08070536400191,None,86.08077059400966,86.08079065699712,None,86.0808508680202,86.08086929199635,None,,,,,,,,,,,,,,,1,001,0,,2024-04-09_12h50.05.030,replicate_nsd,2023.2.3,59.96358422543912,2024-04-09 12h50.15.352925 -0400,
images/6_12 copy 4.jpg,0,35,0,0,0,"[9, 19, 29, 39, 49, 59, 68, 69, 70, 71]",0,35,35,35,86.08707352500642,,,,,,,,,,,86.081086916005,86.08118457201635,86.08119054301642,86.08707352500642,86.27741419701488,86.27741419701488,87.01975111599313,87.01975111599313,87.01975111599313,87.01290925999638,None,87.01304829699802,87.01307335900492,None,87.01314483501483,87.01316776199383,None,87.01324343000306,87.01326404500287,None,,,,,,,,,,,,,,,1,001,0,,2024-04-09_12h50.05.030,replicate_nsd,2023.2.3,59.96358422543912,2024-04-09 12h50.15.352925 -0400,
images/10_0 copy 4.jpg,0,36,0,0,0,"[9, 19, 29, 39, 49, 59, 68, 69, 70, 71]",0,36,36,36,87.01975111599313,,,,,,,,,,,87.0134806749993,87.0135889200028,87.01359556399984,87.01975111599313,87.22821919599664,87.22821919599664,88.0038482020027,88.0038482020027,88.0038482020027,87.99396734699258,None,87.99408720299834,87.99411143301404,None,87.99418602301739,87.99420841300162,None,87.99427466699854,87.99429576599505,None,,,,,,,,,,,,,,,1,001,0,,2024-04-09_12h50.05.030,replicate_nsd,2023.2.3,59.96358422543912,2024-04-09 12h50.15.352925 -0400,
images/19_40 copy.jpg,0,37,0,0,0,"[9, 19, 29, 39, 49, 59, 68, 69, 70, 71]",0,37,37,37,88.0038482020027,,,,,,,,,,,87.99451941001462,87.99463017101516,87.99463717301842,88.0038482020027,88.1943382610043,88.1943382610043,88.87461227501626,88.87461227501626,88.87461227501626,88.86827218101826,None,88.86839007600793,88.86841454700334,None,88.86848544000532,88.86850800400134,None,88.86857240600511,88.86859232699499,None,,,,,,,,,,,,,,,1,001,0,,2024-04-09_12h50.05.030,replicate_nsd,2023.2.3,59.96358422543912,2024-04-09 12h50.15.352925 -0400,
images/23_12 copy 3.jpg,0,38,0,0,0,"[9, 19, 29, 39, 49, 59, 68, 69, 70, 71]",0,38,38,38,88.87461227501626,,,,,,,,,,,88.86880856700009,88.86891499601188,88.8689218070067,88.87461227501626,89.0592905539961,89.0592905539961,89.80167551001068,89.80167551001068,89.80167551001068,89.79567093201331,None,89.79578476701863,89.79580857101246,None,89.7958785740193,89.79590044601355,None,89.79596318901167,89.7959833460045,None,,,,,,,,,,,,,,,1,001,0,,2024-04-09_12h50.05.030,replicate_nsd,2023.2.3,59.96358422543912,2024-04-09 12h50.15.352925 -0400,
images/blank.jpg,0,39,1,0,0,"[9, 19, 29, 39, 49, 59, 68, 69, 70, 71]",0,39,39,39,89.80167551001068,,,,,,,,,,,89.79619775901665,89.79630150902085,89.79630825499771,,,,,,,89.79831632299465,None,89.79843492902,90.6377626680187,None,90.6378620690084,90.63788462101365,None,90.6379485700163,90.63796764501603,None,89.80167551001068,89.80167551001068,90.64365737201297,90.64365737201297,,,,,,,,,,,1,001,0,,2024-04-09_12h50.05.030,replicate_nsd,2023.2.3,59.96358422543912,2024-04-09 12h50.15.352925 -0400,
images/23_12 copy 7.jpg,0,40,0,0,0,"[9, 19, 29, 39, 49, 59, 68, 69, 70, 71]",0,40,40,40,90.64365737201297,,,,,,,,,,,90.63818532900768,90.63828056800412,90.63828648001072,90.64365737201297,90.83403770902078,90.83403770902078,91.48046228601015,91.48046228601015,91.48046228601015,91.47297745401738,None,91.47309176699491,91.47311681500287,None,91.47318806001567,91.47320966701955,None,91.47327384501114,91.47329429301317,None,,,,,,,,,,,,,,,1,001,0,,2024-04-09_12h50.05.030,replicate_nsd,2023.2.3,59.96358422543912,2024-04-09 12h50.15.352925 -0400,
images/pair06 copy 6.jpg,0,41,0,0,0,"[9, 19, 29, 39, 49, 59, 68, 69, 70, 71]",0,41,41,41,91.48046228601015,,,,,,,,,,,91.47350910300156,91.4736149579985,91.47362175601302,91.48046228601015,91.68985969401547,91.68985969401547,92.43012475600699,92.43012475600699,92.43012475600699,92.4234978230088,None,92.42361309099942,92.4236367730191,None,92.42370775601012,92.42372971601435,None,92.4237936620193,92.42381392500829,None,,,,,,,,,,,,,,,1,001,0,,2024-04-09_12h50.05.030,replicate_nsd,2023.2.3,59.96358422543912,2024-04-09 12h50.15.352925 -0400,
images/15_0 copy 3.jpg,0,42,0,0,0,"[9, 19, 29, 39, 49, 59, 68, 69, 70, 71]",0,42,42,42,92.43012475600699,,,,,,,,,,,92.42402913700789,92.42413375800243,92.42414061899763,92.43012475600699,92.66467461601133,92.66467461601133,93.45902016101172,93.45902016101172,93.45902016101172,93.45269257301698,None,93.45281133500976,93.4528368760075,None,93.45291148801334,93.45293449301971,None,93.45300333001069,93.45302469099988,None,,,,,,,,,,,,,,,1,001,0,,2024-04-09_12h50.05.030,replicate_nsd,2023.2.3,59.96358422543912,2024-04-09 12h50.15.352925 -0400,
images/19_0 copy 4.jpg,0,43,0,0,0,"[9, 19, 29, 39, 49, 59, 68, 69, 70, 71]",0,43,43,43,93.45902016101172,,,,,,,,,,,93.45325329300249,93.45336386101553,93.4533710340038,93.45902016101172,93.64633066701936,93.64633066701936,94.36621569399722,94.36621569399722,94.36621569399722,94.35916869799257,None,94.35929243001738,94.35931982999318,None,94.3593993060058,94.3594254149939,None,94.35949868900934,94.35952136199921,None,,,,,,,,,,,,,,,1,001,0,,2024-04-09_12h50.05.030,replicate_nsd,2023.2.3,59.96358422543912,2024-04-09 12h50.15.352925 -0400,
images/22_0 copy 5.jpg,0,44,0,0,0,"[9, 19, 29, 39, 49, 59, 68, 69, 70, 71]",0,44,44,44,94.36621569399722,,,,,,,,,,,94.3597656369966,94.35987447301159,94.35988219399587,94.36621569399722,94.55347127499408,94.55347127499408,95.23045842701686,95.23045842701686,95.23045842701686,95.22368039601133,None,95.22380205901572,95.22382622599252,None,95.22389828099404,95.22392031099298,None,95.22398478601826,95.22400490299333,None,,,,,,,,,,,,,,,1,001,0,,2024-04-09_12h50.05.030,replicate_nsd,2023.2.3,59.96358422543912,2024-04-09 12h50.15.352925 -0400,
images/20_0.jpg,0,45,0,0,0,"[9, 19, 29, 39, 49, 59, 68, 69, 70, 71]",0,45,45,45,95.23045842701686,,,,,,,,,,,95.22422546899179,95.22432571099489,95.22433230900788,95.23045842701686,95.4522999630135,95.4522999630135,96.12267255299957,96.12267255299957,96.12267255299957,96.11531108501367,None,96.1154473570059,96.11547372801579,None,96.11554968901328,96.11557303601876,None,96.11564198200358,96.11566297599347,None,,,,,,,,,,,,,,,1,001,0,,2024-04-09_12h50.05.030,replicate_nsd,2023.2.3,59.96358422543912,2024-04-09 12h50.15.352925 -0400,
images/pair03 copy 3.jpg,0,46,0,0,0,"[9, 19, 29, 39, 49, 59, 68, 69, 70, 71]",0,46,46,46,96.12267255299957,,,,,,,,,,,96.11589398200158,96.11601471400354,96.11602207401302,96.12267255299957,96.30907049699454,96.30907049699454,96.96104601401021,96.96104601401021,96.96104601401021,96.95425696199527,None,96.95436621300178,96.954389068007,None,96.95445888800896,96.95448050100822,None,96.95454531101859,96.95456578899757,None,,,,,,,,,,,,,,,1,001,0,,2024-04-09_12h50.05.030,replicate_nsd,2023.2.3,59.96358422543912,2024-04-09 12h50.15.352925 -0400,
images/6_12 copy 3.jpg,0,47,0,0,0,"[9, 19, 29, 39, 49, 59, 68, 69, 70, 71]",0,47,47,47,96.96104601401021,,,,,,,,,,,96.95478250001906,96.9549128760118,96.95492106501479,96.96104601401021,97.14372795299278,97.14372795299278,97.79898323200177,97.79898323200177,97.79898323200177,97.7920924340142,None,97.79219788699993,97.79221945800236,None,97.79228358701221,97.79230388699216,None,97.79250500700437,97.79252418800024,None,,,,,,,,,,,,,,,1,001,0,,2024-04-09_12h50.05.030,replicate_nsd,2023.2.3,59.96358422543912,2024-04-09 12h50.15.352925 -0400,
images/9_0 copy 3.jpg,0,48,0,0,0,"[9, 19, 29, 39, 49, 59, 68, 69, 70, 71]",0,48,48,48,97.79898323200177,,,,,,,,,,,97.79272286599735,97.79281894501764,97.79282502300339,97.79898323200177,97.98471150401747,97.98471150401747,98.73520126601215,98.73520126601215,98.73520126601215,98.72895091501414,None,98.72908138099592,98.72910535699339,None,98.72918261901941,98.72920524899382,None,98.72927041101502,98.72929114999715,None,,,,,,,,,,,,,,,1,001,0,,2024-04-09_12h50.05.030,replicate_nsd,2023.2.3,59.96358422543912,2024-04-09 12h50.15.352925 -0400,
images/blank.jpg,0,49,1,0,0,"[9, 19, 29, 39, 49, 59, 68, 69, 70, 71]",0,49,49,49,98.73520126601215,,,,,,,,,,,98.7295553110016,98.72966049000388,98.72966763601289,,,,,,,98.73162483199849,None,98.73172887199325,99.62336260799202,None,99.62349481499405,99.62352146400372,None,99.62359514800482,99.62361718501779,None,98.73520126601215,98.73520126601215,99.63003681399277,99.63003681399277,,,,,,,,,,,1,001,0,,2024-04-09_12h50.05.030,replicate_nsd,2023.2.3,59.96358422543912,2024-04-09 12h50.15.352925 -0400,
images/20_40 copy 4.jpg,0,50,0,0,0,"[9, 19, 29, 39, 49, 59, 68, 69, 70, 71]",0,50,50,50,99.63003681399277,,,,,,,,,,,99.62384298301185,99.62395370201557,99.62396050500683,99.63003681399277,99.86459911000566,99.86459911000566,100.62347291401238,100.62347291401238,100.62347291401238,100.61587112900452,None,100.61600147001445,100.6160269069951,None,100.61610037100036,100.61612272899947,None,100.61618733900832,100.6162078359921,None,,,,,,,,,,,,,,,1,001,0,,2024-04-09_12h50.05.030,replicate_nsd,2023.2.3,59.96358422543912,2024-04-09 12h50.15.352925 -0400,
images/24_12 copy.jpg,0,51,0,0,0,"[9, 19, 29, 39, 49, 59, 68, 69, 70, 71]",0,51,51,51,100.62347291401238,,,,,,,,,,,100.6164289220178,100.6165367620124,100.61654354500934,100.62347291401238,100.85764750800445,100.85764750800445,101.54243552801199,101.54243552801199,101.54243552801199,101.53598572901683,None,101.536125507002,101.53615047701169,None,101.53622526701656,101.53624819600373,None,101.53631495300215,101.53633616201114,None,,,,,,,,,,,,,,,1,001,0,,2024-04-09_12h50.05.030,replicate_nsd,2023.2.3,59.96358422543912,2024-04-09 12h50.15.352925 -0400,
images/14_40 copy 5.jpg,0,52,0,0,0,"[9, 19, 29, 39, 49, 59, 68, 69, 70, 71]",0,52,52,52,101.54243552801199,,,,,,,,,,,101.53656235299422,101.5366717420111,101.53667859800044,101.54243552801199,101.72726713001612,101.72726713001612,102.37575775600271,102.37575775600271,102.37575775600271,102.3672832630109,None,102.36738924900419,102.36740981199546,None,102.36747300199931,102.36749282400706,None,102.36754930199822,102.36756688301102,None,,,,,,,,,,,,,,,1,001,0,,2024-04-09_12h50.05.030,replicate_nsd,2023.2.3,59.96358422543912,2024-04-09 12h50.15.352925 -0400,
images/pair14 copy 7.jpg,0,53,0,0,0,"[9, 19, 29, 39, 49, 59, 68, 69, 70, 71]",0,53,53,53,102.37575775600271,,,,,,,,,,,102.3677605559933,102.36785611501546,102.36786181799835,102.37575775600271,102.55969432799611,102.55969432799611,103.21096898399992,103.21096898399992,103.21096898399992,103.20373702101642,None,103.20385496801464,103.203880459012,None,103.20395624800585,103.20397899800446,None,103.2040467740153,103.20406821099459,None,,,,,,,,,,,,,,,1,001,0,,2024-04-09_12h50.05.030,replicate_nsd,2023.2.3,59.96358422543912,2024-04-09 12h50.15.352925 -0400,
images/14_40 copy 7.jpg,0,54,0,0,0,"[9, 19, 29, 39, 49, 59, 68, 69, 70, 71]",0,54,54,54,103.21096898399992,,,,,,,,,,,103.20429980801418,103.20441236600163,103.20441955400747,103.21096898399992,103.39733127999352,103.39733127999352,104.04841756401584,104.04841756401584,104.04841756401584,104.04060755899991,None,104.04071745701367,104.04073966201395,None,104.04080483800499,104.04082580201793,None,104.04088534100447,104.04090357501991,None,,,,,,,,,,,,,,,1,001,0,,2024-04-09_12h50.05.030,replicate_nsd,2023.2.3,59.96358422543912,2024-04-09 12h50.15.352925 -0400,
images/pair01 copy.jpg,0,55,0,0,0,"[9, 19, 29, 39, 49, 59, 68, 69, 70, 71]",0,55,55,55,104.04841756401584,,,,,,,,,,,104.0411038530001,104.04119447001722,104.0412006980041,104.04841756401584,104.2360691819922,104.2360691819922,104.89011074102018,104.89011074102018,104.89011074102018,104.8832605619973,None,104.88337876199512,104.88340371701634,None,104.88347590001649,104.88349824701436,None,104.88356358002056,104.88358395101386,None,,,,,,,,,,,,,,,1,001,0,,2024-04-09_12h50.05.030,replicate_nsd,2023.2.3,59.96358422543912,2024-04-09 12h50.15.352925 -0400,
images/18_0 copy 2.jpg,0,56,0,0,0,"[9, 19, 29, 39, 49, 59, 68, 69, 70, 71]",0,56,56,56,104.89011074102018,,,,,,,,,,,104.88380908299587,104.88391698501073,104.8839237469947,104.89011074102018,105.07541103701806,105.07541103701806,105.74206610300462,105.74206610300462,105.74206610300462,105.73466700999415,None,105.73479225800838,105.73481907599489,None,105.73490192100871,105.7349270520208,None,105.73500062100356,105.73502304701833,None,,,,,,,,,,,,,,,1,001,0,,2024-04-09_12h50.05.030,replicate_nsd,2023.2.3,59.96358422543912,2024-04-09 12h50.15.352925 -0400,
images/19_28 copy 5.jpg,0,57,0,0,0,"[9, 19, 29, 39, 49, 59, 68, 69, 70, 71]",0,57,57,57,105.74206610300462,,,,,,,,,,,105.73526770700119,105.73538200199255,105.73538969201036,105.74206610300462,105.92652730201371,105.92652730201371,106.5911615040095,106.5911615040095,106.5911615040095,106.58323208300862,None,106.58335962201818,106.5833873389929,None,106.5834702019929,106.58349563201773,None,106.58357104801689,106.58359400901827,None,,,,,,,,,,,,,,,1,001,0,,2024-04-09_12h50.05.030,replicate_nsd,2023.2.3,59.96358422543912,2024-04-09 12h50.15.352925 -0400,
images/pair02 copy 5.jpg,0,58,0,0,0,"[9, 19, 29, 39, 49, 59, 68, 69, 70, 71]",0,58,58,58,106.5911615040095,,,,,,,,,,,106.58384680599556,106.58396847100812,106.58397626300575,106.5911615040095,106.78050706500653,106.78050706500653,107.44116078599473,107.44116078599473,107.44116078599473,107.4339898340113,None,107.43410552601563,107.43412961799186,None,107.43420004099607,107.43422197000473,None,107.43428506300552,107.43430477799848,None,,,,,,,,,,,,,,,1,001,0,,2024-04-09_12h50.05.030,replicate_nsd,2023.2.3,59.96358422543912,2024-04-09 12h50.15.352925 -0400,
images/blank.jpg,0,59,1,0,0,"[9, 19, 29, 39, 49, 59, 68, 69, 70, 71]",0,59,59,59,107.44116078599473,,,,,,,,,,,107.43451772301341,107.43462477601133,107.43463144701673,,,,,,,107.43705185101135,None,107.43715922601405,108.18641080000089,None,108.18651929899352,108.18654352001613,None,108.18661306099966,108.18663391299197,None,107.44116078599473,107.44116078599473,108.19308671500767,108.19308671500767,,,,,,,,,,,1,001,0,,2024-04-09_12h50.05.030,replicate_nsd,2023.2.3,59.96358422543912,2024-04-09 12h50.15.352925 -0400,
images/16_28 copy 3.jpg,0,60,0,0,0,"[9, 19, 29, 39, 49, 59, 68, 69, 70, 71]",0,60,60,60,108.19308671500767,,,,,,,,,,,108.18685317400377,108.18695764400763,108.1869644090184,108.19308671500767,108.38164191800752,108.38164191800752,109.0574452530127,109.0574452530127,109.0574452530127,109.05102860499755,None,109.05114018899621,109.0511634540162,None,109.0512305549928,109.05125199901522,None,109.05137030300102,109.05139689601492,None,,,,,,,,,,,,,,,1,001,0,,2024-04-09_12h50.05.030,replicate_nsd,2023.2.3,59.96358422543912,2024-04-09 12h50.15.352925 -0400,
images/24_0.jpg,0,61,0,0,0,"[9, 19, 29, 39, 49, 59, 68, 69, 70, 71]",0,61,61,61,109.0574452530127,,,,,,,,,,,109.05165349401068,109.05175824501202,109.05176459401264,109.0574452530127,109.24376516399207,109.24376516399207,109.90187187600532,109.90187187600532,109.90187187600532,109.89450446001138,None,109.8946231790178,109.894647403009,None,109.89472054800717,109.89474288400379,None,109.89480902100331,109.89482968801167,None,,,,,,,,,,,,,,,1,001,0,,2024-04-09_12h50.05.030,replicate_nsd,2023.2.3,59.96358422543912,2024-04-09 12h50.15.352925 -0400,
images/5_12 copy 7.jpg,0,62,0,0,0,"[9, 19, 29, 39, 49, 59, 68, 69, 70, 71]",0,62,62,62,109.90187187600532,,,,,,,,,,,109.89507497701561,109.89518695801962,109.89519414200913,109.90187187600532,110.09311072301352,110.09311072301352,110.75425193499541,110.75425193499541,110.75425193499541,110.74712270501186,None,110.74724370101467,110.74726962600835,None,110.74734607999562,110.74737031399854,None,110.74744050699519,110.74746214601328,None,,,,,,,,,,,,,,,1,001,0,,2024-04-09_12h50.05.030,replicate_nsd,2023.2.3,59.96358422543912,2024-04-09 12h50.15.352925 -0400,
images/8_12 copy 3.jpg,0,63,0,0,0,"[9, 19, 29, 39, 49, 59, 68, 69, 70, 71]",0,63,63,63,110.75425193499541,,,,,,,,,,,110.74769703301718,110.74781237501884,110.7478194530122,110.75425193499541,110.94147471900214,110.94147471900214,111.65551267401315,111.65551267401315,111.65551267401315,111.64454581702012,None,111.64471461699577,111.64475622100872,None,111.64485649301787,111.6448836690106,None,111.64497069001663,111.64500595899881,None,,,,,,,,,,,,,,,1,001,0,,2024-04-09_12h50.05.030,replicate_nsd,2023.2.3,59.96358422543912,2024-04-09 12h50.15.352925 -0400,
images/pair16 copy 4.jpg,0,64,0,0,0,"[9, 19, 29, 39, 49, 59, 68, 69, 70, 71]",0,64,64,64,111.65551267401315,,,,,,,,,,,111.64538570400327,111.6455311710015,111.64553997799521,111.65551267401315,111.89348690200131,111.89348690200131,112.79227121800068,112.79227121800068,112.79227121800068,112.78314869001042,None,112.78329680199386,112.78332408200367,None,112.78340502400533,112.78342994401464,None,112.78350349000539,112.78352601701044,None,,,,,,,,,,,,,,,1,001,0,,2024-04-09_12h50.05.030,replicate_nsd,2023.2.3,59.96358422543912,2024-04-09 12h50.15.352925 -0400,
images/19_28 copy 4.jpg,0,65,0,0,0,"[9, 19, 29, 39, 49, 59, 68, 69, 70, 71]",0,65,65,65,112.79227121800068,,,,,,,,,,,112.78377984199324,112.78390534000937,112.78391295301844,112.79227121800068,112.98945963199367,112.98945963199367,113.67955941299442,113.67955941299442,113.67955941299442,113.67309400299564,None,113.67322375500225,113.67324783900403,None,113.67332054799772,113.67334290599683,None,113.67340842599515,113.67342855001334,None,,,,,,,,,,,,,,,1,001,0,,2024-04-09_12h50.05.030,replicate_nsd,2023.2.3,59.96358422543912,2024-04-09 12h50.15.352925 -0400,
images/23_28 copy 5.jpg,0,66,0,0,0,"[9, 19, 29, 39, 49, 59, 68, 69, 70, 71]",0,66,66,66,113.67955941299442,,,,,,,,,,,113.67365042801248,113.67376071499893,113.67376774299191,113.67955941299442,113.87722585399752,113.87722585399752,114.58501496299868,114.58501496299868,114.58501496299868,114.57712138601346,None,114.57728472401504,114.57731695601251,None,114.57741576101398,114.57744709600229,None,114.5775372289936,114.57756574300583,None,,,,,,,,,,,,,,,1,001,0,,2024-04-09_12h50.05.030,replicate_nsd,2023.2.3,59.96358422543912,2024-04-09 12h50.15.352925 -0400,
images/10_28 copy 7.jpg,0,67,0,0,0,"[9, 19, 29, 39, 49, 59, 68, 69, 70, 71]",0,67,67,67,114.58501496299868,,,,,,,,,,,114.57785221200902,114.5779994050099,114.57800850301282,114.58501496299868,114.77553041800275,114.77553041800275,115.51467124201008,115.51467124201008,115.51467124201008,115.50815267700818,None,115.50827447499614,115.50830111600226,None,115.50837948400294,115.50840413101832,None,115.50847575999796,115.50849741100683,None,,,,,,,,,,,,,,,1,001,0,,2024-04-09_12h50.05.030,replicate_nsd,2023.2.3,59.96358422543912,2024-04-09 12h50.15.352925 -0400,
images/blank.jpg,0,68,1,0,0,"[9, 19, 29, 39, 49, 59, 68, 69, 70, 71]",0,68,68,68,115.51467124201008,,,,,,,,,,,115.5087370639958,115.50884482299443,115.5088522490114,,,,,,,115.51105389901204,None,115.51114928899915,116.377946935012,None,116.37807839000016,116.37810583200189,None,116.37818107800558,116.37820277901483,None,115.51467124201008,115.51467124201008,116.38717028399697,116.38717028399697,,,,,,,,,,,1,001,0,,2024-04-09_12h50.05.030,replicate_nsd,2023.2.3,59.96358422543912,2024-04-09 12h50.15.352925 -0400,
images/blank.jpg,0,69,1,0,0,"[9, 19, 29, 39, 49, 59, 68, 69, 70, 71]",0,69,69,69,116.38717028399697,,,,,,,,,,,116.37842843300314,116.37852971901884,116.37853645501309,,,,,,,116.38065362299676,None,116.3807720390032,117.1766375139996,None,117.17675097400206,117.17677757100319,None,117.17686495999806,117.17688797900337,None,116.38717028399697,116.38717028399697,117.18303147002007,117.18303147002007,,,,,,,,,,,1,001,0,,2024-04-09_12h50.05.030,replicate_nsd,2023.2.3,59.96358422543912,2024-04-09 12h50.15.352925 -0400,
images/blank.jpg,0,70,1,0,0,"[9, 19, 29, 39, 49, 59, 68, 69, 70, 71]",0,70,70,70,117.18303147002007,,,,,,,,,,,117.17712470301194,117.17723645301885,117.17724364800961,,,,,,,117.17908890801482,None,117.1791800550127,118.0249983050162,None,118.02512508101063,118.02515444500023,None,118.02524157200241,118.02526749300887,None,117.18303147002007,117.18303147002007,118.0308521540137,118.0308521540137,,,,,,,,,,,1,001,0,,2024-04-09_12h50.05.030,replicate_nsd,2023.2.3,59.96358422543912,2024-04-09 12h50.15.352925 -0400,
images/blank.jpg,0,71,1,1,0,"[9, 19, 29, 39, 49, 59, 68, 69, 70, 71]",0,71,71,71,118.0308521540137,,,,,,,,,,,118.02553309701034,118.02565078900079,118.0256588520133,,,,,,,118.02736485400237,None,118.02746392201516,118.95186031801859,None,118.95200854600989,138.08513773500454,backspace,138.08596795299673,519.0645845610125,5,118.0308521540137,118.0308521540137,118.95695648901165,118.95695648901165,,,122.01458455401007,122.01458455401007,16.068086388986558,None,138.09018244201434,138.09018244201434,380.96455977801816,None,1,001,0,,2024-04-09_12h50.05.030,replicate_nsd,2023.2.3,59.96358422543912,2024-04-09 12h50.15.352925 -0400,
images/10_0 copy 6.jpg,0,0,0,0,1,"[9, 19, 31, 42, 56, 68, 69, 70, 71]",0,72,72,72,519.0811052260105,,,,,,,,,,,519.065782087011,519.0659596119949,519.0659703529964,519.0811052260105,520.0822882679931,520.0822882679931,523.0812919989985,523.0812919989985,523.0812919989985,523.0646575840074,None,523.0648442810052,523.0648874019971,None,523.0650138519995,523.0650544810051,None,523.0651707490033,523.0652077780105,None,,,,,,,,,,,,,,,1,001,0,,2024-04-09_12h50.05.030,replicate_nsd,2023.2.3,59.96358422543912,2024-04-09 12h50.15.352925 -0400,
images/6_0 copy 3.jpg,0,1,0,0,1,"[9, 19, 31, 42, 56, 68, 69, 70, 71]",0,73,73,73,523.0812919989985,,,,,,,,,,,523.0655907760083,523.065762637998,523.0657742490002,523.0812919989985,524.0803602650121,524.0803602650121,527.081133144995,527.081133144995,527.081133144995,527.067220049008,None,527.0674076070136,527.0674498720036,None,527.0675784350024,527.0676174120163,None,527.0677349750185,527.0677708760195,None,,,,,,,,,,,,,,,1,001,0,,2024-04-09_12h50.05.030,replicate_nsd,2023.2.3,59.96358422543912,2024-04-09 12h50.15.352925 -0400,
images/21_0.jpg,0,2,0,0,1,"[9, 19, 31, 42, 56, 68, 69, 70, 71]",0,74,74,74,527.081133144995,,,,,,,,,,,527.0681798199948,527.0683701200178,527.0683822770079,527.081133144995,528.0803253030172,528.0803253030172,530.5020484449924,530.5020484449924,530.5020484449924,530.4903015879972,None,530.4904506180028,530.4904830900196,None,530.4905814719968,530.4906116909988,None,530.490701667004,530.490729985002,None,,,,,,,,,,,,,,,1,001,0,,2024-04-09_12h50.05.030,replicate_nsd,2023.2.3,59.96358422543912,2024-04-09 12h50.15.352925 -0400,
images/pair03 copy 7.jpg,0,3,0,0,1,"[9, 19, 31, 42, 56, 68, 69, 70, 71]",0,75,75,75,530.5020484449924,,,,,,,,,,,530.4910318360198,530.4911891450174,530.4911986270163,530.5020484449924,530.6910697740095,530.6910697740095,531.3558355130081,531.3558355130081,531.3558355130081,531.3491795230075,None,531.3492846930167,531.3493049209937,None,531.3493655610073,531.349383933004,None,531.3494377339957,531.3494547299924,None,,,,,,,,,,,,,,,1,001,0,,2024-04-09_12h50.05.030,replicate_nsd,2023.2.3,59.96358422543912,2024-04-09 12h50.15.352925 -0400,
images/20_0.jpg,0,4,0,0,1,"[9, 19, 31, 42, 56, 68, 69, 70, 71]",0,76,76,76,531.3558355130081,,,,,,,,,,,531.3496370630164,531.3497206410102,531.3497259730066,531.3558355130081,531.5479203349969,531.5479203349969,532.2206719340174,532.2206719340174,532.2206719340174,532.2120828120096,None,532.212298494007,532.2123395279923,None,532.2125116290117,532.2125324220106,None,532.2125938750105,532.2126126619987,None,,,,,,,,,,,,,,,1,001,0,,2024-04-09_12h50.05.030,replicate_nsd,2023.2.3,59.96358422543912,2024-04-09 12h50.15.352925 -0400,
images/5_0 copy 6.jpg,0,5,0,0,1,"[9, 19, 31, 42, 56, 68, 69, 70, 71]",0,77,77,77,532.2206719340174,,,,,,,,,,,532.2129117209988,532.2130770400108,532.2130825610075,532.2206719340174,532.4146484619996,532.4146484619996,533.0564181389927,533.0564181389927,533.0564181389927,533.0496544500056,None,533.0497546459956,533.0497745879984,None,533.0498351819988,533.0498544190195,None,533.0499091090169,533.0499258929922,None,,,,,,,,,,,,,,,1,001,0,,2024-04-09_12h50.05.030,replicate_nsd,2023.2.3,59.96358422543912,2024-04-09 12h50.15.352925 -0400,
images/18_0 copy 7.jpg,0,6,0,0,1,"[9, 19, 31, 42, 56, 68, 69, 70, 71]",0,78,78,78,533.0564181389927,,,,,,,,,,,533.0501141950081,533.050196377997,533.0502019250125,533.0564181389927,533.237380555016,533.237380555016,533.9065249029954,533.9065249029954,533.9065249029954,533.8996657970129,None,533.8997819280194,533.8998057910067,None,533.8998753430205,533.8998971800029,None,533.899960152019,533.8999797550205,None,,,,,,,,,,,,,,,1,001,0,,2024-04-09_12h50.05.030,replicate_nsd,2023.2.3,59.96358422543912,2024-04-09 12h50.15.352925 -0400,
images/6_40.jpg,0,7,0,0,1,"[9, 19, 31, 42, 56, 68, 69, 70, 71]",0,79,79,79,533.9065249029954,,,,,,,,,,,533.9002071690047,533.9003344230005,533.9003409240104,533.9065249029954,534.0987863200135,534.0987863200135,534.7293271209928,534.7293271209928,534.7293271209928,534.7236353300104,None,534.7237339930143,534.7237533120206,None,534.7238108360034,534.7238291079993,None,534.723881354992,534.7238976719964,None,,,,,,,,,,,,,,,1,001,0,,2024-04-09_12h50.05.030,replicate_nsd,2023.2.3,59.96358422543912,2024-04-09 12h50.15.352925 -0400,
images/18_0 copy 2.jpg,0,8,0,0,1,"[9, 19, 31, 42, 56, 68, 69, 70, 71]",0,80,80,80,534.7293271209928,,,,,,,,,,,534.7240776850085,534.7241578820103,534.7241631890065,534.7293271209928,534.9095024999988,534.9095024999988,535.5376848450105,535.5376848450105,535.5376848450105,535.5313387550123,None,535.531435612007,535.5314553189964,None,535.5315139790182,535.5315318109933,None,535.5315838670067,535.5316000549938,None,,,,,,,,,,,,,,,1,001,0,,2024-04-09_12h50.05.030,replicate_nsd,2023.2.3,59.96358422543912,2024-04-09 12h50.15.352925 -0400,
images/blank.jpg,0,9,1,0,1,"[9, 19, 31, 42, 56, 68, 69, 70, 71]",0,81,81,81,535.5376848450105,,,,,,,,,,,535.5317791160196,535.5318591000105,535.5318645170191,,,,,,,535.5344785140187,None,535.534547741001,536.2726381079992,i,536.2728907740093,536.272917594004,None,536.2729820910026,536.2730037230067,None,535.5376848450105,535.5376848450105,536.2794430390059,536.2794430390059,0.7289218149962835,None,,,,,,,,,1,001,0,,2024-04-09_12h50.05.030,replicate_nsd,2023.2.3,59.96358422543912,2024-04-09 12h50.15.352925 -0400,
images/21_40 copy.jpg,0,10,0,0,1,"[9, 19, 31, 42, 56, 68, 69, 70, 71]",0,82,82,82,536.2794430390059,,,,,,,,,,,536.2732161910099,536.2733138290059,536.2733204929973,536.2794430390059,536.4625651570095,536.4625651570095,537.0892925230146,537.0892925230146,537.0892925230146,537.0827467950003,None,537.0828425649961,537.0828635280195,None,537.0829212279932,537.0829393960012,None,537.0829929530155,537.0830098000006,None,,,,,,,,,,,,,,,1,001,0,,2024-04-09_12h50.05.030,replicate_nsd,2023.2.3,59.96358422543912,2024-04-09 12h50.15.352925 -0400,
images/20_28.jpg,0,11,0,0,1,"[9, 19, 31, 42, 56, 68, 69, 70, 71]",0,83,83,83,537.0892925230146,,,,,,,,,,,537.0831887650129,537.0832692359982,537.0832744619984,537.0892925230146,537.2702406239987,537.2702406239987,537.9203039460117,537.9203039460117,537.9203039460117,537.9118462680199,None,537.9119497440115,537.9119707370119,None,537.9121132830041,537.9121352799993,None,537.9122287160135,537.9122468440037,None,,,,,,,,,,,,,,,1,001,0,,2024-04-09_12h50.05.030,replicate_nsd,2023.2.3,59.96358422543912,2024-04-09 12h50.15.352925 -0400,
images/pair01 copy 7.jpg,0,12,0,0,1,"[9, 19, 31, 42, 56, 68, 69, 70, 71]",0,84,84,84,537.9203039460117,,,,,,,,,,,537.9125564020069,537.9126494940137,537.9126550219953,537.9203039460117,538.1057476770075,538.1057476770075,538.8558957920177,538.8558957920177,538.8558957920177,538.8491034590115,None,538.8492117860005,538.8492324959952,None,538.8492932020163,538.849312536011,None,538.8493671659962,538.8493843290198,None,,,,,,,,,,,,,,,1,001,0,,2024-04-09_12h50.05.030,replicate_nsd,2023.2.3,59.96358422543912,2024-04-09 12h50.15.352925 -0400,
images/5_0 copy 3.jpg,0,13,0,0,1,"[9, 19, 31, 42, 56, 68, 69, 70, 71]",0,85,85,85,538.8558957920177,,,,,,,,,,,538.8495785279956,538.849665791,538.8496713740169,538.8558957920177,539.0590990320197,539.0590990320197,539.7962269830168,539.7962269830168,539.7962269830168,539.7890673550137,None,539.7891978599946,539.789221531013,None,539.7892929410154,539.7893150630116,None,539.7893787570065,539.7893986400159,None,,,,,,,,,,,,,,,1,001,0,,2024-04-09_12h50.05.030,replicate_nsd,2023.2.3,59.96358422543912,2024-04-09 12h50.15.352925 -0400,
images/pair05 copy 6.jpg,0,14,0,0,1,"[9, 19, 31, 42, 56, 68, 69, 70, 71]",0,86,86,86,539.7962269830168,,,,,,,,,,,539.7896161529934,539.7897226120112,539.789729406999,539.7962269830168,539.9793048459978,539.9793048459978,540.6167723510007,540.6167723510007,540.6167723510007,540.6086071350146,None,540.60871683,540.6087401340192,None,540.6088086029922,540.6088300120027,None,540.6088917939924,540.6089109689929,None,,,,,,,,,,,,,,,1,001,0,,2024-04-09_12h50.05.030,replicate_nsd,2023.2.3,59.96358422543912,2024-04-09 12h50.15.352925 -0400,
images/pair14 copy.jpg,0,15,0,0,1,"[9, 19, 31, 42, 56, 68, 69, 70, 71]",0,87,87,87,540.6167723510007,,,,,,,,,,,540.6091199600196,540.6092230310023,540.6092294779955,540.6167723510007,540.8002056550176,540.8002056550176,541.4361008380074,541.4361008380074,541.4361008380074,541.4290232080093,None,541.4291572000075,541.4291822689993,None,541.4292497760034,541.4292714960175,None,541.4293318380078,541.429350735998,None,,,,,,,,,,,,,,,1,001,0,,2024-04-09_12h50.05.030,replicate_nsd,2023.2.3,59.96358422543912,2024-04-09 12h50.15.352925 -0400,
images/7_12.jpg,0,16,0,0,1,"[9, 19, 31, 42, 56, 68, 69, 70, 71]",0,88,88,88,541.4361008380074,,,,,,,,,,,541.4295732100145,541.4296791859961,541.4296857260051,541.4361008380074,541.6213970170065,541.6213970170065,542.2630246290064,542.2630246290064,542.2630246290064,542.2552674110048,None,542.2553732609958,542.2553959100042,None,542.255477802013,542.255499388004,None,542.2555623250082,542.2555816970125,None,,,,,,,,,,,,,,,1,001,0,,2024-04-09_12h50.05.030,replicate_nsd,2023.2.3,59.96358422543912,2024-04-09 12h50.15.352925 -0400,
images/pair11 copy 4.jpg,0,17,0,0,1,"[9, 19, 31, 42, 56, 68, 69, 70, 71]",0,89,89,89,542.2630246290064,,,,,,,,,,,542.255790449999,542.2558946039935,542.255900898017,542.2630246290064,542.4431351289968,542.4431351289968,543.1191563339962,543.1191563339962,543.1191563339962,543.1099056669918,None,543.1100191090081,543.1100428749924,None,543.1101174440118,543.1101504740072,None,543.1102167729987,543.1102364390099,None,,,,,,,,,,,,,,,1,001,0,,2024-04-09_12h50.05.030,replicate_nsd,2023.2.3,59.96358422543912,2024-04-09 12h50.15.352925 -0400,
images/13_0 copy 6.jpg,0,18,0,0,1,"[9, 19, 31, 42, 56, 68, 69, 70, 71]",0,90,90,90,543.1191563339962,,,,,,,,,,,543.1104497250053,543.1105561070144,543.1105626320059,543.1191563339962,543.3205839309958,543.3205839309958,543.959122352011,543.959122352011,543.959122352011,543.9532761909941,None,543.9533898160153,543.9534136349976,None,543.9536642940075,543.9536876100174,None,543.9537547350046,543.9537754530029,None,,,,,,,,,,,,,,,1,001,0,,2024-04-09_12h50.05.030,replicate_nsd,2023.2.3,59.96358422543912,2024-04-09 12h50.15.352925 -0400,
images/blank.jpg,0,19,1,0,1,"[9, 19, 31, 42, 56, 68, 69, 70, 71]",0,91,91,91,543.959122352011,,,,,,,,,,,543.95399357102,543.9541015489958,543.9541081800126,,,,,,,543.9556813540112,None,543.9557642860163,544.7111838700075,None,544.7112892839941,544.7113137590059,None,544.7113828409929,544.7114028530195,None,543.959122352011,543.959122352011,544.7175354600186,544.7175354600186,,,,,,,,,,,1,001,0,,2024-04-09_12h50.05.030,replicate_nsd,2023.2.3,59.96358422543912,2024-04-09 12h50.15.352925 -0400,
images/17_12 copy 5.jpg,0,20,0,0,1,"[9, 19, 31, 42, 56, 68, 69, 70, 71]",0,92,92,92,544.7175354600186,,,,,,,,,,,544.7116324930103,544.711735082994,544.7117416649999,544.7175354600186,544.8988709650002,544.8988709650002,545.5395143600181,545.5395143600181,545.5395143600181,545.5324273250008,None,545.5325405920157,545.5325647850113,None,545.5326349259994,545.5326568809978,None,545.5327203180059,545.5327400480164,None,,,,,,,,,,,,,,,1,001,0,,2024-04-09_12h50.05.030,replicate_nsd,2023.2.3,59.96358422543912,2024-04-09 12h50.15.352925 -0400,
images/14_28 copy 6.jpg,0,21,0,0,1,"[9, 19, 31, 42, 56, 68, 69, 70, 71]",0,93,93,93,545.5395143600181,,,,,,,,,,,545.5329536909994,545.5330580110021,545.5330645430076,545.5395143600181,545.7224525140191,545.7224525140191,546.3781946410018,546.3781946410018,546.3781946410018,546.3696039920032,None,546.3697184930206,546.3697426260042,None,546.369815329992,546.3698380220158,None,546.3699028720148,546.3699233420193,None,,,,,,,,,,,,,,,1,001,0,,2024-04-09_12h50.05.030,replicate_nsd,2023.2.3,59.96358422543912,2024-04-09 12h50.15.352925 -0400,
images/pair07.jpg,0,22,0,0,1,"[9, 19, 31, 42, 56, 68, 69, 70, 71]",0,94,94,94,546.3781946410018,,,,,,,,,,,546.370142425003,546.3702512960008,546.370257905015,546.3781946410018,546.5740730040125,546.5740730040125,547.300771809998,547.300771809998,547.300771809998,547.2942746290064,None,547.2944043579919,547.294429653004,None,547.2945021940104,547.294527702994,None,547.2945943069935,547.2946149250201,None,,,,,,,,,,,,,,,1,001,0,,2024-04-09_12h50.05.030,replicate_nsd,2023.2.3,59.96358422543912,2024-04-09 12h50.15.352925 -0400,
images/6_40 copy 3.jpg,0,23,0,0,1,"[9, 19, 31, 42, 56, 68, 69, 70, 71]",0,95,95,95,547.300771809998,,,,,,,,,,,547.2948643570126,547.295005485008,547.2950134770072,547.300771809998,547.4882579719997,547.4882579719997,548.1417047349969,548.1417047349969,548.1417047349969,548.1339172380103,None,548.1340314880072,548.1340549979941,None,548.1341230800026,548.1341440390097,None,548.1342063200136,548.1342259090161,None,,,,,,,,,,,,,,,1,001,0,,2024-04-09_12h50.05.030,replicate_nsd,2023.2.3,59.96358422543912,2024-04-09 12h50.15.352925 -0400,
images/pair01.jpg,0,24,0,0,1,"[9, 19, 31, 42, 56, 68, 69, 70, 71]",0,96,96,96,548.1417047349969,,,,,,,,,,,548.1344417869987,548.1345491270185,548.1345557180175,548.1417047349969,548.3319822640042,548.3319822640042,548.9840134510014,548.9840134510014,548.9840134510014,548.9763310569979,None,548.976449564012,548.9764733290067,None,548.9765447819955,548.9765751190134,None,548.9766406450071,548.9766603560129,None,,,,,,,,,,,,,,,1,001,0,,2024-04-09_12h50.05.030,replicate_nsd,2023.2.3,59.96358422543912,2024-04-09 12h50.15.352925 -0400,
images/24_40 copy 2.jpg,0,25,0,0,1,"[9, 19, 31, 42, 56, 68, 69, 70, 71]",0,97,97,97,548.9840134510014,,,,,,,,,,,548.9769559109991,548.9770660870126,548.9770730150049,548.9840134510014,549.166686615994,549.166686615994,549.8073161350039,549.8073161350039,549.8073161350039,549.8005860889971,None,549.8006988940178,549.8007227540074,None,549.8007936979993,549.8008154249983,None,549.8008791780157,549.8008992630057,None,,,,,,,,,,,,,,,1,001,0,,2024-04-09_12h50.05.030,replicate_nsd,2023.2.3,59.96358422543912,2024-04-09 12h50.15.352925 -0400,
images/10_28 copy 5.jpg,0,26,0,0,1,"[9, 19, 31, 42, 56, 68, 69, 70, 71]",0,98,98,98,549.8073161350039,,,,,,,,,,,549.8011160489987,549.8012132960139,549.801219824003,549.8073161350039,549.9904481999984,549.9904481999984,550.6304634879925,550.6304634879925,550.6304634879925,550.6225158610032,None,550.6226260330004,550.6226499789918,None,550.622720504005,550.6227430849976,None,550.6228077310079,550.6228281400108,None,,,,,,,,,,,,,,,1,001,0,,2024-04-09_12h50.05.030,replicate_nsd,2023.2.3,59.96358422543912,2024-04-09 12h50.15.352925 -0400,
images/pair14 copy 5.jpg,0,27,0,0,1,"[9, 19, 31, 42, 56, 68, 69, 70, 71]",0,99,99,99,550.6304634879925,,,,,,,,,,,550.6230569549953,550.6231657530006,550.6231725219986,550.6304634879925,550.8122941630136,550.8122941630136,551.4599746020103,551.4599746020103,551.4599746020103,551.4530364040111,None,551.4531524750055,551.4531760720129,None,551.4532482009963,551.4532704770099,None,551.453334987018,551.4533554399968,None,,,,,,,,,,,,,,,1,001,0,,2024-04-09_12h50.05.030,replicate_nsd,2023.2.3,59.96358422543912,2024-04-09 12h50.15.352925 -0400,
images/pair12.jpg,0,28,0,0,1,"[9, 19, 31, 42, 56, 68, 69, 70, 71]",0,100,100,100,551.4599746020103,,,,,,,,,,,551.4535810520174,551.4536815700121,551.4536881399981,551.4599746020103,551.643585561018,551.643585561018,552.2932691629976,552.2932691629976,552.2932691629976,552.2859658870148,None,552.2860830709978,552.2861079510185,None,552.2861835329968,552.2862067410024,None,552.2862749170163,552.2862959399936,None,,,,,,,,,,,,,,,1,001,0,,2024-04-09_12h50.05.030,replicate_nsd,2023.2.3,59.96358422543912,2024-04-09 12h50.15.352925 -0400,
images/pair16 copy 2.jpg,0,29,0,0,1,"[9, 19, 31, 42, 56, 68, 69, 70, 71]",0,101,101,101,552.2932691629976,,,,,,,,,,,552.2865263390122,552.2866323440103,552.2866392559954,552.2932691629976,552.4776695960027,552.4776695960027,553.1281794480165,553.1281794480165,553.1281794480165,553.1208787900105,None,553.1209974749945,553.1210228590062,None,553.1210984220088,553.1211222349957,None,553.121190121019,553.1212115960079,None,,,,,,,,,,,,,,,1,001,0,,2024-04-09_12h50.05.030,replicate_nsd,2023.2.3,59.96358422543912,2024-04-09 12h50.15.352925 -0400,
images/5_40 copy.jpg,0,30,0,0,1,"[9, 19, 31, 42, 56, 68, 69, 70, 71]",0,102,102,102,553.1281794480165,,,,,,,,,,,553.1214412639965,553.121545136004,553.1215585019963,553.1281794480165,553.3141588559956,553.3141588559956,553.969407274999,553.969407274999,553.969407274999,553.9630300550198,None,553.9631730639958,553.9632405440207,None,553.963353086001,553.9633828420192,None,553.9634615599934,553.9634860859951,None,,,,,,,,,,,,,,,1,001,0,,2024-04-09_12h50.05.030,replicate_nsd,2023.2.3,59.96358422543912,2024-04-09 12h50.15.352925 -0400,
images/blank.jpg,0,31,1,0,1,"[9, 19, 31, 42, 56, 68, 69, 70, 71]",0,103,103,103,553.969407274999,,,,,,,,,,,553.9637338710018,553.9638496570115,553.9638569939998,,,,,,,553.9658048379933,None,553.9658993890043,554.7185486289964,t,554.7188024450152,554.7188315450039,None,554.7189031510206,554.7189276030113,None,553.969407274999,553.969407274999,554.7262297480193,554.7262297480193,0.6052117779909167,None,,,,,,,,,1,001,0,,2024-04-09_12h50.05.030,replicate_nsd,2023.2.3,59.96358422543912,2024-04-09 12h50.15.352925 -0400,
images/pair03 copy 7.jpg,0,32,0,0,1,"[9, 19, 31, 42, 56, 68, 69, 70, 71]",0,104,104,104,554.7262297480193,,,,,,,,,,,554.7191721739946,554.7192854940076,554.7192932089965,554.7262297480193,554.9171627619944,554.9171627619944,555.630406051001,555.630406051001,555.630406051001,555.6225072230154,None,555.6226444420172,555.6226752939983,None,555.622760711005,555.6227865059918,None,555.622862218006,555.6228859430121,None,,,,,,,,,,,,,,,1,001,0,,2024-04-09_12h50.05.030,replicate_nsd,2023.2.3,59.96358422543912,2024-04-09 12h50.15.352925 -0400,
images/14_28 copy 2.jpg,0,33,0,0,1,"[9, 19, 31, 42, 56, 68, 69, 70, 71]",0,105,105,105,555.630406051001,,,,,,,,,,,555.6231651559938,555.6232963119983,555.6233042110107,555.630406051001,555.8276848469977,555.8276848469977,556.5478213129973,556.5478213129973,556.5478213129973,556.5391899800161,None,556.5393432349956,556.5393724589958,None,556.5394581030123,556.5394844239927,None,556.5395625230158,556.5395865210157,None,,,,,,,,,,,,,,,1,001,0,,2024-04-09_12h50.05.030,replicate_nsd,2023.2.3,59.96358422543912,2024-04-09 12h50.15.352925 -0400,
images/6_40 copy 2.jpg,0,34,0,0,1,"[9, 19, 31, 42, 56, 68, 69, 70, 71]",0,106,106,106,556.5478213129973,,,,,,,,,,,556.5398738530057,556.5400074970094,556.5400156420073,556.5478213129973,556.7434003980015,556.7434003980015,557.4681338460068,557.4681338460068,557.4681338460068,557.4603789520042,None,557.4605114320002,557.460541331995,None,557.4606285960181,557.4606551080069,None,557.4607340260118,557.4607593620021,None,,,,,,,,,,,,,,,1,001,0,,2024-04-09_12h50.05.030,replicate_nsd,2023.2.3,59.96358422543912,2024-04-09 12h50.15.352925 -0400,
images/9_0 copy 6.jpg,0,35,0,0,1,"[9, 19, 31, 42, 56, 68, 69, 70, 71]",0,107,107,107,557.4681338460068,,,,,,,,,,,557.4610240260081,557.461156719015,557.4611649200087,557.4681338460068,557.6583621350001,557.6583621350001,558.3809580240049,558.3809580240049,558.3809580240049,558.37333286801,None,558.3734748529969,558.3735062589985,None,558.3735970919952,558.373625547014,None,558.3737108700152,558.3737369140144,None,,,,,,,,,,,,,,,1,001,0,,2024-04-09_12h50.05.030,replicate_nsd,2023.2.3,59.96358422543912,2024-04-09 12h50.15.352925 -0400,
images/15_28.jpg,0,36,0,0,1,"[9, 19, 31, 42, 56, 68, 69, 70, 71]",0,108,108,108,558.3809580240049,,,,,,,,,,,558.3740184199996,558.3741549660044,558.3741634170001,558.3809580240049,558.5796341380046,558.5796341380046,559.3062817080063,559.3062817080063,559.3062817080063,559.2984059400042,None,559.2985450419947,559.2985758380091,None,559.2986674100102,559.2986958550173,None,559.2987793039938,559.2988055020105,None,,,,,,,,,,,,,,,1,001,0,,2024-04-09_12h50.05.030,replicate_nsd,2023.2.3,59.96358422543912,2024-04-09 12h50.15.352925 -0400,
images/5_40 copy 4.jpg,0,37,0,0,1,"[9, 19, 31, 42, 56, 68, 69, 70, 71]",0,109,109,109,559.3062817080063,,,,,,,,,,,559.2990837850084,559.2992140749993,559.2992225759954,559.3062817080063,559.5039927049947,559.5039927049947,560.2281162920117,560.2281162920117,560.2281162920117,560.2203385980101,None,560.220480456017,560.2205108680064,None,560.2206048470107,560.2206335939991,None,560.2207193470094,560.2207453589945,None,,,,,,,,,,,,,,,1,001,0,,2024-04-09_12h50.05.030,replicate_nsd,2023.2.3,59.96358422543912,2024-04-09 12h50.15.352925 -0400,
images/20_12 copy 6.jpg,0,38,0,0,1,"[9, 19, 31, 42, 56, 68, 69, 70, 71]",0,110,110,110,560.2281162920117,,,,,,,,,,,560.2210300549923,560.2211725670204,560.221181394998,560.2281162920117,560.4243454240204,560.4243454240204,561.1540378460195,561.1540378460195,561.1540378460195,561.1463205860055,None,561.1464622520143,561.1464932170056,None,561.146586849005,561.146615723992,None,561.14670195902,561.1467289279972,None,,,,,,,,,,,,,,,1,001,0,,2024-04-09_12h50.05.030,replicate_nsd,2023.2.3,59.96358422543912,2024-04-09 12h50.15.352925 -0400,
images/15_0 copy 6.jpg,0,39,0,0,1,"[9, 19, 31, 42, 56, 68, 69, 70, 71]",0,111,111,111,561.1540378460195,,,,,,,,,,,561.1470306330011,561.147170679993,561.1471796400147,561.1540378460195,561.3523125670035,561.3523125670035,562.07949985101,562.07949985101,562.07949985101,562.0716956389952,None,562.0718403730134,562.0718717999989,None,562.0719646220095,562.0719933969958,None,562.0720788830076,562.0721051550063,None,,,,,,,,,,,,,,,1,001,0,,2024-04-09_12h50.05.030,replicate_nsd,2023.2.3,59.96358422543912,2024-04-09 12h50.15.352925 -0400,
images/16_28 copy 5.jpg,0,40,0,0,1,"[9, 19, 31, 42, 56, 68, 69, 70, 71]",0,112,112,112,562.07949985101,,,,,,,,,,,562.072392069007,562.0725347690168,562.0725436540088,562.07949985101,562.277664624009,562.277664624009,563.0015192730061,563.0015192730061,563.0015192730061,562.993413321994,None,562.9935638320167,562.9935988539946,None,562.9936957590107,562.9937263760075,None,562.9938144150074,562.9938424150168,None,,,,,,,,,,,,,,,1,001,0,,2024-04-09_12h50.05.030,replicate_nsd,2023.2.3,59.96358422543912,2024-04-09 12h50.15.352925 -0400,
images/8_0 copy.jpg,0,41,0,0,1,"[9, 19, 31, 42, 56, 68, 69, 70, 71]",0,113,113,113,563.0015192730061,,,,,,,,,,,562.9941406740109,562.9942902960174,562.9942998500192,563.0015192730061,563.20139900301,563.20139900301,563.9251728680101,563.9251728680101,563.9251728680101,563.9183688960038,None,563.9185384339944,563.9185719120142,None,563.9186714410025,563.9187026520085,None,563.9187913220085,563.9188194320013,None,,,,,,,,,,,,,,,1,001,0,,2024-04-09_12h50.05.030,replicate_nsd,2023.2.3,59.96358422543912,2024-04-09 12h50.15.352925 -0400,
images/blank.jpg,0,42,1,0,1,"[9, 19, 31, 42, 56, 68, 69, 70, 71]",0,114,114,114,563.9251728680101,,,,,,,,,,,563.9191183090152,563.9192676560197,563.9192771429953,,,,,,,563.9214209280035,None,563.9215354410117,564.7719512250042,l,564.7722636690014,564.7723000039987,None,564.7723920140124,564.7724224959966,None,563.9251728680101,563.9251728680101,564.7800528810185,564.7800528810185,0.29350642301142216,None,,,,,,,,,1,001,0,,2024-04-09_12h50.05.030,replicate_nsd,2023.2.3,59.96358422543912,2024-04-09 12h50.15.352925 -0400,
images/8_40 copy 3.jpg,0,43,0,0,1,"[9, 19, 31, 42, 56, 68, 69, 70, 71]",0,115,115,115,564.7800528810185,,,,,,,,,,,564.772750085016,564.7729031679919,564.7729125329934,564.7800528810185,564.9884961080097,564.9884961080097,565.7333500329987,565.7333500329987,565.7333500329987,565.724909098004,None,565.7250675329997,565.7251034080109,None,565.725206705014,565.7252383890154,None,565.7253329600208,565.7253613760113,None,,,,,,,,,,,,,,,1,001,0,,2024-04-09_12h50.05.030,replicate_nsd,2023.2.3,59.96358422543912,2024-04-09 12h50.15.352925 -0400,
images/15_12 copy 5.jpg,0,44,0,0,1,"[9, 19, 31, 42, 56, 68, 69, 70, 71]",0,116,116,116,565.7333500329987,,,,,,,,,,,565.7256975700147,565.7258408479975,565.7258502980112,565.7333500329987,565.9413999660173,565.9413999660173,566.6724946890026,566.6724946890026,566.6724946890026,566.6644898109953,None,566.6646410530084,566.6646740050055,None,566.6647741410125,566.6648054649995,None,566.6648968830123,566.6649252930074,None,,,,,,,,,,,,,,,1,001,0,,2024-04-09_12h50.05.030,replicate_nsd,2023.2.3,59.96358422543912,2024-04-09 12h50.15.352925 -0400,
images/22_28 copy 6.jpg,0,45,0,0,1,"[9, 19, 31, 42, 56, 68, 69, 70, 71]",0,117,117,117,566.6724946890026,,,,,,,,,,,566.6652280270064,566.6653778080072,566.6653870879964,566.6724946890026,567.1402638810105,567.1402638810105,570.1476172739931,570.1476172739931,570.1476172739931,570.1334153829957,None,570.1336043130141,570.133646369999,None,570.1337743299955,570.133813412016,None,570.1339306220179,570.1339657019998,None,,,,,,,,,,,,,,,1,001,0,,2024-04-09_12h50.05.030,replicate_nsd,2023.2.3,59.96358422543912,2024-04-09 12h50.15.352925 -0400,
,,,,,,,,,,,570.1476172739931,,,,,,,,,,,570.1343716600095,570.1345736249932,570.1345857620181,570.1476172739931,,,,,,,,,,,,,,,,,,,,,,,,,,,,,,,,,,,,,,,,
