current_image,is_repeat,trial_index,is_blank_trial,is_new_run,run_num,all_blanks_list,loop_all_images.thisRepN,loop_all_images.thisTrialN,loop_all_images.thisN,loop_all_images.thisIndex,thisRow.t,notes,set_up.started,set_up.stopped,waiting_fmri.started,key_resp_2.started,text_3.started,waiting_fmri.stopped,key_resp_2.keys,key_resp_2.rt,key_resp_2.duration,set_skips.started,set_skips.stopped,trial.started,trial.stopped,press_if_repeat.keys,blank_trial.started,blank_trial.stopped,key_resp_3.keys,run_wait2.started,run_wait2.stopped,key_resp_5.keys,waiting_fmri_2.started,waiting_fmri_2.stopped,key_resp_4.keys,polygon.started,image.started,press_if_repeat.started,image.stopped,press_if_repeat.stopped,polygon.stopped,key_resp_3.started,polygon_2.started,key_resp_3.stopped,polygon_2.stopped,participant,session,starting_run,,date,expName,psychopyVersion,frameRate,expStart,
,,,,,,,,,,,,,0.03981208399636671,0.0400457059731707,0.04006666297209449,0.050568391976412386,0.050568391976412386,3.193935030983994,5,3.1305711950117256,None,,,,,,,,,,,,,,,,,,,,,,,,,1,001,15,,2024-04-09_13h44.20.403,replicate_nsd,2023.2.3,59.874835366735276,2024-04-09 13h44.40.917710 -0400,
images/7_12 copy 4.jpg,0,0,0,0,0,"[9, 19, 29, 39, 49, 59, 68, 69, 70, 71]",0,0,0,0,5.94055036699865,,,,,,,,,,,3.268549805972725,3.268651410995517,3.268658287997823,3.272503402986331,None,3.2730315159715246,3.273061356972903,None,3.2735599059960805,3.2735927999892738,None,3.2740601019759197,3.2740893209993374,None,,,,,,,,,,,1,001,15,,2024-04-09_13h44.20.403,replicate_nsd,2023.2.3,59.874835366735276,2024-04-09 13h44.40.917710 -0400,
images/19_40 copy 3.jpg,0,1,0,0,0,"[9, 19, 29, 39, 49, 59, 68, 69, 70, 71]",0,1,1,1,5.94055036699865,,,,,,,,,,,3.2746919079800136,3.274798980972264,3.2748059639998246,3.276816173980478,None,3.276913577981759,3.2769381679827347,None,3.2770025669888128,3.277025840972783,None,3.2770866609935183,3.2771081409882754,None,,,,,,,,,,,1,001,15,,2024-04-09_13h44.20.403,replicate_nsd,2023.2.3,59.874835366735276,2024-04-09 13h44.40.917710 -0400,
images/18_28 copy 3.jpg,0,2,0,0,0,"[9, 19, 29, 39, 49, 59, 68, 69, 70, 71]",0,2,2,2,5.94055036699865,,,,,,,,,,,3.277304680988891,3.2774052339955233,3.277411820978159,3.2792260969872586,None,3.2793060399999376,3.2793311789864674,None,3.2793965109740384,3.279419740982121,None,3.279480777971912,3.279502806981327,None,,,,,,,,,,,1,001,15,,2024-04-09_13h44.20.403,replicate_nsd,2023.2.3,59.874835366735276,2024-04-09 13h44.40.917710 -0400,
images/22_40 copy.jpg,0,3,0,0,0,"[9, 19, 29, 39, 49, 59, 68, 69, 70, 71]",0,3,3,3,5.94055036699865,,,,,,,,,,,3.2796969849732704,3.279805308993673,3.279812073975336,3.281597993976902,None,3.2816813529934734,3.2817065119743347,None,3.2817723459738772,3.2817958509840537,None,3.2818572749965824,3.2818783659895416,None,,,,,,,,,,,1,001,15,,2024-04-09_13h44.20.403,replicate_nsd,2023.2.3,59.874835366735276,2024-04-09 13h44.40.917710 -0400,
images/14_40 copy 4.jpg,0,4,0,0,0,"[9, 19, 29, 39, 49, 59, 68, 69, 70, 71]",0,4,4,4,5.94055036699865,,,,,,,,,,,3.2820742879994214,3.2821863219724037,3.2821931449871045,3.284037259989418,None,3.2841177589725703,3.284141825977713,None,3.2842047669983003,3.284227182972245,None,3.284286654990865,3.284307480993448,None,,,,,,,,,,,1,001,15,,2024-04-09_13h44.20.403,replicate_nsd,2023.2.3,59.874835366735276,2024-04-09 13h44.40.917710 -0400,
images/pair04 copy 5.jpg,0,5,0,0,0,"[9, 19, 29, 39, 49, 59, 68, 69, 70, 71]",0,5,5,5,5.94055036699865,,,,,,,,,,,3.284501403977629,3.2846003149752505,3.284606843983056,3.2911697529780213,None,3.291304597980343,3.291364935983438,None,3.2914199749939144,3.2914414099941496,None,3.2915706539934035,3.2915892339951824,None,,,,,,,,,,,1,001,15,,2024-04-09_13h44.20.403,replicate_nsd,2023.2.3,59.874835366735276,2024-04-09 13h44.40.917710 -0400,
images/22_12.jpg,0,6,0,0,0,"[9, 19, 29, 39, 49, 59, 68, 69, 70, 71]",0,6,6,6,5.94055036699865,,,,,,,,,,,3.2918415229942184,3.292079387989361,3.2921098029764835,3.2951792269886937,None,3.295252844982315,3.295275254989974,None,3.295331670989981,3.2953525459743105,None,3.2954057909955736,3.2954251539777033,None,,,,,,,,,,,1,001,15,,2024-04-09_13h44.20.403,replicate_nsd,2023.2.3,59.874835366735276,2024-04-09 13h44.40.917710 -0400,
images/8_28 copy 4.jpg,0,7,0,0,0,"[9, 19, 29, 39, 49, 59, 68, 69, 70, 71]",0,7,7,7,5.94055036699865,,,,,,,,,,,3.2956000049889553,3.2956935889960732,3.2956994509731885,3.297502724977676,None,3.297581745981006,3.2976088159775827,None,3.2977915039809886,3.2978131649724673,None,3.297867340996163,3.2978865759796463,None,,,,,,,,,,,1,001,15,,2024-04-09_13h44.20.403,replicate_nsd,2023.2.3,59.874835366735276,2024-04-09 13h44.40.917710 -0400,
images/18_40 copy.jpg,0,8,0,0,0,"[9, 19, 29, 39, 49, 59, 68, 69, 70, 71]",0,8,8,8,5.94055036699865,,,,,,,,,,,3.2981402199948207,3.2982498449855484,3.29825615597656,3.300074702972779,None,3.3001554049842525,3.300179866986582,None,3.300241405988345,3.3002640959748533,None,3.300322489987593,3.300343474984402,None,,,,,,,,,,,1,001,15,,2024-04-09_13h44.20.403,replicate_nsd,2023.2.3,59.874835366735276,2024-04-09 13h44.40.917710 -0400,
images/blank.jpg,0,9,1,0,0,"[9, 19, 29, 39, 49, 59, 68, 69, 70, 71]",0,9,9,9,5.94055036699865,,,,,,,,,,,3.3005368359736167,3.3006478089955635,3.3006546849792358,3.3022352309781127,None,3.302313232998131,3.3023387729772367,None,3.302403478999622,3.302426555979764,None,3.3024876569979824,3.302509454981191,None,,,,,,,,,,,1,001,15,,2024-04-09_13h44.20.403,replicate_nsd,2023.2.3,59.874835366735276,2024-04-09 13h44.40.917710 -0400,
images/pair03 copy 7.jpg,0,10,0,0,0,"[9, 19, 29, 39, 49, 59, 68, 69, 70, 71]",0,10,10,10,5.94055036699865,,,,,,,,,,,3.3027042569883633,3.3028031479916535,3.3028097459755372,3.3054348409932572,None,3.305558679974638,3.305590918986127,None,3.305666169995675,3.305693092988804,None,3.3057704769889824,3.3057947479828727,None,,,,,,,,,,,1,001,15,,2024-04-09_13h44.20.403,replicate_nsd,2023.2.3,59.874835366735276,2024-04-09 13h44.40.917710 -0400,
images/8_28 copy.jpg,0,11,0,0,0,"[9, 19, 29, 39, 49, 59, 68, 69, 70, 71]",0,11,11,11,5.94055036699865,,,,,,,,,,,3.3060144359769765,3.3061181489902083,3.306124912982341,3.3084860399831086,None,3.308570041990606,3.30859556098585,None,3.3086618279921822,3.308685953990789,None,3.308748030976858,3.308770621981239,None,,,,,,,,,,,1,001,15,,2024-04-09_13h44.20.403,replicate_nsd,2023.2.3,59.874835366735276,2024-04-09 13h44.40.917710 -0400,
images/17_28 copy.jpg,0,12,0,0,0,"[9, 19, 29, 39, 49, 59, 68, 69, 70, 71]",0,12,12,12,5.94055036699865,,,,,,,,,,,3.3089727919723373,3.3090759519836865,3.3090825679828413,3.3151187639741693,None,3.3151946989819407,3.3152175479917787,None,3.3152770119777415,3.3152985159831587,None,3.315354838996427,3.315374816971598,None,,,,,,,,,,,1,001,15,,2024-04-09_13h44.20.403,replicate_nsd,2023.2.3,59.874835366735276,2024-04-09 13h44.40.917710 -0400,
images/pair11 copy 5.jpg,0,13,0,0,0,"[9, 19, 29, 39, 49, 59, 68, 69, 70, 71]",0,13,13,13,5.94055036699865,,,,,,,,,,,3.3155586029752158,3.3156535259913653,3.3156598239729647,3.318159435992129,None,3.318229402997531,3.3182505469885655,None,3.3183070159866475,3.31832725397544,None,3.318379832984647,3.3183984569914173,None,,,,,,,,,,,1,001,15,,2024-04-09_13h44.20.403,replicate_nsd,2023.2.3,59.874835366735276,2024-04-09 13h44.40.917710 -0400,
images/pair13.jpg,0,14,0,0,0,"[9, 19, 29, 39, 49, 59, 68, 69, 70, 71]",0,14,14,14,5.94055036699865,,,,,,,,,,,3.318568354996387,3.3186561149777845,3.31866180698853,3.321690819982905,None,3.3218734319962095,3.3219254269788507,None,3.322072468989063,3.3220994799921755,None,3.3221978359797504,3.3222619729931466,None,,,,,,,,,,,1,001,15,,2024-04-09_13h44.20.403,replicate_nsd,2023.2.3,59.874835366735276,2024-04-09 13h44.40.917710 -0400,
images/8_28 copy 3.jpg,0,15,0,0,0,"[9, 19, 29, 39, 49, 59, 68, 69, 70, 71]",0,15,15,15,5.94055036699865,,,,,,,,,,,3.322960344987223,3.32313711498864,3.323143858986441,3.3259205459908117,None,3.326014361984562,3.326037388993427,None,3.3260967939859256,3.326118275988847,None,3.3261742939939722,3.326194082997972,None,,,,,,,,,,,1,001,15,,2024-04-09_13h44.20.403,replicate_nsd,2023.2.3,59.874835366735276,2024-04-09 13h44.40.917710 -0400,
images/23_40 copy.jpg,0,16,0,0,0,"[9, 19, 29, 39, 49, 59, 68, 69, 70, 71]",0,16,16,16,5.94055036699865,,,,,,,,,,,3.3263792079815175,3.3264759949815925,3.3264819599862676,3.3282471589918714,None,3.3283265919890255,3.328350560972467,None,3.328414912975859,3.3284378569805995,None,3.3284990759857465,3.3285204179992434,None,,,,,,,,,,,1,001,15,,2024-04-09_13h44.20.403,replicate_nsd,2023.2.3,59.874835366735276,2024-04-09 13h44.40.917710 -0400,
images/23_40 copy 6.jpg,0,17,0,0,0,"[9, 19, 29, 39, 49, 59, 68, 69, 70, 71]",0,17,17,17,5.94055036699865,,,,,,,,,,,3.328715477982769,3.328826848999597,3.328833390987711,3.3307288189826068,None,3.3308155779959634,3.330842588999076,None,3.3309098899771925,3.3309390259964857,None,3.3310065469995607,3.3310296299750917,None,,,,,,,,,,,1,001,15,,2024-04-09_13h44.20.403,replicate_nsd,2023.2.3,59.874835366735276,2024-04-09 13h44.40.917710 -0400,
images/20_40 copy 2.jpg,0,18,0,0,0,"[9, 19, 29, 39, 49, 59, 68, 69, 70, 71]",0,18,18,18,5.94055036699865,,,,,,,,,,,3.331234831974143,3.331387026992161,3.3313946159905754,3.3332186189945787,None,3.3333010469796136,3.333325645973673,None,3.333389522973448,3.3334121319931,None,3.3334725109743886,3.3334939039777964,None,,,,,,,,,,,1,001,15,,2024-04-09_13h44.20.403,replicate_nsd,2023.2.3,59.874835366735276,2024-04-09 13h44.40.917710 -0400,
images/blank.jpg,0,19,1,0,0,"[9, 19, 29, 39, 49, 59, 68, 69, 70, 71]",0,19,19,19,5.94055036699865,,,,,,,,,,,3.3336882879957557,3.333797702973243,3.3338042669929564,3.335255704994779,None,3.33532832399942,3.335350966983242,None,3.335410740983207,3.3354320869839285,None,3.3354890139889903,3.335509298980469,None,,,,,,,,,,,1,001,15,,2024-04-09_13h44.20.403,replicate_nsd,2023.2.3,59.874835366735276,2024-04-09 13h44.40.917710 -0400,
images/12_28 copy.jpg,0,20,0,0,0,"[9, 19, 29, 39, 49, 59, 68, 69, 70, 71]",0,20,20,20,5.94055036699865,,,,,,,,,,,3.3356901349907275,3.3357938199769706,3.3357999479922,3.337474971980555,None,3.3376733109762426,3.3376951739774086,None,3.337752045976231,3.3377724969759583,None,3.3378262169717345,3.337846399983391,None,,,,,,,,,,,1,001,15,,2024-04-09_13h44.20.403,replicate_nsd,2023.2.3,59.874835366735276,2024-04-09 13h44.40.917710 -0400,
images/6_0 copy 7.jpg,0,21,0,0,0,"[9, 19, 29, 39, 49, 59, 68, 69, 70, 71]",0,21,21,21,5.94055036699865,,,,,,,,,,,3.338080646994058,3.3381759409967344,3.3381818519847,3.339842282992322,None,3.3399135469808243,3.339935288997367,None,3.3399924839904997,3.340012726985151,None,3.340066515986109,3.3400855669751763,None,,,,,,,,,,,1,001,15,,2024-04-09_13h44.20.403,replicate_nsd,2023.2.3,59.874835366735276,2024-04-09 13h44.40.917710 -0400,
images/15_28 copy 3.jpg,0,22,0,0,0,"[9, 19, 29, 39, 49, 59, 68, 69, 70, 71]",0,22,22,22,5.94055036699865,,,,,,,,,,,3.340257447998738,3.34050239098724,3.340508258988848,3.342634307977278,None,3.342703429982066,3.34272411299753,None,3.3427782529906835,3.34279792997404,None,3.342848698986927,3.342866740975296,None,,,,,,,,,,,1,001,15,,2024-04-09_13h44.20.403,replicate_nsd,2023.2.3,59.874835366735276,2024-04-09 13h44.40.917710 -0400,
images/14_28 copy 5.jpg,0,23,0,0,0,"[9, 19, 29, 39, 49, 59, 68, 69, 70, 71]",0,23,23,23,5.94055036699865,,,,,,,,,,,3.343212377978489,3.3433040689851623,3.343309601972578,3.3541002899874,None,3.35417237598449,3.3541930229985155,None,3.354248085990548,3.3542676999932155,None,3.3543193119985517,3.35433760099113,None,,,,,,,,,,,1,001,15,,2024-04-09_13h44.20.403,replicate_nsd,2023.2.3,59.874835366735276,2024-04-09 13h44.40.917710 -0400,
images/11_0 copy 2.jpg,0,24,0,0,0,"[9, 19, 29, 39, 49, 59, 68, 69, 70, 71]",0,24,24,24,5.94055036699865,,,,,,,,,,,3.3545058029994834,3.3545910739921965,3.3545966479869094,3.35622693397454,None,3.3562957379908767,3.3563167399843223,None,3.3563714049814735,3.3563905479968525,None,3.3564423999923747,3.356460430979496,None,,,,,,,,,,,1,001,15,,2024-04-09_13h44.20.403,replicate_nsd,2023.2.3,59.874835366735276,2024-04-09 13h44.40.917710 -0400,
images/23_40 copy 4.jpg,0,25,0,0,0,"[9, 19, 29, 39, 49, 59, 68, 69, 70, 71]",0,25,25,25,5.94055036699865,,,,,,,,,,,3.3566819239931647,3.3567665279842913,3.356772272993112,3.3582714009971824,None,3.3583405489916913,3.3583616579999216,None,3.358418678981252,3.3584385119902436,None,3.358491746999789,3.3585103469958995,None,,,,,,,,,,,1,001,15,,2024-04-09_13h44.20.403,replicate_nsd,2023.2.3,59.874835366735276,2024-04-09 13h44.40.917710 -0400,
images/14_40 copy 7.jpg,0,26,0,0,0,"[9, 19, 29, 39, 49, 59, 68, 69, 70, 71]",0,26,26,26,5.94055036699865,,,,,,,,,,,3.3586791569832712,3.358763199998066,3.358768907986814,3.3602615859999787,None,3.3603304869902786,3.360351406998234,None,3.3604072539892513,3.3604269969800953,None,3.3604804759961553,3.3604990399908274,None,,,,,,,,,,,1,001,15,,2024-04-09_13h44.20.403,replicate_nsd,2023.2.3,59.874835366735276,2024-04-09 13h44.40.917710 -0400,
images/24_40 copy 7.jpg,0,27,0,0,0,"[9, 19, 29, 39, 49, 59, 68, 69, 70, 71]",0,27,27,27,5.94055036699865,,,,,,,,,,,3.3606679039949086,3.3607513279712293,3.360757094982546,3.3628467399976216,None,3.3629171699867584,3.3629383229999803,None,3.362994721974246,3.3630144439812284,None,3.3630667529942,3.3630851749912836,None,,,,,,,,,,,1,001,15,,2024-04-09_13h44.20.403,replicate_nsd,2023.2.3,59.874835366735276,2024-04-09 13h44.40.917710 -0400,
images/21_0 copy 6.jpg,0,28,0,0,0,"[9, 19, 29, 39, 49, 59, 68, 69, 70, 71]",0,28,28,28,5.94055036699865,,,,,,,,,,,3.3632562159909867,3.363341385993408,3.363347044971306,3.3649787189788185,None,3.365047206985764,3.365068507991964,None,3.365123951982241,3.365145001997007,None,3.365197940991493,3.3652164659870323,None,,,,,,,,,,,1,001,15,,2024-04-09_13h44.20.403,replicate_nsd,2023.2.3,59.874835366735276,2024-04-09 13h44.40.917710 -0400,
images/blank.jpg,0,29,1,0,0,"[9, 19, 29, 39, 49, 59, 68, 69, 70, 71]",0,29,29,29,5.94055036699865,,,,,,,,,,,3.3653829019749537,3.3654666309885215,3.3654721779748797,3.366927061986644,None,3.3669958639948163,3.3670169879915193,None,3.36707313999068,3.3670931099914014,None,3.367145828990033,3.367164490977302,None,,,,,,,,,,,1,001,15,,2024-04-09_13h44.20.403,replicate_nsd,2023.2.3,59.874835366735276,2024-04-09 13h44.40.917710 -0400,
images/9_0 copy 7.jpg,0,30,0,0,0,"[9, 19, 29, 39, 49, 59, 68, 69, 70, 71]",0,30,30,30,5.94055036699865,,,,,,,,,,,3.367333552974742,3.3674253139761277,3.367431027989369,3.3691042459977325,None,3.369239799998468,3.3692611219885293,None,3.36931765297777,3.369337428972358,None,3.369390061998274,3.3694635849969927,None,,,,,,,,,,,1,001,15,,2024-04-09_13h44.20.403,replicate_nsd,2023.2.3,59.874835366735276,2024-04-09 13h44.40.917710 -0400,
images/17_12 copy 3.jpg,0,31,0,0,0,"[9, 19, 29, 39, 49, 59, 68, 69, 70, 71]",0,31,31,31,5.94055036699865,,,,,,,,,,,3.369846415997017,3.3700773959863,3.370107010996435,3.371744180971291,None,3.371812442986993,3.371833835990401,None,3.371889279980678,3.371908844972495,None,3.3719611049746163,3.371979580988409,None,,,,,,,,,,,1,001,15,,2024-04-09_13h44.20.403,replicate_nsd,2023.2.3,59.874835366735276,2024-04-09 13h44.40.917710 -0400,
images/16_28 copy 6.jpg,0,32,0,0,0,"[9, 19, 29, 39, 49, 59, 68, 69, 70, 71]",0,32,32,32,5.94055036699865,,,,,,,,,,,3.3721454789920244,3.372257137991255,3.3722627719980665,3.3738526869856287,None,3.373918954981491,3.3739394529839046,None,3.3739944429835305,3.374013685999671,None,3.374065490992507,3.3740837249788456,None,,,,,,,,,,,1,001,15,,2024-04-09_13h44.20.403,replicate_nsd,2023.2.3,59.874835366735276,2024-04-09 13h44.40.917710 -0400,
images/24_40 copy 7.jpg,0,33,0,0,0,"[9, 19, 29, 39, 49, 59, 68, 69, 70, 71]",0,33,33,33,5.94055036699865,,,,,,,,,,,3.3742497339844704,3.3743319149944,3.3743375149788335,3.3759127489756793,None,3.3759819899860304,3.3760033039725386,None,3.3760589089943096,3.376078991976101,None,3.37613126198994,3.3761496219958644,None,,,,,,,,,,,1,001,15,,2024-04-09_13h44.20.403,replicate_nsd,2023.2.3,59.874835366735276,2024-04-09 13h44.40.917710 -0400,
images/pair10.jpg,0,34,0,0,0,"[9, 19, 29, 39, 49, 59, 68, 69, 70, 71]",0,34,34,34,5.94055036699865,,,,,,,,,,,3.376317738991929,3.376401562971296,3.376407161995303,3.3793096159934066,None,3.379380839993246,3.3794020309869666,None,3.3794588149758056,3.379478612972889,None,3.3795314079907257,3.3795501539716497,None,,,,,,,,,,,1,001,15,,2024-04-09_13h44.20.403,replicate_nsd,2023.2.3,59.874835366735276,2024-04-09 13h44.40.917710 -0400,
images/9_12 copy 2.jpg,0,35,0,0,0,"[9, 19, 29, 39, 49, 59, 68, 69, 70, 71]",0,35,35,35,5.94055036699865,,,,,,,,,,,3.37971912897774,3.3798037989763543,3.3798095469828695,3.3818447689991444,None,3.38191366798128,3.381934798992006,None,3.381990980997216,3.3820107269857544,None,3.382062707998557,3.382081046991516,None,,,,,,,,,,,1,001,15,,2024-04-09_13h44.20.403,replicate_nsd,2023.2.3,59.874835366735276,2024-04-09 13h44.40.917710 -0400,
images/13_40 copy.jpg,0,36,0,0,0,"[9, 19, 29, 39, 49, 59, 68, 69, 70, 71]",0,36,36,36,5.94055036699865,,,,,,,,,,,3.3822494829946663,3.382334418973187,3.3823400949768256,3.3840669089986477,None,3.3841356959892437,3.384156477986835,None,3.3842122069909237,3.3842315759975463,None,3.3842847399937455,3.3843032619915903,None,,,,,,,,,,,1,001,15,,2024-04-09_13h44.20.403,replicate_nsd,2023.2.3,59.874835366735276,2024-04-09 13h44.40.917710 -0400,
images/pair01.jpg,0,37,0,0,0,"[9, 19, 29, 39, 49, 59, 68, 69, 70, 71]",0,37,37,37,5.94055036699865,,,,,,,,,,,3.3844715009909123,3.384555021999404,3.384560785983922,3.387307457975112,None,3.3873776019900106,3.387398125982145,None,3.38745244697202,3.387471841997467,None,3.38752269098768,3.3875410489854403,None,,,,,,,,,,,1,001,15,,2024-04-09_13h44.20.403,replicate_nsd,2023.2.3,59.874835366735276,2024-04-09 13h44.40.917710 -0400,
images/14_40 copy 7.jpg,0,38,0,0,0,"[9, 19, 29, 39, 49, 59, 68, 69, 70, 71]",0,38,38,38,5.94055036699865,,,,,,,,,,,3.387708524998743,3.387792202993296,3.387797713978216,3.389798345975578,None,3.3898647189780604,3.3898851509729866,None,3.3899396089836955,3.3899601379816886,None,3.3900118449819274,3.390029924979899,None,,,,,,,,,,,1,001,15,,2024-04-09_13h44.20.403,replicate_nsd,2023.2.3,59.874835366735276,2024-04-09 13h44.40.917710 -0400,
images/blank.jpg,0,39,1,0,0,"[9, 19, 29, 39, 49, 59, 68, 69, 70, 71]",0,39,39,39,5.94055036699865,,,,,,,,,,,3.390192701976048,3.390274936973583,3.390280505991541,3.391818929987494,None,3.3918880019919015,3.3919093669974245,None,3.391965092974715,3.3919849439989775,None,3.3920372869761195,3.392055955977412,None,,,,,,,,,,,1,001,15,,2024-04-09_13h44.20.403,replicate_nsd,2023.2.3,59.874835366735276,2024-04-09 13h44.40.917710 -0400,
images/pair15 copy 7.jpg,0,40,0,0,0,"[9, 19, 29, 39, 49, 59, 68, 69, 70, 71]",0,40,40,40,5.94055036699865,,,,,,,,,,,3.392223925999133,3.3923074469785206,3.3923130889888853,3.3950960229849443,None,3.3951674139825627,3.3951885659771506,None,3.3952435510000214,3.395263164973585,None,3.3953158269869164,3.3953341339947656,None,,,,,,,,,,,1,001,15,,2024-04-09_13h44.20.403,replicate_nsd,2023.2.3,59.874835366735276,2024-04-09 13h44.40.917710 -0400,
images/15_0 copy.jpg,0,41,0,0,0,"[9, 19, 29, 39, 49, 59, 68, 69, 70, 71]",0,41,41,41,5.94055036699865,,,,,,,,,,,3.395500660990365,3.395585639984347,3.3955912469828036,3.3976076239778195,None,3.397678052977426,3.3976992599782534,None,3.3977553119766526,3.397775917983381,None,3.397828489978565,3.3978474239993375,None,,,,,,,,,,,1,001,15,,2024-04-09_13h44.20.403,replicate_nsd,2023.2.3,59.874835366735276,2024-04-09 13h44.40.917710 -0400,
images/21_40.jpg,0,42,0,0,0,"[9, 19, 29, 39, 49, 59, 68, 69, 70, 71]",0,42,42,42,5.94055036699865,,,,,,,,,,,3.398015797982225,3.3981004179804586,3.398106091975933,3.399873651971575,None,3.399942776974058,3.3999636019871105,None,3.4000195429835003,3.400039255997399,None,3.400092154974118,3.4001106869836804,None,,,,,,,,,,,1,001,15,,2024-04-09_13h44.20.403,replicate_nsd,2023.2.3,59.874835366735276,2024-04-09 13h44.40.917710 -0400,
images/21_28 copy 7.jpg,0,43,0,0,0,"[9, 19, 29, 39, 49, 59, 68, 69, 70, 71]",0,43,43,43,5.94055036699865,,,,,,,,,,,3.400280710979132,3.4003647809731774,3.400370495975949,3.4023169909778517,None,3.402385614986997,3.4024065309786238,None,3.402462022990221,3.402482068981044,None,3.4025341069791466,3.4025524249882437,None,,,,,,,,,,,1,001,15,,2024-04-09_13h44.20.403,replicate_nsd,2023.2.3,59.874835366735276,2024-04-09 13h44.40.917710 -0400,
images/pair18 copy 2.jpg,0,44,0,0,0,"[9, 19, 29, 39, 49, 59, 68, 69, 70, 71]",0,44,44,44,5.94055036699865,,,,,,,,,,,3.402718716999516,3.4028033389768098,3.402808794984594,3.405155388987623,None,3.405224111978896,3.405244852998294,None,3.405299677979201,3.4053199039772153,None,3.4053717739880085,3.4053902349842247,None,,,,,,,,,,,1,001,15,,2024-04-09_13h44.20.403,replicate_nsd,2023.2.3,59.874835366735276,2024-04-09 13h44.40.917710 -0400,
images/20_28 copy 4.jpg,0,45,0,0,0,"[9, 19, 29, 39, 49, 59, 68, 69, 70, 71]",0,45,45,45,5.94055036699865,,,,,,,,,,,3.40555613298784,3.405640480981674,3.4056459939747583,3.407651792978868,None,3.407719731971156,3.407740989990998,None,3.407796260988107,3.407815894985106,None,3.4078674559714273,3.4078856089909095,None,,,,,,,,,,,1,001,15,,2024-04-09_13h44.20.403,replicate_nsd,2023.2.3,59.874835366735276,2024-04-09 13h44.40.917710 -0400,
images/6_40 copy 4.jpg,0,46,0,0,0,"[9, 19, 29, 39, 49, 59, 68, 69, 70, 71]",0,46,46,46,5.94055036699865,,,,,,,,,,,3.408049655990908,3.408142031985335,3.4081477229774464,3.4100427759985905,None,3.410140984982718,3.4102047869819216,None,3.4102795419748873,3.41029931398225,None,3.410350584978005,3.4103687559836544,None,,,,,,,,,,,1,001,15,,2024-04-09_13h44.20.403,replicate_nsd,2023.2.3,59.874835366735276,2024-04-09 13h44.40.917710 -0400,
images/10_28 copy 4.jpg,0,47,0,0,0,"[9, 19, 29, 39, 49, 59, 68, 69, 70, 71]",0,47,47,47,5.94055036699865,,,,,,,,,,,3.410534449998522,3.4106195619970094,3.410625206975965,3.4122256549890153,None,3.41229434197885,3.4123156409768853,None,3.412371764978161,3.4123915859963745,None,3.412444316985784,3.4124630029837135,None,,,,,,,,,,,1,001,15,,2024-04-09_13h44.20.403,replicate_nsd,2023.2.3,59.874835366735276,2024-04-09 13h44.40.917710 -0400,
images/21_12 copy 4.jpg,0,48,0,0,0,"[9, 19, 29, 39, 49, 59, 68, 69, 70, 71]",0,48,48,48,5.94055036699865,,,,,,,,,,,3.412632331979694,3.4127174629829824,3.4127231199818198,3.41422246498405,None,3.4142914939729962,3.414312268985668,None,3.4143685669987462,3.4143882639764342,None,3.414441077999072,3.414459508989239,None,,,,,,,,,,,1,001,15,,2024-04-09_13h44.20.403,replicate_nsd,2023.2.3,59.874835366735276,2024-04-09 13h44.40.917710 -0400,
images/blank.jpg,0,49,1,0,0,"[9, 19, 29, 39, 49, 59, 68, 69, 70, 71]",0,49,49,49,5.94055036699865,,,,,,,,,,,3.4146271999925375,3.4147181149746757,3.414723841997329,3.4160433389770333,None,3.4161122549849097,3.416133175982395,None,3.4161890969844535,3.416208377981093,None,3.4162602329743095,3.4162807839747984,None,,,,,,,,,,,1,001,15,,2024-04-09_13h44.20.403,replicate_nsd,2023.2.3,59.874835366735276,2024-04-09 13h44.40.917710 -0400,
images/7_0 copy 3.jpg,0,50,0,0,0,"[9, 19, 29, 39, 49, 59, 68, 69, 70, 71]",0,50,50,50,5.94055036699865,,,,,,,,,,,3.416447954979958,3.4165311439719517,3.416536990989698,3.41854523299844,None,3.41861407799297,3.418634707981255,None,3.418690167978639,3.4187100029957946,None,3.4187622829922475,3.4187807839771267,None,,,,,,,,,,,1,001,15,,2024-04-09_13h44.20.403,replicate_nsd,2023.2.3,59.874835366735276,2024-04-09 13h44.40.917710 -0400,
images/22_12 copy 7.jpg,0,51,0,0,0,"[9, 19, 29, 39, 49, 59, 68, 69, 70, 71]",0,51,51,51,5.94055036699865,,,,,,,,,,,3.418948973994702,3.419046614988474,3.4190523919824045,3.4207953389850445,None,3.42086531498353,3.4208865049877204,None,3.4209430499759037,3.4209627069940325,None,3.421015607978916,3.421034252998652,None,,,,,,,,,,,1,001,15,,2024-04-09_13h44.20.403,replicate_nsd,2023.2.3,59.874835366735276,2024-04-09 13h44.40.917710 -0400,
images/18_28 copy.jpg,0,52,0,0,0,"[9, 19, 29, 39, 49, 59, 68, 69, 70, 71]",0,52,52,52,5.94055036699865,,,,,,,,,,,3.4212020079721697,3.4212859829713125,3.4212915019888896,3.422930117987562,None,3.422999138972955,3.4230202799953986,None,3.4230762379884254,3.4230960619752295,None,3.423148430971196,3.4231669689761475,None,,,,,,,,,,,1,001,15,,2024-04-09_13h44.20.403,replicate_nsd,2023.2.3,59.874835366735276,2024-04-09 13h44.40.917710 -0400,
images/10_28 copy.jpg,0,53,0,0,0,"[9, 19, 29, 39, 49, 59, 68, 69, 70, 71]",0,53,53,53,5.94055036699865,,,,,,,,,,,3.423334762977902,3.4234272799803875,3.4234334569773637,3.4250489519909024,None,3.425122192973504,3.4251438599894755,None,3.4252010059717577,3.4252217289758846,None,3.4252757269714493,3.4252946589840576,None,,,,,,,,,,,1,001,15,,2024-04-09_13h44.20.403,replicate_nsd,2023.2.3,59.874835366735276,2024-04-09 13h44.40.917710 -0400,
images/pair11 copy 2.jpg,0,54,0,0,0,"[9, 19, 29, 39, 49, 59, 68, 69, 70, 71]",0,54,54,54,5.94055036699865,,,,,,,,,,,3.4254678249999415,3.425558001996251,3.425563830998726,3.428642703976948,None,3.428740948991617,3.428788032993907,None,3.4289229069836438,3.4289430619974155,None,3.4289952679828275,3.4290142949903384,None,,,,,,,,,,,1,001,15,,2024-04-09_13h44.20.403,replicate_nsd,2023.2.3,59.874835366735276,2024-04-09 13h44.40.917710 -0400,
images/15_0.jpg,0,55,0,0,0,"[9, 19, 29, 39, 49, 59, 68, 69, 70, 71]",0,55,55,55,5.94055036699865,,,,,,,,,,,3.4291840979713015,3.429281471995637,3.4292871469806414,3.431380743975751,None,3.431452104996424,3.4314732999773696,None,3.431530739995651,3.431550636974862,None,3.431603996985359,3.431622810981935,None,,,,,,,,,,,1,001,15,,2024-04-09_13h44.20.403,replicate_nsd,2023.2.3,59.874835366735276,2024-04-09 13h44.40.917710 -0400,
images/15_12 copy 3.jpg,0,56,0,0,0,"[9, 19, 29, 39, 49, 59, 68, 69, 70, 71]",0,56,56,56,5.94055036699865,,,,,,,,,,,3.4317938769818284,3.431902308977442,3.4319080889981706,3.4336279899871442,None,3.4336941729998216,3.4337147959740832,None,3.433769150986336,3.4337886279972736,None,3.4338402429712005,3.4338585679943208,None,,,,,,,,,,,1,001,15,,2024-04-09_13h44.20.403,replicate_nsd,2023.2.3,59.874835366735276,2024-04-09 13h44.40.917710 -0400,
images/18_40 copy 4.jpg,0,57,0,0,0,"[9, 19, 29, 39, 49, 59, 68, 69, 70, 71]",0,57,57,57,5.94055036699865,,,,,,,,,,,3.434026934992289,3.4341285869886633,3.43413435498951,3.435826069995528,None,3.43589549799799,3.4359164549969137,None,3.43597228298313,3.4359921499853954,None,3.436044926987961,3.4360635739867575,None,,,,,,,,,,,1,001,15,,2024-04-09_13h44.20.403,replicate_nsd,2023.2.3,59.874835366735276,2024-04-09 13h44.40.917710 -0400,
images/23_28 copy 3.jpg,0,58,0,0,0,"[9, 19, 29, 39, 49, 59, 68, 69, 70, 71]",0,58,58,58,5.94055036699865,,,,,,,,,,,3.436235509987455,3.4363375889952295,3.4363433359831106,3.4379537479835562,None,3.438021283975104,3.4380423199909274,None,3.438097582984483,3.438116959994659,None,3.438169081986416,3.4381884379836265,None,,,,,,,,,,,1,001,15,,2024-04-09_13h44.20.403,replicate_nsd,2023.2.3,59.874835366735276,2024-04-09 13h44.40.917710 -0400,
images/blank.jpg,0,59,1,0,0,"[9, 19, 29, 39, 49, 59, 68, 69, 70, 71]",0,59,59,59,5.94055036699865,,,,,,,,,,,3.4383563159790356,3.4384395809902344,3.4384452029771637,3.4398710479727015,None,3.4399378139933106,3.439958269998897,None,3.4400131449801847,3.4400330649805255,None,3.4400853299885057,3.4401040359807666,None,,,,,,,,,,,1,001,15,,2024-04-09_13h44.20.403,replicate_nsd,2023.2.3,59.874835366735276,2024-04-09 13h44.40.917710 -0400,
images/15_28 copy 4.jpg,0,60,0,0,0,"[9, 19, 29, 39, 49, 59, 68, 69, 70, 71]",0,60,60,60,5.94055036699865,,,,,,,,,,,3.440270087972749,3.4403624789847527,3.4403681679978035,3.442002566996962,None,3.442068505974021,3.4420888739987276,None,3.4421431709779426,3.4421631019795313,None,3.4422145689895842,3.442233077978017,None,,,,,,,,,,,1,001,15,,2024-04-09_13h44.20.403,replicate_nsd,2023.2.3,59.874835366735276,2024-04-09 13h44.40.917710 -0400,
images/6_40 copy.jpg,0,61,0,0,0,"[9, 19, 29, 39, 49, 59, 68, 69, 70, 71]",0,61,61,61,5.94055036699865,,,,,,,,,,,3.4423977819969878,3.4424811779754236,3.4424868709756993,3.444131360971369,None,3.4442017919791397,3.4442225649836473,None,3.4442785269930027,3.444298198999604,None,3.444350799982203,3.4443691409833264,None,,,,,,,,,,,1,001,15,,2024-04-09_13h44.20.403,replicate_nsd,2023.2.3,59.874835366735276,2024-04-09 13h44.40.917710 -0400,
images/13_28.jpg,0,62,0,0,0,"[9, 19, 29, 39, 49, 59, 68, 69, 70, 71]",0,62,62,62,5.94055036699865,,,,,,,,,,,3.4445378799864557,3.444630158977816,3.4446358919958584,3.446203338971827,None,3.4462727089994587,3.4462936769996304,None,3.4463490629859734,3.446368662000168,None,3.446421142987674,3.4464398059935775,None,,,,,,,,,,,1,001,15,,2024-04-09_13h44.20.403,replicate_nsd,2023.2.3,59.874835366735276,2024-04-09 13h44.40.917710 -0400,
images/24_0 copy 7.jpg,0,63,0,0,0,"[9, 19, 29, 39, 49, 59, 68, 69, 70, 71]",0,63,63,63,5.94055036699865,,,,,,,,,,,3.4466093689843547,3.446700996981235,3.4467066009819973,3.448198246973334,None,3.4482665899849962,3.448287592997076,None,3.44834380899556,3.448363677976886,None,3.4484161869913805,3.448434676975012,None,,,,,,,,,,,1,001,15,,2024-04-09_13h44.20.403,replicate_nsd,2023.2.3,59.874835366735276,2024-04-09 13h44.40.917710 -0400,
images/5_12 copy 7.jpg,0,64,0,0,0,"[9, 19, 29, 39, 49, 59, 68, 69, 70, 71]",0,64,64,64,5.94055036699865,,,,,,,,,,,3.448603667988209,3.448695497994777,3.448701215995243,3.4509124609758146,None,3.45098275798955,3.451003886992112,None,3.4510597479820717,3.4510794569796417,None,3.4511318739969283,3.4511504889815114,None,,,,,,,,,,,1,001,15,,2024-04-09_13h44.20.403,replicate_nsd,2023.2.3,59.874835366735276,2024-04-09 13h44.40.917710 -0400,
images/18_0 copy.jpg,0,65,0,0,0,"[9, 19, 29, 39, 49, 59, 68, 69, 70, 71]",0,65,65,65,5.94055036699865,,,,,,,,,,,3.4513176669715904,3.4514095959893893,3.451415237999754,3.453046975977486,None,3.4531162869825494,3.4531371139746625,None,3.4531931449892,3.4532129319850355,None,3.4532654829963576,3.453284138988238,None,,,,,,,,,,,1,001,15,,2024-04-09_13h44.20.403,replicate_nsd,2023.2.3,59.874835366735276,2024-04-09 13h44.40.917710 -0400,
images/pair13 copy 7.jpg,0,66,0,0,0,"[9, 19, 29, 39, 49, 59, 68, 69, 70, 71]",0,66,66,66,5.94055036699865,,,,,,,,,,,3.45345345599344,3.453544931981014,3.4535506579850335,3.4558138699794654,None,3.4558934539963957,3.455915065977024,None,3.45597189097316,3.455991463997634,None,3.456044460996054,3.456062856974313,None,,,,,,,,,,,1,001,15,,2024-04-09_13h44.20.403,replicate_nsd,2023.2.3,59.874835366735276,2024-04-09 13h44.40.917710 -0400,
images/18_40 copy 2.jpg,0,67,0,0,0,"[9, 19, 29, 39, 49, 59, 68, 69, 70, 71]",0,67,67,67,5.94055036699865,,,,,,,,,,,3.4562330969783943,3.456325831997674,3.4563314999977592,3.4584061939967796,None,3.458476249972591,3.4584972789743915,None,3.4585547039750963,3.4585747229866683,None,3.45862782097538,3.4586467199842446,None,,,,,,,,,,,1,001,15,,2024-04-09_13h44.20.403,replicate_nsd,2023.2.3,59.874835366735276,2024-04-09 13h44.40.917710 -0400,
images/blank.jpg,0,68,1,0,0,"[9, 19, 29, 39, 49, 59, 68, 69, 70, 71]",0,68,68,68,5.94055036699865,,,,,,,,,,,3.4588166269822977,3.458901239995612,3.4589069549983833,3.4604091559886,None,3.4604784549737815,3.460499122971669,None,3.4605547939718235,3.460574644996086,None,3.4606271869852208,3.460645917977672,None,,,,,,,,,,,1,001,15,,2024-04-09_13h44.20.403,replicate_nsd,2023.2.3,59.874835366735276,2024-04-09 13h44.40.917710 -0400,
images/blank.jpg,0,69,1,0,0,"[9, 19, 29, 39, 49, 59, 68, 69, 70, 71]",0,69,69,69,5.94055036699865,,,,,,,,,,,3.460814028978348,3.4609060879738536,3.4609117549844086,3.462278153980151,None,3.4623472199891694,3.4623682759993244,None,3.462423596996814,3.462443133990746,None,3.4624957599735353,3.4625141189899296,None,,,,,,,,,,,1,001,15,,2024-04-09_13h44.20.403,replicate_nsd,2023.2.3,59.874835366735276,2024-04-09 13h44.40.917710 -0400,
images/blank.jpg,0,70,1,0,0,"[9, 19, 29, 39, 49, 59, 68, 69, 70, 71]",0,70,70,70,5.94055036699865,,,,,,,,,,,3.462682387995301,3.462766846991144,3.4627724909805693,3.4641219899931457,None,3.4641911839717068,3.4642118899791967,None,3.4642678599921055,3.4642879599996377,None,3.4643409789714497,3.464359583973419,None,,,,,,,,,,,1,001,15,,2024-04-09_13h44.20.403,replicate_nsd,2023.2.3,59.874835366735276,2024-04-09 13h44.40.917710 -0400,
images/blank.jpg,0,71,1,1,0,"[9, 19, 29, 39, 49, 59, 68, 69, 70, 71]",0,71,71,71,5.94055036699865,,,,,,,,,,,3.4645283649733756,3.46461194899166,3.4646176579990424,3.4659330029971898,None,3.4660017609712668,3.466022719978355,None,3.4660781549755484,3.466098251985386,None,3.4661505199910607,3.4661693169909995,None,,,,,,,,,,,1,001,15,,2024-04-09_13h44.20.403,replicate_nsd,2023.2.3,59.874835366735276,2024-04-09 13h44.40.917710 -0400,
images/22_40 copy.jpg,0,0,0,0,1,"[9, 19, 31, 42, 56, 68, 69, 70, 71]",0,72,72,72,5.94055036699865,,,,,,,,,,,3.466339454986155,3.4664315979753155,3.4664374769781716,3.4680275579739828,None,3.468096037977375,3.4681166879890952,None,3.4681728959840257,3.468192590982653,None,3.468244635994779,3.468262785987463,None,,,,,,,,,,,1,001,15,,2024-04-09_13h44.20.403,replicate_nsd,2023.2.3,59.874835366735276,2024-04-09 13h44.40.917710 -0400,
images/8_0 copy 3.jpg,0,1,0,0,1,"[9, 19, 31, 42, 56, 68, 69, 70, 71]",0,73,73,73,5.94055036699865,,,,,,,,,,,3.46843123799772,3.4685157549974974,3.4685214159835596,3.4701499759976286,None,3.470219206996262,3.470240162976552,None,3.4702954279782716,3.4703149079869036,None,3.470367529982468,3.47038601298118,None,,,,,,,,,,,1,001,15,,2024-04-09_13h44.20.403,replicate_nsd,2023.2.3,59.874835366735276,2024-04-09 13h44.40.917710 -0400,
images/14_0 copy 2.jpg,0,2,0,0,1,"[9, 19, 31, 42, 56, 68, 69, 70, 71]",0,74,74,74,5.94055036699865,,,,,,,,,,,3.4705533369851764,3.47064516597311,3.470650882984046,3.4721567259985022,None,3.4722262469877023,3.4722469699918292,None,3.4723027509753592,3.472322338988306,None,3.4723806839901954,3.4723998879780993,None,,,,,,,,,,,1,001,15,,2024-04-09_13h44.20.403,replicate_nsd,2023.2.3,59.874835366735276,2024-04-09 13h44.40.917710 -0400,
images/5_28 copy 3.jpg,0,3,0,0,1,"[9, 19, 31, 42, 56, 68, 69, 70, 71]",0,75,75,75,5.94055036699865,,,,,,,,,,,3.472578769986285,3.4726699739985634,3.4726755709853023,3.4742072859953623,None,3.474276083987206,3.4742972089734394,None,3.4743527739774436,3.474372595985187,None,3.4744249759824015,3.4744436939945444,None,,,,,,,,,,,1,001,15,,2024-04-09_13h44.20.403,replicate_nsd,2023.2.3,59.874835366735276,2024-04-09 13h44.40.917710 -0400,
images/20_28 copy 4.jpg,0,4,0,0,1,"[9, 19, 31, 42, 56, 68, 69, 70, 71]",0,76,76,76,5.94055036699865,,,,,,,,,,,3.474611246987479,3.4746959949843585,3.474701589992037,3.476297364977654,None,3.4763666129729245,3.4763881049875636,None,3.476443561987253,3.476463190978393,None,3.476515798975015,3.4765360029996373,None,,,,,,,,,,,1,001,15,,2024-04-09_13h44.20.403,replicate_nsd,2023.2.3,59.874835366735276,2024-04-09 13h44.40.917710 -0400,
images/8_0 copy.jpg,0,5,0,0,1,"[9, 19, 31, 42, 56, 68, 69, 70, 71]",0,77,77,77,5.94055036699865,,,,,,,,,,,3.4767040639999323,3.4767875309917144,3.476792947971262,3.478288091981085,None,3.478356799983885,3.4783779719728045,None,3.47843333898345,3.4784531089826487,None,3.478505166975083,3.4785238709882833,None,,,,,,,,,,,1,001,15,,2024-04-09_13h44.20.403,replicate_nsd,2023.2.3,59.874835366735276,2024-04-09 13h44.40.917710 -0400,
images/12_40 copy 3.jpg,0,6,0,0,1,"[9, 19, 31, 42, 56, 68, 69, 70, 71]",0,78,78,78,5.94055036699865,,,,,,,,,,,3.47869195198291,3.478783989994554,3.4787897919886746,3.480264530982822,None,3.4803337859921157,3.4803545639733784,None,3.4804099969915114,3.4804296829970554,None,3.4804821489960887,3.480501561978599,None,,,,,,,,,,,1,001,15,,2024-04-09_13h44.20.403,replicate_nsd,2023.2.3,59.874835366735276,2024-04-09 13h44.40.917710 -0400,
images/13_40 copy 7.jpg,0,7,0,0,1,"[9, 19, 31, 42, 56, 68, 69, 70, 71]",0,79,79,79,5.94055036699865,,,,,,,,,,,3.480669776996365,3.480761521990644,3.4807670599839184,3.4822546649957076,None,3.482323247997556,3.482343897980172,None,3.482399535976583,3.482418974977918,None,3.482471325987717,3.4824896039790474,None,,,,,,,,,,,1,001,15,,2024-04-09_13h44.20.403,replicate_nsd,2023.2.3,59.874835366735276,2024-04-09 13h44.40.917710 -0400,
images/15_12 copy 3.jpg,0,8,0,0,1,"[9, 19, 31, 42, 56, 68, 69, 70, 71]",0,80,80,80,5.94055036699865,,,,,,,,,,,3.4826562339731026,3.4827491369796917,3.482754914992256,3.484244672989007,None,3.484313418972306,3.4843344269902445,None,3.4843904309964273,3.4844101519847754,None,3.4844629829749465,3.4844812189985532,None,,,,,,,,,,,1,001,15,,2024-04-09_13h44.20.403,replicate_nsd,2023.2.3,59.874835366735276,2024-04-09 13h44.40.917710 -0400,
images/blank.jpg,0,9,1,0,1,"[9, 19, 31, 42, 56, 68, 69, 70, 71]",0,81,81,81,5.94055036699865,,,,,,,,,,,3.4846491270000115,3.4847324659931473,3.484737996972399,3.486054412991507,None,3.4861232269904576,3.4861444349808153,None,3.4862000879948027,3.486219527985668,None,3.486271338973893,3.486289915977977,None,,,,,,,,,,,1,001,15,,2024-04-09_13h44.20.403,replicate_nsd,2023.2.3,59.874835366735276,2024-04-09 13h44.40.917710 -0400,
images/12_12 copy 2.jpg,0,10,0,0,1,"[9, 19, 31, 42, 56, 68, 69, 70, 71]",0,82,82,82,5.94055036699865,,,,,,,,,,,3.486456366983475,3.4865399089758284,3.486545561987441,3.4881431329995394,None,3.4882119439716917,3.488232966978103,None,3.488288502994692,3.4883085299807135,None,3.488360806979472,3.488379857997643,None,,,,,,,,,,,1,001,15,,2024-04-09_13h44.20.403,replicate_nsd,2023.2.3,59.874835366735276,2024-04-09 13h44.40.917710 -0400,
images/6_40 copy 6.jpg,0,11,0,0,1,"[9, 19, 31, 42, 56, 68, 69, 70, 71]",0,83,83,83,5.94055036699865,,,,,,,,,,,3.488548021996394,3.48863182097557,3.4886373799818102,3.490161071997136,None,3.4902296779910102,3.4902503339981195,None,3.4903058229829185,3.4903257859987207,None,3.4903782559849788,3.490396797977155,None,,,,,,,,,,,1,001,15,,2024-04-09_13h44.20.403,replicate_nsd,2023.2.3,59.874835366735276,2024-04-09 13h44.40.917710 -0400,
images/6_28 copy 6.jpg,0,12,0,0,1,"[9, 19, 31, 42, 56, 68, 69, 70, 71]",0,84,84,84,5.94055036699865,,,,,,,,,,,3.490564038977027,3.4906554149929434,3.4906612529885024,3.492217951978091,None,3.4922862779931165,3.4923069679934997,None,3.492363357974682,3.4923830819898285,None,3.4924355469993316,3.4924541599757504,None,,,,,,,,,,,1,001,15,,2024-04-09_13h44.20.403,replicate_nsd,2023.2.3,59.874835366735276,2024-04-09 13h44.40.917710 -0400,
images/19_12 copy 6.jpg,0,13,0,0,1,"[9, 19, 31, 42, 56, 68, 69, 70, 71]",0,85,85,85,5.94055036699865,,,,,,,,,,,3.492622143996414,3.4927142089873087,3.492719975998625,3.494221255998127,None,3.4942899649904575,3.494310678972397,None,3.494365905993618,3.4943856129830237,None,3.494437699991977,3.4944563989993185,None,,,,,,,,,,,1,001,15,,2024-04-09_13h44.20.403,replicate_nsd,2023.2.3,59.874835366735276,2024-04-09 13h44.40.917710 -0400,
images/pair08 copy.jpg,0,14,0,0,1,"[9, 19, 31, 42, 56, 68, 69, 70, 71]",0,86,86,86,5.94055036699865,,,,,,,,,,,3.4946254899841733,3.494718406989705,3.494724114978453,3.497117091988912,None,3.4971864039835054,3.4972075059777126,None,3.497263261990156,3.4972825039876625,None,3.497334478975972,3.497352839971427,None,,,,,,,,,,,1,001,15,,2024-04-09_13h44.20.403,replicate_nsd,2023.2.3,59.874835366735276,2024-04-09 13h44.40.917710 -0400,
images/24_12 copy 7.jpg,0,15,0,0,1,"[9, 19, 31, 42, 56, 68, 69, 70, 71]",0,87,87,87,5.94055036699865,,,,,,,,,,,3.4975211349956226,3.4976059929758776,3.497611542989034,3.4995782589830924,None,3.49964708898915,3.4996693389839493,None,3.4997255929920357,3.499745555978734,None,3.4997982649947517,3.499817098985659,None,,,,,,,,,,,1,001,15,,2024-04-09_13h44.20.403,replicate_nsd,2023.2.3,59.874835366735276,2024-04-09 13h44.40.917710 -0400,
images/7_12 copy 2.jpg,0,16,0,0,1,"[9, 19, 31, 42, 56, 68, 69, 70, 71]",0,88,88,88,5.94055036699865,,,,,,,,,,,3.499988947995007,3.500073547998909,3.5000793499930296,3.501828169974033,None,3.501897061971249,3.501918410998769,None,3.501973929000087,3.5019938249897677,None,3.502045877976343,3.5020645629847422,None,,,,,,,,,,,1,001,15,,2024-04-09_13h44.20.403,replicate_nsd,2023.2.3,59.874835366735276,2024-04-09 13h44.40.917710 -0400,
images/12_28 copy 5.jpg,0,17,0,0,1,"[9, 19, 31, 42, 56, 68, 69, 70, 71]",0,89,89,89,5.94055036699865,,,,,,,,,,,3.5022318739793263,3.5023242229945026,3.502329919982003,3.503929567988962,None,3.5039978239801712,3.504018991981866,None,3.5041040939977393,3.5041243209852837,None,3.5041769949893933,3.504195687972242,None,,,,,,,,,,,1,001,15,,2024-04-09_13h44.20.403,replicate_nsd,2023.2.3,59.874835366735276,2024-04-09 13h44.40.917710 -0400,
images/6_0.jpg,0,18,0,0,1,"[9, 19, 31, 42, 56, 68, 69, 70, 71]",0,90,90,90,5.94055036699865,,,,,,,,,,,3.504363249987364,3.504447627987247,3.5044531539897434,3.5061567069787998,None,3.506225231976714,3.506246240984183,None,3.5063014529878274,3.5063212389941327,None,3.5063733249844518,3.506392221985152,None,,,,,,,,,,,1,001,15,,2024-04-09_13h44.20.403,replicate_nsd,2023.2.3,59.874835366735276,2024-04-09 13h44.40.917710 -0400,
images/blank.jpg,0,19,1,0,1,"[9, 19, 31, 42, 56, 68, 69, 70, 71]",0,91,91,91,5.94055036699865,,,,,,,,,,,3.506567930977326,3.5066539399849717,3.506659574981313,3.5080386069894303,None,3.5081070929882117,3.5081278439902235,None,3.508183129975805,3.508202621975215,None,3.5082547279889695,3.5082729859859683,None,,,,,,,,,,,1,001,15,,2024-04-09_13h44.20.403,replicate_nsd,2023.2.3,59.874835366735276,2024-04-09 13h44.40.917710 -0400,
images/21_12 copy.jpg,0,20,0,0,1,"[9, 19, 31, 42, 56, 68, 69, 70, 71]",0,92,92,92,5.94055036699865,,,,,,,,,,,3.508438856981229,3.508522287971573,3.5085278959886637,3.5101408109767362,None,3.510208684980171,3.5102295679971576,None,3.5102846859954298,3.5103043579729274,None,3.5103571669897065,3.510375525976997,None,,,,,,,,,,,1,001,15,,2024-04-09_13h44.20.403,replicate_nsd,2023.2.3,59.874835366735276,2024-04-09 13h44.40.917710 -0400,
images/15_40.jpg,0,21,0,0,1,"[9, 19, 31, 42, 56, 68, 69, 70, 71]",0,93,93,93,5.94055036699865,,,,,,,,,,,3.5105447409732733,3.510627947980538,3.510633682977641,3.5122135289711878,None,3.512283630989259,3.5123046539956704,None,3.5123595809855033,3.5123795159743167,None,3.5124320309842005,3.512450624984922,None,,,,,,,,,,,1,001,15,,2024-04-09_13h44.20.403,replicate_nsd,2023.2.3,59.874835366735276,2024-04-09 13h44.40.917710 -0400,
images/20_12 copy 4.jpg,0,22,0,0,1,"[9, 19, 31, 42, 56, 68, 69, 70, 71]",0,94,94,94,5.94055036699865,,,,,,,,,,,3.512619303975953,3.5127061099919956,3.5127114309871104,3.514251560991397,None,3.5143205979838967,3.5143417329818476,None,3.514397114980966,3.514416739984881,None,3.514469925983576,3.514489192981273,None,,,,,,,,,,,1,001,15,,2024-04-09_13h44.20.403,replicate_nsd,2023.2.3,59.874835366735276,2024-04-09 13h44.40.917710 -0400,
images/12_40 copy 2.jpg,0,23,0,0,1,"[9, 19, 31, 42, 56, 68, 69, 70, 71]",0,95,95,95,5.94055036699865,,,,,,,,,,,3.514662730973214,3.514749555994058,3.5147551569971256,3.516266012971755,None,3.5163359469734132,3.5163570349977817,None,3.5164127799798734,3.5164326219819486,None,3.5164858929929323,3.51650520999101,None,,,,,,,,,,,1,001,15,,2024-04-09_13h44.20.403,replicate_nsd,2023.2.3,59.874835366735276,2024-04-09 13h44.40.917710 -0400,
images/16_0 copy.jpg,0,24,0,0,1,"[9, 19, 31, 42, 56, 68, 69, 70, 71]",0,96,96,96,5.94055036699865,,,,,,,,,,,3.516678302985383,3.5167673009855207,3.5167729789973237,3.5189983809832484,None,3.5191290869843215,3.519153291999828,None,3.519228781980928,3.5192484489816707,None,3.5193000239960384,3.519318560982356,None,,,,,,,,,,,1,001,15,,2024-04-09_13h44.20.403,replicate_nsd,2023.2.3,59.874835366735276,2024-04-09 13h44.40.917710 -0400,
images/15_28 copy 6.jpg,0,25,0,0,1,"[9, 19, 31, 42, 56, 68, 69, 70, 71]",0,97,97,97,5.94055036699865,,,,,,,,,,,3.5194906149990857,3.5195784009993076,3.519583884975873,3.5212882069754414,None,3.5213584909797646,3.521379680983955,None,3.5214342959807254,3.5214540279994253,None,3.5215065429802053,3.521524687996134,None,,,,,,,,,,,1,001,15,,2024-04-09_13h44.20.403,replicate_nsd,2023.2.3,59.874835366735276,2024-04-09 13h44.40.917710 -0400,
images/8_28 copy 5.jpg,0,26,0,0,1,"[9, 19, 31, 42, 56, 68, 69, 70, 71]",0,98,98,98,5.94055036699865,,,,,,,,,,,3.5216971749905497,3.521783924981719,3.521789488993818,3.523224851989653,None,3.523291982972296,3.523312862991588,None,3.5233667829888873,3.5233864490000997,None,3.523438536998583,3.523457247996703,None,,,,,,,,,,,1,001,15,,2024-04-09_13h44.20.403,replicate_nsd,2023.2.3,59.874835366735276,2024-04-09 13h44.40.917710 -0400,
images/14_28.jpg,0,27,0,0,1,"[9, 19, 31, 42, 56, 68, 69, 70, 71]",0,99,99,99,5.94055036699865,,,,,,,,,,,3.523625350993825,3.5237113849725574,3.5237170229956973,3.5252057629986666,None,3.5253236399730667,3.5253452379838564,None,3.5253998579864856,3.5254198129987344,None,3.5254715779738035,3.5254903249733616,None,,,,,,,,,,,1,001,15,,2024-04-09_13h44.20.403,replicate_nsd,2023.2.3,59.874835366735276,2024-04-09 13h44.40.917710 -0400,
images/22_0 copy.jpg,0,28,0,0,1,"[9, 19, 31, 42, 56, 68, 69, 70, 71]",0,100,100,100,5.94055036699865,,,,,,,,,,,3.525732951995451,3.5258189829764888,3.5258245689910837,3.5273500029870775,None,3.527417377976235,3.5274379279871937,None,3.5274929109727964,3.5275124659819994,None,3.527563850977458,3.527582065988099,None,,,,,,,,,,,1,001,15,,2024-04-09_13h44.20.403,replicate_nsd,2023.2.3,59.874835366735276,2024-04-09 13h44.40.917710 -0400,
images/9_40 copy 6.jpg,0,29,0,0,1,"[9, 19, 31, 42, 56, 68, 69, 70, 71]",0,101,101,101,5.94055036699865,,,,,,,,,,,3.5277472819725517,3.527830725972308,3.5278363749966957,3.529415232973406,None,3.52948210798786,3.5295023909711745,None,3.5295564039843157,3.5295759759901557,None,3.5296272879932076,3.52964593397337,None,,,,,,,,,,,1,001,15,,2024-04-09_13h44.20.403,replicate_nsd,2023.2.3,59.874835366735276,2024-04-09 13h44.40.917710 -0400,
images/16_12 copy 3.jpg,0,30,0,0,1,"[9, 19, 31, 42, 56, 68, 69, 70, 71]",0,102,102,102,5.94055036699865,,,,,,,,,,,3.5298110059811734,3.529893398983404,3.5298989939910825,3.5315249409759417,None,3.531591299979482,3.5316120569768827,None,3.5316664959827904,3.531685802998254,None,3.531736575998366,3.5317547589947935,None,,,,,,,,,,,1,001,15,,2024-04-09_13h44.20.403,replicate_nsd,2023.2.3,59.874835366735276,2024-04-09 13h44.40.917710 -0400,
images/blank.jpg,0,31,1,0,1,"[9, 19, 31, 42, 56, 68, 69, 70, 71]",0,103,103,103,5.94055036699865,,,,,,,,,,,3.5319192499737255,3.5320237189880572,3.5320488659781404,3.533477099990705,None,3.533544602978509,3.5335651809873525,None,3.533619646972511,3.533638812979916,None,3.533690255979309,3.5337082669720985,None,,,,,,,,,,,1,001,15,,2024-04-09_13h44.20.403,replicate_nsd,2023.2.3,59.874835366735276,2024-04-09 13h44.40.917710 -0400,
images/5_28 copy 3.jpg,0,32,0,0,1,"[9, 19, 31, 42, 56, 68, 69, 70, 71]",0,104,104,104,5.94055036699865,,,,,,,,,,,3.533873667998705,3.533955430990318,3.5339608609792776,3.5356950229906943,None,3.535762399988016,3.535783047991572,None,3.535837798990542,3.5358568629890215,None,3.5359080549969804,3.535926642973209,None,,,,,,,,,,,1,001,15,,2024-04-09_13h44.20.403,replicate_nsd,2023.2.3,59.874835366735276,2024-04-09 13h44.40.917710 -0400,
images/16_12 copy 7.jpg,0,33,0,0,1,"[9, 19, 31, 42, 56, 68, 69, 70, 71]",0,105,105,105,5.94055036699865,,,,,,,,,,,3.5360905359848402,3.5361723779933527,3.536177862988552,3.537874431000091,None,3.537941767979646,3.5379627980000805,None,3.5380168429983314,3.5380360469862353,None,3.538087351975264,3.538105461979285,None,,,,,,,,,,,1,001,15,,2024-04-09_13h44.20.403,replicate_nsd,2023.2.3,59.874835366735276,2024-04-09 13h44.40.917710 -0400,
images/8_40 copy 5.jpg,0,34,0,0,1,"[9, 19, 31, 42, 56, 68, 69, 70, 71]",0,106,106,106,5.94055036699865,,,,,,,,,,,3.5382716309977695,3.5383538369787857,3.5383592779980972,3.5399366979836486,None,3.5400030959863216,3.540023361972999,None,3.5400771639833692,3.5400961809791625,None,3.540147749998141,3.5401659269991796,None,,,,,,,,,,,1,001,15,,2024-04-09_13h44.20.403,replicate_nsd,2023.2.3,59.874835366735276,2024-04-09 13h44.40.917710 -0400,
images/12_12 copy 4.jpg,0,35,0,0,1,"[9, 19, 31, 42, 56, 68, 69, 70, 71]",0,107,107,107,5.94055036699865,,,,,,,,,,,3.540331960975891,3.540589206997538,3.540600298991194,3.5429999719781335,None,3.5430671949870884,3.5430874539888464,None,3.5431415749771986,3.5431610019877553,None,3.5432120809855405,3.543230423994828,None,,,,,,,,,,,1,001,15,,2024-04-09_13h44.20.403,replicate_nsd,2023.2.3,59.874835366735276,2024-04-09 13h44.40.917710 -0400,
images/6_12 copy 7.jpg,0,36,0,0,1,"[9, 19, 31, 42, 56, 68, 69, 70, 71]",0,108,108,108,5.94055036699865,,,,,,,,,,,3.54339650698239,3.543520984996576,3.5435265069827437,3.55115284898784,None,3.551219418994151,3.5512398519786075,None,3.5512937089952175,3.551313180971192,None,3.55136477999622,3.5513834889861755,None,,,,,,,,,,,1,001,15,,2024-04-09_13h44.20.403,replicate_nsd,2023.2.3,59.874835366735276,2024-04-09 13h44.40.917710 -0400,
images/8_12.jpg,0,37,0,0,1,"[9, 19, 31, 42, 56, 68, 69, 70, 71]",0,109,109,109,5.94055036699865,,,,,,,,,,,3.551547164999647,3.551660123979673,3.5516658909909893,3.553220728994347,None,3.5532876379729714,3.5533086479990743,None,3.553363184997579,3.5533821559802163,None,3.5534336079726927,3.553451377985766,None,,,,,,,,,,,1,001,15,,2024-04-09_13h44.20.403,replicate_nsd,2023.2.3,59.874835366735276,2024-04-09 13h44.40.917710 -0400,
images/14_0 copy 6.jpg,0,38,0,0,1,"[9, 19, 31, 42, 56, 68, 69, 70, 71]",0,110,110,110,5.94055036699865,,,,,,,,,,,3.5536148859828245,3.553740064991871,3.553745506971609,3.5552785649779253,None,3.555345195985865,3.5553655839757994,None,3.555419811978936,3.5554393979837187,None,3.5554908939811867,3.5555094209848903,None,,,,,,,,,,,1,001,15,,2024-04-09_13h44.20.403,replicate_nsd,2023.2.3,59.874835366735276,2024-04-09 13h44.40.917710 -0400,
images/17_12 copy 2.jpg,0,39,0,0,1,"[9, 19, 31, 42, 56, 68, 69, 70, 71]",0,111,111,111,5.94055036699865,,,,,,,,,,,3.555673680995824,3.5557629889808595,3.555768502992578,3.5572964909952134,None,3.5573632049781736,3.5573835429968312,None,3.557437173993094,3.5574562329857145,None,3.5575075509841554,3.5575258679746184,None,,,,,,,,,,,1,001,15,,2024-04-09_13h44.20.403,replicate_nsd,2023.2.3,59.874835366735276,2024-04-09 13h44.40.917710 -0400,
images/pair11 copy 7.jpg,0,40,0,0,1,"[9, 19, 31, 42, 56, 68, 69, 70, 71]",0,112,112,112,5.94055036699865,,,,,,,,,,,3.5576887959905434,3.557770201994572,3.5577757399878465,3.560233491996769,None,3.5603017209796235,3.560322236997308,None,3.560376877983799,3.5603963669855148,None,3.5604475129803177,3.560465922986623,None,,,,,,,,,,,1,001,15,,2024-04-09_13h44.20.403,replicate_nsd,2023.2.3,59.874835366735276,2024-04-09 13h44.40.917710 -0400,
images/21_40 copy.jpg,0,41,0,0,1,"[9, 19, 31, 42, 56, 68, 69, 70, 71]",0,113,113,113,5.94055036699865,,,,,,,,,,,3.5606309719732963,3.5607139229832683,3.5607193559990264,3.562852570990799,None,3.5629198499955237,3.562940430972958,None,3.5629948869755026,3.5630145449831616,None,3.5630657089932356,3.5630842539831065,None,,,,,,,,,,,1,001,15,,2024-04-09_13h44.20.403,replicate_nsd,2023.2.3,59.874835366735276,2024-04-09 13h44.40.917710 -0400,
images/blank.jpg,0,42,1,0,1,"[9, 19, 31, 42, 56, 68, 69, 70, 71]",0,114,114,114,5.94055036699865,,,,,,,,,,,3.56324897299055,3.5633315479790326,3.563337016996229,3.5649662429932505,None,3.5650327959738206,3.565053262980655,None,3.565107102971524,3.5651263969775755,None,3.5651781109918375,3.5651960559771396,None,,,,,,,,,,,1,001,15,,2024-04-09_13h44.20.403,replicate_nsd,2023.2.3,59.874835366735276,2024-04-09 13h44.40.917710 -0400,
images/18_0 copy 2.jpg,0,43,0,0,1,"[9, 19, 31, 42, 56, 68, 69, 70, 71]",0,115,115,115,5.94055036699865,,,,,,,,,,,3.5653597799828276,3.565442864986835,3.5654484529804904,3.56711100199027,None,3.5671772779896855,3.5671976049779914,None,3.5672517259954475,3.567270836996613,None,3.5673220309836324,3.5673401809763163,None,,,,,,,,,,,1,001,15,,2024-04-09_13h44.20.403,replicate_nsd,2023.2.3,59.874835366735276,2024-04-09 13h44.40.917710 -0400,
images/8_40 copy 2.jpg,0,44,0,0,1,"[9, 19, 31, 42, 56, 68, 69, 70, 71]",0,116,116,116,5.94055036699865,,,,,,,,,,,3.567503772996133,3.5675850689876825,3.5675905299722217,3.5692010129860137,None,3.5692672269942705,3.569287465972593,None,3.5693420589959715,3.5693610349844676,None,3.5694118719839025,3.5694299639726523,None,,,,,,,,,,,1,001,15,,2024-04-09_13h44.20.403,replicate_nsd,2023.2.3,59.874835366735276,2024-04-09 13h44.40.917710 -0400,
images/7_12 copy 5.jpg,0,45,0,0,1,"[9, 19, 31, 42, 56, 68, 69, 70, 71]",0,117,117,117,5.94055036699865,,,,,,,,,,,3.5695931809896138,3.5697187329933513,3.5697242109745275,3.5713052399805747,None,3.571372098987922,3.5713924519950524,None,3.571446395973908,3.571465813991381,None,3.571517368982313,3.571535357972607,None,,,,,,,,,,,1,001,15,,2024-04-09_13h44.20.403,replicate_nsd,2023.2.3,59.874835366735276,2024-04-09 13h44.40.917710 -0400,
images/10_12 copy 7.jpg,0,46,0,0,1,"[9, 19, 31, 42, 56, 68, 69, 70, 71]",0,118,118,118,5.94055036699865,,,,,,,,,,,3.571701271983329,3.5717832739755977,3.571788844972616,3.57325766098802,None,3.5733237819804344,3.5733443799836095,None,3.5733978699718136,3.573417087987764,None,3.5734681469912175,3.5734863419784233,None,,,,,,,,,,,1,001,15,,2024-04-09_13h44.20.403,replicate_nsd,2023.2.3,59.874835366735276,2024-04-09 13h44.40.917710 -0400,
images/23_12 copy 3.jpg,0,47,0,0,1,"[9, 19, 31, 42, 56, 68, 69, 70, 71]",0,119,119,119,5.94055036699865,,,,,,,,,,,3.5736494989832863,3.573731427983148,3.5737368839909323,3.5753430349868722,None,3.5754096409946214,3.5754296939994674,None,3.575481456995476,3.5754998099873774,None,3.5755495249759406,3.5755670039798133,None,,,,,,,,,,,1,001,15,,2024-04-09_13h44.20.403,replicate_nsd,2023.2.3,59.874835366735276,2024-04-09 13h44.40.917710 -0400,
images/pair18 copy 4.jpg,0,48,0,0,1,"[9, 19, 31, 42, 56, 68, 69, 70, 71]",0,120,120,120,5.94055036699865,,,,,,,,,,,3.575729105999926,3.5758511449967045,3.5758566259755753,3.5783228059881367,None,3.5783904919808265,3.5784110899840016,None,3.578465614991728,3.5784848959883675,None,3.578536496992456,3.5785547769919503,None,,,,,,,,,,,1,001,15,,2024-04-09_13h44.20.403,replicate_nsd,2023.2.3,59.874835366735276,2024-04-09 13h44.40.917710 -0400,
images/10_0 copy 3.jpg,0,49,0,0,1,"[9, 19, 31, 42, 56, 68, 69, 70, 71]",0,121,121,121,5.94055036699865,,,,,,,,,,,3.5787191419804003,3.5788276989769656,3.5788519629859366,3.580981270992197,None,3.5810478309867904,3.581068117986433,None,3.5811227909871377,3.5811417089716997,None,3.581192697980441,3.581210831995122,None,,,,,,,,,,,1,001,15,,2024-04-09_13h44.20.403,replicate_nsd,2023.2.3,59.874835366735276,2024-04-09 13h44.40.917710 -0400,
images/9_0 copy 5.jpg,0,50,0,0,1,"[9, 19, 31, 42, 56, 68, 69, 70, 71]",0,122,122,122,5.94055036699865,,,,,,,,,,,3.5813755139824934,3.58145725299255,3.581462815986015,3.583226401999127,None,3.5832932329794858,3.5833137929730583,None,3.5833677139889915,3.583387121994747,None,3.58343767299084,3.583455753978342,None,,,,,,,,,,,1,001,15,,2024-04-09_13h44.20.403,replicate_nsd,2023.2.3,59.874835366735276,2024-04-09 13h44.40.917710 -0400,
images/pair04 copy 4.jpg,0,51,0,0,1,"[9, 19, 31, 42, 56, 68, 69, 70, 71]",0,123,123,123,5.94055036699865,,,,,,,,,,,3.5836195339797996,3.58372603499447,3.5837502229842357,3.586120377993211,None,3.586188109999057,3.586208311986411,None,3.586263188975863,3.5862826899974607,None,3.586333854997065,3.586352017999161,None,,,,,,,,,,,1,001,15,,2024-04-09_13h44.20.403,replicate_nsd,2023.2.3,59.874835366735276,2024-04-09 13h44.40.917710 -0400,
images/8_0 copy 6.jpg,0,52,0,0,1,"[9, 19, 31, 42, 56, 68, 69, 70, 71]",0,124,124,124,5.94055036699865,,,,,,,,,,,3.5865164359856863,3.5866451539914124,3.586650592973456,3.5887325809744652,None,3.588799974997528,3.5888201979978476,None,3.5888750449812505,3.588894080981845,None,3.588945387979038,3.588963525980944,None,,,,,,,,,,,1,001,15,,2024-04-09_13h44.20.403,replicate_nsd,2023.2.3,59.874835366735276,2024-04-09 13h44.40.917710 -0400,
images/5_0 copy 2.jpg,0,53,0,0,1,"[9, 19, 31, 42, 56, 68, 69, 70, 71]",0,125,125,125,5.94055036699865,,,,,,,,,,,3.589134869980626,3.5892233459744602,3.5892288179893512,3.5909567619964946,None,3.591023907996714,3.5910443809989374,None,3.5910988249816,3.59111821197439,None,3.591169886989519,3.5911877319740597,None,,,,,,,,,,,1,001,15,,2024-04-09_13h44.20.403,replicate_nsd,2023.2.3,59.874835366735276,2024-04-09 13h44.40.917710 -0400,
images/pair01 copy 7.jpg,0,54,0,0,1,"[9, 19, 31, 42, 56, 68, 69, 70, 71]",0,126,126,126,5.94055036699865,,,,,,,,,,,3.5913556889863685,3.59143845399376,3.5914438869804144,3.59381441998994,None,3.593881908978801,3.593902385997353,None,3.593957197997952,3.59397632299806,None,3.594027640996501,3.5940452559734695,None,,,,,,,,,,,1,001,15,,2024-04-09_13h44.20.403,replicate_nsd,2023.2.3,59.874835366735276,2024-04-09 13h44.40.917710 -0400,
images/11_28.jpg,0,55,0,0,1,"[9, 19, 31, 42, 56, 68, 69, 70, 71]",0,127,127,127,5.94055036699865,,,,,,,,,,,3.5942088959855027,3.594290666980669,3.594296224997379,3.596423272974789,None,3.596490416995948,3.5965109919779934,None,3.5965650269936305,3.5965837609837763,None,3.596634583984269,3.5966525319963694,None,,,,,,,,,,,1,001,15,,2024-04-09_13h44.20.403,replicate_nsd,2023.2.3,59.874835366735276,2024-04-09 13h44.40.917710 -0400,
images/blank.jpg,0,56,1,0,1,"[9, 19, 31, 42, 56, 68, 69, 70, 71]",0,128,128,128,5.94055036699865,,,,,,,,,,,3.5968185819801874,3.596924012992531,3.5969296459807083,3.598486614995636,None,3.598553297983017,3.5985733269772027,None,3.5986270549765322,3.598646440979792,None,3.5986980849993415,3.5987166369741317,None,,,,,,,,,,,1,001,15,,2024-04-09_13h44.20.403,replicate_nsd,2023.2.3,59.874835366735276,2024-04-09 13h44.40.917710 -0400,
images/18_28 copy 7.jpg,0,57,0,0,1,"[9, 19, 31, 42, 56, 68, 69, 70, 71]",0,129,129,129,5.94055036699865,,,,,,,,,,,3.598880276986165,3.598969563987339,3.5989751589950174,3.600803860987071,None,3.600869910995243,3.6008902699977625,None,3.6009442509966902,3.600963263976155,None,3.6010139399731997,3.601031881989911,None,,,,,,,,,,,1,001,15,,2024-04-09_13h44.20.403,replicate_nsd,2023.2.3,59.874835366735276,2024-04-09 13h44.40.917710 -0400,
images/16_28 copy 7.jpg,0,58,0,0,1,"[9, 19, 31, 42, 56, 68, 69, 70, 71]",0,130,130,130,5.94055036699865,,,,,,,,,,,3.601193856971804,3.6012760759913363,3.6012815609865356,3.602935532981064,None,3.6030022329941858,3.6030223059933633,None,3.603076160972705,3.6030955479945987,None,3.6031465139822103,3.6031643009919208,None,,,,,,,,,,,1,001,15,,2024-04-09_13h44.20.403,replicate_nsd,2023.2.3,59.874835366735276,2024-04-09 13h44.40.917710 -0400,
images/20_0 copy 4.jpg,0,59,0,0,1,"[9, 19, 31, 42, 56, 68, 69, 70, 71]",0,131,131,131,5.94055036699865,,,,,,,,,,,3.6033271129999775,3.6034088879823685,3.6034143999859225,3.605097535997629,None,3.6051637689815834,3.605184186977567,None,3.605237989977468,3.6052571259788238,None,3.6053084539889824,3.605326550983591,None,,,,,,,,,,,1,001,15,,2024-04-09_13h44.20.403,replicate_nsd,2023.2.3,59.874835366735276,2024-04-09 13h44.40.917710 -0400,
images/7_40 copy.jpg,0,60,0,0,1,"[9, 19, 31, 42, 56, 68, 69, 70, 71]",0,132,132,132,5.94055036699865,,,,,,,,,,,3.605490142974304,3.6055723589961417,3.6055779159942176,3.6072739949740935,None,3.607340692979051,3.6073608429869637,None,3.6074155169771984,3.6074343799846247,None,3.6074859969958197,3.6075037789996713,None,,,,,,,,,,,1,001,15,,2024-04-09_13h44.20.403,replicate_nsd,2023.2.3,59.874835366735276,2024-04-09 13h44.40.917710 -0400,
images/21_40 copy 6.jpg,0,61,0,0,1,"[9, 19, 31, 42, 56, 68, 69, 70, 71]",0,133,133,133,5.94055036699865,,,,,,,,,,,3.6076677909877617,3.6077493699849583,3.60775478897267,3.609287900995696,None,3.6093542329908814,3.609374272986315,None,3.6094281549740117,3.609447034978075,None,3.6094975359737873,3.609515215997817,None,,,,,,,,,,,1,001,15,,2024-04-09_13h44.20.403,replicate_nsd,2023.2.3,59.874835366735276,2024-04-09 13h44.40.917710 -0400,
images/19_0 copy 5.jpg,0,62,0,0,1,"[9, 19, 31, 42, 56, 68, 69, 70, 71]",0,134,134,134,5.94055036699865,,,,,,,,,,,3.6096776319900528,3.609759398997994,3.6097649979928974,3.6113130009907763,None,3.61137958697509,3.6114000839879736,None,3.611454090976622,3.611473199998727,None,3.6115243439853657,3.61154262299533,None,,,,,,,,,,,1,001,15,,2024-04-09_13h44.20.403,replicate_nsd,2023.2.3,59.874835366735276,2024-04-09 13h44.40.917710 -0400,
images/14_40 copy 2.jpg,0,63,0,0,1,"[9, 19, 31, 42, 56, 68, 69, 70, 71]",0,135,135,135,5.94055036699865,,,,,,,,,,,3.6117053009802476,3.6117953029752243,3.6118008379999083,3.613340925978264,None,3.613407370983623,3.6134276789962314,None,3.6134821929736063,3.6135013479797635,None,3.6135527539881878,3.6135710679809563,None,,,,,,,,,,,1,001,15,,2024-04-09_13h44.20.403,replicate_nsd,2023.2.3,59.874835366735276,2024-04-09 13h44.40.917710 -0400,
images/7_40 copy 6.jpg,0,64,0,0,1,"[9, 19, 31, 42, 56, 68, 69, 70, 71]",0,136,136,136,5.94055036699865,,,,,,,,,,,3.6137339389824774,3.6138230819778983,3.6138286649947986,3.6154742049984634,None,3.6155407129845116,3.6155610459973104,None,3.6156145409913734,3.61563386398484,None,3.6156849969993345,3.615703493996989,None,,,,,,,,,,,1,001,15,,2024-04-09_13h44.20.403,replicate_nsd,2023.2.3,59.874835366735276,2024-04-09 13h44.40.917710 -0400,
images/11_0 copy 5.jpg,0,65,0,0,1,"[9, 19, 31, 42, 56, 68, 69, 70, 71]",0,137,137,137,5.94055036699865,,,,,,,,,,,3.6158672149758786,3.6159493159793783,3.6159549099975266,3.617557603982277,None,3.6176243079826236,3.6176443909935188,None,3.617698070971528,3.617717287997948,None,3.6177682259876747,3.617786188988248,None,,,,,,,,,,,1,001,15,,2024-04-09_13h44.20.403,replicate_nsd,2023.2.3,59.874835366735276,2024-04-09 13h44.40.917710 -0400,
images/9_40 copy 3.jpg,0,66,0,0,1,"[9, 19, 31, 42, 56, 68, 69, 70, 71]",0,138,138,138,5.94055036699865,,,,,,,,,,,3.6179492729716003,3.6180313589866273,3.6180369639769197,3.6196986209833995,None,3.61976470798254,3.619785173999844,None,3.6198384609888308,3.6198574869777076,None,3.619909030996496,3.619927278981777,None,,,,,,,,,,,1,001,15,,2024-04-09_13h44.20.403,replicate_nsd,2023.2.3,59.874835366735276,2024-04-09 13h44.40.917710 -0400,
images/pair01 copy 2.jpg,0,67,0,0,1,"[9, 19, 31, 42, 56, 68, 69, 70, 71]",0,139,139,139,5.94055036699865,,,,,,,,,,,3.62008935798076,3.620171042974107,3.6201763759891037,3.6225540389714297,None,3.622621614980744,3.6226419519807678,None,3.6226966659887694,3.6227154239895754,None,3.6227664669859223,3.6227843769884203,None,,,,,,,,,,,1,001,15,,2024-04-09_13h44.20.403,replicate_nsd,2023.2.3,59.874835366735276,2024-04-09 13h44.40.917710 -0400,
images/blank.jpg,0,68,1,0,1,"[9, 19, 31, 42, 56, 68, 69, 70, 71]",0,140,140,140,5.94055036699865,,,,,,,,,,,3.6229472929844633,3.623037106997799,3.623042760998942,3.6249946499883663,None,3.625062225997681,3.625082564976765,None,3.6251370769750793,3.625156097987201,None,3.625207890989259,3.6252262009948026,None,,,,,,,,,,,1,001,15,,2024-04-09_13h44.20.403,replicate_nsd,2023.2.3,59.874835366735276,2024-04-09 13h44.40.917710 -0400,
images/blank.jpg,0,69,1,0,1,"[9, 19, 31, 42, 56, 68, 69, 70, 71]",0,141,141,141,5.94055036699865,,,,,,,,,,,3.6253915109846275,3.625482271978399,3.625487732992042,3.6271764769917354,None,3.6272431580000557,3.6272636739886366,None,3.62731695297407,3.627335907978704,None,3.62738608699874,3.6274039739801083,None,,,,,,,,,,,1,001,15,,2024-04-09_13h44.20.403,replicate_nsd,2023.2.3,59.874835366735276,2024-04-09 13h44.40.917710 -0400,
images/blank.jpg,0,70,1,0,1,"[9, 19, 31, 42, 56, 68, 69, 70, 71]",0,142,142,142,5.94055036699865,,,,,,,,,,,3.627565370989032,3.6276489879819565,3.627654480980709,3.629075947974343,None,3.629141934972722,3.6291625459853094,None,3.629216761997668,3.6292362279782537,None,3.6292880549735855,3.6293058969895355,None,,,,,,,,,,,1,001,15,,2024-04-09_13h44.20.403,replicate_nsd,2023.2.3,59.874835366735276,2024-04-09 13h44.40.917710 -0400,
images/blank.jpg,0,71,1,1,1,"[9, 19, 31, 42, 56, 68, 69, 70, 71]",0,143,143,143,5.94055036699865,,,,,,,,,,,3.6294709389912896,3.6295528529735748,3.629558149987133,3.631051188975107,None,3.631118315999629,3.6311390979972202,None,3.6311935449775774,3.6312127040000632,None,3.6312637329974677,3.631281689973548,None,,,,,,,,,,,1,001,15,,2024-04-09_13h44.20.403,replicate_nsd,2023.2.3,59.874835366735276,2024-04-09 13h44.40.917710 -0400,
images/15_28.jpg,0,0,0,0,2,"[9, 19, 29, 39, 49, 59, 68, 69, 70, 71]",0,144,144,144,5.94055036699865,,,,,,,,,,,3.6314452119986527,3.6315276629757136,3.6315332329832017,3.6332239429757465,None,3.6332906269817613,3.633311261975905,None,3.633365811983822,3.6333850649825763,None,3.633436265983619,3.633454412978608,None,,,,,,,,,,,1,001,15,,2024-04-09_13h44.20.403,replicate_nsd,2023.2.3,59.874835366735276,2024-04-09 13h44.40.917710 -0400,
images/pair09 copy 7.jpg,0,1,0,0,2,"[9, 19, 29, 39, 49, 59, 68, 69, 70, 71]",0,145,145,145,5.94055036699865,,,,,,,,,,,3.6336193089955486,3.633701080980245,3.633706539985724,3.6362770829873625,None,3.636344881990226,3.636365930986358,None,3.6364209149905946,3.6364401409809943,None,3.6364909059775528,3.6365087499725632,None,,,,,,,,,,,1,001,15,,2024-04-09_13h44.20.403,replicate_nsd,2023.2.3,59.874835366735276,2024-04-09 13h44.40.917710 -0400,
images/16_28 copy 6.jpg,0,2,0,0,2,"[9, 19, 29, 39, 49, 59, 68, 69, 70, 71]",0,146,146,146,5.94055036699865,,,,,,,,,,,3.6366722929815296,3.636754174978705,3.6367596929776482,3.6388947509985883,None,3.638961617980385,3.6389817979943473,None,3.6390364699764177,3.6390621429891326,None,3.6391141029889695,3.639132363983663,None,,,,,,,,,,,1,001,15,,2024-04-09_13h44.20.403,replicate_nsd,2023.2.3,59.874835366735276,2024-04-09 13h44.40.917710 -0400,
images/16_12 copy 3.jpg,0,3,0,0,2,"[9, 19, 29, 39, 49, 59, 68, 69, 70, 71]",0,147,147,147,5.94055036699865,,,,,,,,,,,3.6393054089858197,3.639387428993359,3.6393929829937406,3.641211633977946,None,3.6412781169929076,3.64129829898593,None,3.6413523929950316,3.6413715749804396,None,3.6414231459784787,3.6414409639837686,None,,,,,,,,,,,1,001,15,,2024-04-09_13h44.20.403,replicate_nsd,2023.2.3,59.874835366735276,2024-04-09 13h44.40.917710 -0400,
images/13_12.jpg,0,4,0,0,2,"[9, 19, 29, 39, 49, 59, 68, 69, 70, 71]",0,148,148,148,5.94055036699865,,,,,,,,,,,3.6416062299977057,3.6416879239841364,3.6416932589781936,3.643267274979735,None,3.6433337969938293,3.643354190979153,None,3.6434079699974973,3.6434271859761793,None,3.6434785559831653,3.6434965649968944,None,,,,,,,,,,,1,001,15,,2024-04-09_13h44.20.403,replicate_nsd,2023.2.3,59.874835366735276,2024-04-09 13h44.40.917710 -0400,
images/14_28 copy 7.jpg,0,5,0,0,2,"[9, 19, 29, 39, 49, 59, 68, 69, 70, 71]",0,149,149,149,5.94055036699865,,,,,,,,,,,3.643660154979443,3.64374289297848,3.6437485509959515,3.6452888200001325,None,3.6453560869849753,3.645376732980367,None,3.6454312469868455,3.645450798998354,None,3.64550228297594,3.6455204769736156,None,,,,,,,,,,,1,001,15,,2024-04-09_13h44.20.403,replicate_nsd,2023.2.3,59.874835366735276,2024-04-09 13h44.40.917710 -0400,
images/9_12 copy 4.jpg,0,6,0,0,2,"[9, 19, 29, 39, 49, 59, 68, 69, 70, 71]",0,150,150,150,5.94055036699865,,,,,,,,,,,3.6456837299920153,3.645766168978298,3.645771633979166,3.647312206972856,None,3.64737814097316,3.6473982779716607,None,3.647452124976553,3.6474713399948087,None,3.6475217679981142,3.647539733996382,None,,,,,,,,,,,1,001,15,,2024-04-09_13h44.20.403,replicate_nsd,2023.2.3,59.874835366735276,2024-04-09 13h44.40.917710 -0400,
images/6_28 copy 3.jpg,0,7,0,0,2,"[9, 19, 29, 39, 49, 59, 68, 69, 70, 71]",0,151,151,151,5.94055036699865,,,,,,,,,,,3.647703222988639,3.647784883971326,3.6477903299964964,3.6493688549962826,None,3.649435620987788,3.649455891980324,None,3.6495099689927883,3.6495289809827227,None,3.6495799099793658,3.649598123971373,None,,,,,,,,,,,1,001,15,,2024-04-09_13h44.20.403,replicate_nsd,2023.2.3,59.874835366735276,2024-04-09 13h44.40.917710 -0400,
images/21_12 copy 3.jpg,0,8,0,0,2,"[9, 19, 29, 39, 49, 59, 68, 69, 70, 71]",0,152,152,152,5.94055036699865,,,,,,,,,,,3.6497615549887996,3.6498438099806663,3.6498493289982434,3.6513983189943247,None,3.6514648759912234,3.6514854799897876,None,3.651538795995293,3.651558072975604,None,3.6516085009789094,3.6516263259982225,None,,,,,,,,,,,1,001,15,,2024-04-09_13h44.20.403,replicate_nsd,2023.2.3,59.874835366735276,2024-04-09 13h44.40.917710 -0400,
images/blank.jpg,0,9,1,0,2,"[9, 19, 29, 39, 49, 59, 68, 69, 70, 71]",0,153,153,153,5.94055036699865,,,,,,,,,,,3.6517884179775137,3.6518698329746258,3.6518752759729978,3.6532407789782155,None,3.653307173983194,3.653327577980235,None,3.653381674987031,3.6534011159965303,None,3.6534519949927926,3.6534701219934504,None,,,,,,,,,,,1,001,15,,2024-04-09_13h44.20.403,replicate_nsd,2023.2.3,59.874835366735276,2024-04-09 13h44.40.917710 -0400,
images/9_40 copy 7.jpg,0,10,0,0,2,"[9, 19, 29, 39, 49, 59, 68, 69, 70, 71]",0,154,154,154,5.94055036699865,,,,,,,,,,,3.6536331749812234,3.653714949992718,3.6537204469786957,3.6552586509787943,None,3.6553254569880664,3.6553460359864403,None,3.6553997319715563,3.655418873997405,None,3.65546960697975,3.655487774987705,None,,,,,,,,,,,1,001,15,,2024-04-09_13h44.20.403,replicate_nsd,2023.2.3,59.874835366735276,2024-04-09 13h44.40.917710 -0400,
images/pair17.jpg,0,11,0,0,2,"[9, 19, 29, 39, 49, 59, 68, 69, 70, 71]",0,155,155,155,5.94055036699865,,,,,,,,,,,3.6556506019842345,3.6557386349886656,3.655744275980396,3.6581683599797543,None,3.658236223971471,3.6582564039854333,None,3.6583110369974747,3.6583301199716516,None,3.6583813059842214,3.658399648993509,None,,,,,,,,,,,1,001,15,,2024-04-09_13h44.20.403,replicate_nsd,2023.2.3,59.874835366735276,2024-04-09 13h44.40.917710 -0400,
images/12_0.jpg,0,12,0,0,2,"[9, 19, 29, 39, 49, 59, 68, 69, 70, 71]",0,156,156,156,5.94055036699865,,,,,,,,,,,3.65856384797371,3.6586466069857124,3.658652133977739,3.660742364998441,None,3.660809535998851,3.660830379987601,None,3.660885278979549,3.66090476399404,None,3.6609559659846127,3.660973973979708,None,,,,,,,,,,,1,001,15,,2024-04-09_13h44.20.403,replicate_nsd,2023.2.3,59.874835366735276,2024-04-09 13h44.40.917710 -0400,
images/16_0 copy 7.jpg,0,13,0,0,2,"[9, 19, 29, 39, 49, 59, 68, 69, 70, 71]",0,157,157,157,5.94055036699865,,,,,,,,,,,3.6611379659734666,3.6612203709955793,3.6612260329711717,3.6630045199999586,None,3.663070868991781,3.6630918029986788,None,3.663145706988871,3.663164589990629,None,3.66321539398632,3.6632332619919907,None,,,,,,,,,,,1,001,15,,2024-04-09_13h44.20.403,replicate_nsd,2023.2.3,59.874835366735276,2024-04-09 13h44.40.917710 -0400,
images/14_28 copy 2.jpg,0,14,0,0,2,"[9, 19, 29, 39, 49, 59, 68, 69, 70, 71]",0,158,158,158,5.94055036699865,,,,,,,,,,,3.663397908996558,3.6634807999944314,3.6634864049847238,3.665149827982532,None,3.665216009976575,3.665236439992441,None,3.6652903629874345,3.6653096489899326,None,3.6653603249869775,3.6653786939859856,None,,,,,,,,,,,1,001,15,,2024-04-09_13h44.20.403,replicate_nsd,2023.2.3,59.874835366735276,2024-04-09 13h44.40.917710 -0400,
images/9_12.jpg,0,15,0,0,2,"[9, 19, 29, 39, 49, 59, 68, 69, 70, 71]",0,159,159,159,5.94055036699865,,,,,,,,,,,3.66554170899326,3.665623140987009,3.6656287009827793,3.667236002977006,None,3.6673023249895778,3.6673224449914414,None,3.6673763649887405,3.66739537299145,None,3.6674460649956018,3.667463746998692,None,,,,,,,,,,,1,001,15,,2024-04-09_13h44.20.403,replicate_nsd,2023.2.3,59.874835366735276,2024-04-09 13h44.40.917710 -0400,
images/9_28 copy 5.jpg,0,16,0,0,2,"[9, 19, 29, 39, 49, 59, 68, 69, 70, 71]",0,160,160,160,5.94055036699865,,,,,,,,,,,3.667627103975974,3.6677090999728534,3.667714558978332,3.6692507739935536,None,3.6693175999971572,3.669338292995235,None,3.66939250897849,3.669411788985599,None,3.669462723977631,3.66948081299779,None,,,,,,,,,,,1,001,15,,2024-04-09_13h44.20.403,replicate_nsd,2023.2.3,59.874835366735276,2024-04-09 13h44.40.917710 -0400,
images/16_28 copy 3.jpg,0,17,0,0,2,"[9, 19, 29, 39, 49, 59, 68, 69, 70, 71]",0,161,161,161,5.94055036699865,,,,,,,,,,,3.6696462639956735,3.6697283779794816,3.669733890972566,3.6712707249971572,None,3.671337029983988,3.6713574459718075,None,3.6714114299975336,3.6714305659988895,None,3.671481830999255,3.671499980991939,None,,,,,,,,,,,1,001,15,,2024-04-09_13h44.20.403,replicate_nsd,2023.2.3,59.874835366735276,2024-04-09 13h44.40.917710 -0400,
images/7_0 copy 4.jpg,0,18,0,0,2,"[9, 19, 29, 39, 49, 59, 68, 69, 70, 71]",0,162,162,162,5.94055036699865,,,,,,,,,,,3.671662999986438,3.6717446409747936,3.671750102977967,3.673246884980472,None,3.673313438979676,3.673333595972508,None,3.6733873189950828,3.673406541987788,None,3.6734572059940547,3.6734749249881133,None,,,,,,,,,,,1,001,15,,2024-04-09_13h44.20.403,replicate_nsd,2023.2.3,59.874835366735276,2024-04-09 13h44.40.917710 -0400,
images/blank.jpg,0,19,1,0,2,"[9, 19, 29, 39, 49, 59, 68, 69, 70, 71]",0,163,163,163,5.94055036699865,,,,,,,,,,,3.6736383349925745,3.6737206259858795,3.6737261049856897,3.6750972979934886,None,3.675163754989626,3.6751841979858,None,3.6752381549740676,3.6752572009863798,None,3.6753082659852225,3.6753263409773353,None,,,,,,,,,,,1,001,15,,2024-04-09_13h44.20.403,replicate_nsd,2023.2.3,59.874835366735276,2024-04-09 13h44.40.917710 -0400,
images/pair18 copy 4.jpg,0,20,0,0,2,"[9, 19, 29, 39, 49, 59, 68, 69, 70, 71]",0,164,164,164,5.94055036699865,,,,,,,,,,,3.675490492983954,3.67557285897783,3.6755782999971416,3.6780543719942216,None,3.678121940989513,3.678142504999414,None,3.6781970219744835,3.6782161479932256,None,3.67826753098052,3.678287377988454,None,,,,,,,,,,,1,001,15,,2024-04-09_13h44.20.403,replicate_nsd,2023.2.3,59.874835366735276,2024-04-09 13h44.40.917710 -0400,
images/23_28 copy 6.jpg,0,21,0,0,2,"[9, 19, 29, 39, 49, 59, 68, 69, 70, 71]",0,165,165,165,5.94055036699865,,,,,,,,,,,3.6784526639967225,3.6785341529757716,3.6785396589839365,3.680629496986512,None,3.6806964699935634,3.680716988979839,None,3.680771670973627,3.680791260994738,None,3.6808424829796422,3.6808605969999917,None,,,,,,,,,,,1,001,15,,2024-04-09_13h44.20.403,replicate_nsd,2023.2.3,59.874835366735276,2024-04-09 13h44.40.917710 -0400,
images/12_12 copy.jpg,0,22,0,0,2,"[9, 19, 29, 39, 49, 59, 68, 69, 70, 71]",0,166,166,166,5.94055036699865,,,,,,,,,,,3.6810243929794524,3.681106562988134,3.681111925980076,3.6828865639981814,None,3.682953222974902,3.6829736569779925,None,3.683027440973092,3.683046366990311,None,3.683097008994082,3.683114907995332,None,,,,,,,,,,,1,001,15,,2024-04-09_13h44.20.403,replicate_nsd,2023.2.3,59.874835366735276,2024-04-09 13h44.40.917710 -0400,
images/16_40 copy 2.jpg,0,23,0,0,2,"[9, 19, 29, 39, 49, 59, 68, 69, 70, 71]",0,167,167,167,5.94055036699865,,,,,,,,,,,3.68327663699165,3.683366480981931,3.683372072991915,3.6850128389778547,None,3.6850798659725115,3.685100448987214,None,3.685154333972605,3.685173463978572,None,3.6852247509814333,3.6852429759746883,None,,,,,,,,,,,1,001,15,,2024-04-09_13h44.20.403,replicate_nsd,2023.2.3,59.874835366735276,2024-04-09 13h44.40.917710 -0400,
images/15_28 copy.jpg,0,24,0,0,2,"[9, 19, 29, 39, 49, 59, 68, 69, 70, 71]",0,168,168,168,5.94055036699865,,,,,,,,,,,3.685406486998545,3.6855000909999944,3.685505594999995,3.6872137319878675,None,3.6872800959972665,3.687300586985657,None,3.6873544979898725,3.6873738909780513,None,3.687424766976619,3.687443244998576,None,,,,,,,,,,,1,001,15,,2024-04-09_13h44.20.403,replicate_nsd,2023.2.3,59.874835366735276,2024-04-09 13h44.40.917710 -0400,
images/pair06 copy 3.jpg,0,25,0,0,2,"[9, 19, 29, 39, 49, 59, 68, 69, 70, 71]",0,169,169,169,5.94055036699865,,,,,,,,,,,3.6876080539950635,3.6876907909754664,3.687696375971427,3.6900076019810513,None,3.6900748709740583,3.6900957889738493,None,3.690150022972375,3.690169518988114,None,3.690221101976931,3.690239498973824,None,,,,,,,,,,,1,001,15,,2024-04-09_13h44.20.403,replicate_nsd,2023.2.3,59.874835366735276,2024-04-09 13h44.40.917710 -0400,
images/21_40 copy 7.jpg,0,26,0,0,2,"[9, 19, 29, 39, 49, 59, 68, 69, 70, 71]",0,170,170,170,5.94055036699865,,,,,,,,,,,3.690404803986894,3.690486923995195,3.6904922549729235,3.692613070976222,None,3.692680123989703,3.692700300976867,None,3.6927561329794116,3.692775409988826,None,3.6928267359908205,3.6928451329877134,None,,,,,,,,,,,1,001,15,,2024-04-09_13h44.20.403,replicate_nsd,2023.2.3,59.874835366735276,2024-04-09 13h44.40.917710 -0400,
images/pair05.jpg,0,27,0,0,2,"[9, 19, 29, 39, 49, 59, 68, 69, 70, 71]",0,171,171,171,5.94055036699865,,,,,,,,,,,3.69300905498676,3.6930911999952514,3.6930966539948713,3.6953982039995026,None,3.695464689983055,3.6954848649911582,None,3.695538563973969,3.695557460974669,None,3.695607456989819,3.6956254489778075,None,,,,,,,,,,,1,001,15,,2024-04-09_13h44.20.403,replicate_nsd,2023.2.3,59.874835366735276,2024-04-09 13h44.40.917710 -0400,
images/16_0 copy 7.jpg,0,28,0,0,2,"[9, 19, 29, 39, 49, 59, 68, 69, 70, 71]",0,172,172,172,5.94055036699865,,,,,,,,,,,3.6957878419780172,3.695878153986996,3.695883870997932,3.698106524971081,None,3.6981746459787246,3.698195032979129,None,3.698248896980658,3.6982681739900727,None,3.6983186469879,3.6983370459929574,None,,,,,,,,,,,1,001,15,,2024-04-09_13h44.20.403,replicate_nsd,2023.2.3,59.874835366735276,2024-04-09 13h44.40.917710 -0400,
images/blank.jpg,0,29,1,0,2,"[9, 19, 29, 39, 49, 59, 68, 69, 70, 71]",0,173,173,173,5.94055036699865,,,,,,,,,,,3.6985032279917505,3.6985959709854797,3.6986016609880608,3.7002082859980874,None,3.7002745759964455,3.7002949369780254,None,3.700348127982579,3.700367785990238,None,3.7004183849785477,3.7004365449829493,None,,,,,,,,,,,1,001,15,,2024-04-09_13h44.20.403,replicate_nsd,2023.2.3,59.874835366735276,2024-04-09 13h44.40.917710 -0400,
images/10_28 copy.jpg,0,30,0,0,2,"[9, 19, 29, 39, 49, 59, 68, 69, 70, 71]",0,174,174,174,5.94055036699865,,,,,,,,,,,3.700599259987939,3.7006817139917985,3.7006872259953525,3.7022218669881113,None,3.7022878709831275,3.702308257983532,None,3.702361868985463,3.702380924980389,None,3.7024315429734997,3.7024495999794453,None,,,,,,,,,,,1,001,15,,2024-04-09_13h44.20.403,replicate_nsd,2023.2.3,59.874835366735276,2024-04-09 13h44.40.917710 -0400,
images/pair15 copy 6.jpg,0,31,0,0,2,"[9, 19, 29, 39, 49, 59, 68, 69, 70, 71]",0,175,175,175,5.94055036699865,,,,,,,,,,,3.702611647982849,3.7027023369737435,3.7027078609971795,3.705197638977552,None,3.7052643399802037,3.7052846449951176,None,3.7053383449965622,3.7053575159807224,None,3.7054079829831608,3.7054256379778963,None,,,,,,,,,,,1,001,15,,2024-04-09_13h44.20.403,replicate_nsd,2023.2.3,59.874835366735276,2024-04-09 13h44.40.917710 -0400,
images/7_0 copy 6.jpg,0,32,0,0,2,"[9, 19, 29, 39, 49, 59, 68, 69, 70, 71]",0,176,176,176,5.94055036699865,,,,,,,,,,,3.705588009994244,3.705670426978031,3.7056759249826428,3.707683199987514,None,3.7077493949909694,3.7077698309731204,None,3.7078237859823275,3.7078433709975798,None,3.7078938629711047,3.707911819976289,None,,,,,,,,,,,1,001,15,,2024-04-09_13h44.20.403,replicate_nsd,2023.2.3,59.874835366735276,2024-04-09 13h44.40.917710 -0400,
images/6_28 copy 7.jpg,0,33,0,0,2,"[9, 19, 29, 39, 49, 59, 68, 69, 70, 71]",0,177,177,177,5.94055036699865,,,,,,,,,,,3.7080742319813,3.708164340991061,3.7081697619869374,3.7099816469999496,None,3.7100472199963406,3.7100677599955816,None,3.710121536976658,3.710140531999059,None,3.7101902499853168,3.7102084569924045,None,,,,,,,,,,,1,001,15,,2024-04-09_13h44.20.403,replicate_nsd,2023.2.3,59.874835366735276,2024-04-09 13h44.40.917710 -0400,
images/22_40 copy 3.jpg,0,34,0,0,2,"[9, 19, 29, 39, 49, 59, 68, 69, 70, 71]",0,178,178,178,5.94055036699865,,,,,,,,,,,3.7103699349972885,3.710459034977248,3.710464598989347,3.712075522984378,None,3.71214103398961,3.712161550996825,None,3.71221451999736,3.712233435973758,None,3.7122833329776768,3.712301153980661,None,,,,,,,,,,,1,001,15,,2024-04-09_13h44.20.403,replicate_nsd,2023.2.3,59.874835366735276,2024-04-09 13h44.40.917710 -0400,
images/17_0 copy 3.jpg,0,35,0,0,2,"[9, 19, 29, 39, 49, 59, 68, 69, 70, 71]",0,179,179,179,5.94055036699865,,,,,,,,,,,3.7124620619870257,3.712545169983059,3.712550726981135,3.7141766179993283,None,3.7142420029849745,3.7142621089878958,None,3.7143147309834603,3.7143340849725064,None,3.714384180988418,3.7144021109852474,None,,,,,,,,,,,1,001,15,,2024-04-09_13h44.20.403,replicate_nsd,2023.2.3,59.874835366735276,2024-04-09 13h44.40.917710 -0400,
images/blank.jpg,0,36,0,0,2,"[9, 19, 29, 39, 49, 59, 68, 69, 70, 71]",0,180,180,180,5.94055036699865,,,,,,,,,,,3.7145622659882065,3.714644415973453,3.7146498629881535,3.7160594259912614,None,3.7161250669742003,3.7161453859880567,None,3.7161982619727496,3.7162174439872615,None,3.7162678339809645,3.716285974980565,None,,,,,,,,,,,1,001,15,,2024-04-09_13h44.20.403,replicate_nsd,2023.2.3,59.874835366735276,2024-04-09 13h44.40.917710 -0400,
images/23_12 copy 3.jpg,0,37,0,0,2,"[9, 19, 29, 39, 49, 59, 68, 69, 70, 71]",0,181,181,181,5.94055036699865,,,,,,,,,,,3.7164475259778555,3.716529792000074,3.7165353119780775,3.7181756149802823,None,3.718240923975827,3.7182611609750893,None,3.7183141319837887,3.7183330559928436,None,3.7183833599847276,3.718401101999916,None,,,,,,,,,,,1,001,15,,2024-04-09_13h44.20.403,replicate_nsd,2023.2.3,59.874835366735276,2024-04-09 13h44.40.917710 -0400,
images/8_28 copy 3.jpg,0,38,0,0,2,"[9, 19, 29, 39, 49, 59, 68, 69, 70, 71]",0,182,182,182,5.94055036699865,,,,,,,,,,,3.718561998975929,3.7186434639734216,3.718648961978033,3.7202081499854103,None,3.720273078972241,3.7202934549713973,None,3.7203470659733284,3.720366652996745,None,3.7204170889745,3.720435216993792,None,,,,,,,,,,,1,001,15,,2024-04-09_13h44.20.403,replicate_nsd,2023.2.3,59.874835366735276,2024-04-09 13h44.40.917710 -0400,
images/blank.jpg,0,39,1,0,2,"[9, 19, 29, 39, 49, 59, 68, 69, 70, 71]",0,183,183,183,5.94055036699865,,,,,,,,,,,3.7205969619972166,3.7206785099988338,3.720683994994033,3.7220883009722456,None,3.7221542699844576,3.722174640977755,None,3.7222274729865603,3.7222464969963767,None,3.722296743973857,3.7223145619791467,None,,,,,,,,,,,1,001,15,,2024-04-09_13h44.20.403,replicate_nsd,2023.2.3,59.874835366735276,2024-04-09 13h44.40.917710 -0400,
images/20_28 copy.jpg,0,40,0,0,2,"[9, 19, 29, 39, 49, 59, 68, 69, 70, 71]",0,184,184,184,5.94055036699865,,,,,,,,,,,3.7224823689903133,3.722570782992989,3.7225763489841484,3.7241964409768116,None,3.7242621859768406,3.7242827439913526,None,3.7243401389860082,3.724359737971099,None,3.724411851988407,3.72443008897244,None,,,,,,,,,,,1,001,15,,2024-04-09_13h44.20.403,replicate_nsd,2023.2.3,59.874835366735276,2024-04-09 13h44.40.917710 -0400,
images/20_12 copy.jpg,0,41,0,0,2,"[9, 19, 29, 39, 49, 59, 68, 69, 70, 71]",0,185,185,185,5.94055036699865,,,,,,,,,,,3.7246006799978204,3.7246824119938537,3.7246880469901953,3.7266881939722225,None,3.726755706971744,3.726775765971979,None,3.726830779982265,3.7268498209887184,None,3.726902184978826,3.7269203089817893,None,,,,,,,,,,,1,001,15,,2024-04-09_13h44.20.403,replicate_nsd,2023.2.3,59.874835366735276,2024-04-09 13h44.40.917710 -0400,
images/12_12 copy 7.jpg,0,42,0,0,2,"[9, 19, 29, 39, 49, 59, 68, 69, 70, 71]",0,186,186,186,5.94055036699865,,,,,,,,,,,3.727088544983417,3.727172712999163,3.72717829697649,3.7288449959887657,None,3.7289111179998145,3.7289334629895166,None,3.728987351991236,3.729006675974233,None,3.729057253978681,3.7290756609872915,None,,,,,,,,,,,1,001,15,,2024-04-09_13h44.20.403,replicate_nsd,2023.2.3,59.874835366735276,2024-04-09 13h44.40.917710 -0400,
images/8_12 copy 2.jpg,0,43,0,0,2,"[9, 19, 29, 39, 49, 59, 68, 69, 70, 71]",0,187,187,187,5.94055036699865,,,,,,,,,,,3.7292381779989228,3.729320602986263,3.729326045984635,3.73097272097948,None,3.7310389039921574,3.731059033976635,None,3.731112495996058,3.7311314239923377,None,3.7311818349990062,3.73119982299977,None,,,,,,,,,,,1,001,15,,2024-04-09_13h44.20.403,replicate_nsd,2023.2.3,59.874835366735276,2024-04-09 13h44.40.917710 -0400,
images/10_0.jpg,0,44,0,0,2,"[9, 19, 29, 39, 49, 59, 68, 69, 70, 71]",0,188,188,188,5.94055036699865,,,,,,,,,,,3.731362131977221,3.73144448097446,3.7314498019986786,3.7330552029889077,None,3.733121294993907,3.7331418239919003,None,3.733194399974309,3.7332131779985502,None,3.7332637299841736,3.733281642984366,None,,,,,,,,,,,1,001,15,,2024-04-09_13h44.20.403,replicate_nsd,2023.2.3,59.874835366735276,2024-04-09 13h44.40.917710 -0400,
images/pair06 copy 4.jpg,0,45,0,0,2,"[9, 19, 29, 39, 49, 59, 68, 69, 70, 71]",0,189,189,189,5.94055036699865,,,,,,,,,,,3.7334442019928247,3.7335268319875468,3.7335322949802503,3.7358581709850114,None,3.735925020999275,3.735945443972014,None,3.7359990339900833,3.736017967981752,None,3.736068557976978,3.7360867169918492,None,,,,,,,,,,,1,001,15,,2024-04-09_13h44.20.403,replicate_nsd,2023.2.3,59.874835366735276,2024-04-09 13h44.40.917710 -0400,
images/17_0 copy 5.jpg,0,46,0,0,2,"[9, 19, 29, 39, 49, 59, 68, 69, 70, 71]",0,190,190,190,5.94055036699865,,,,,,,,,,,3.7362506659992505,3.736340373987332,3.7363458769978024,3.738427383999806,None,3.7384934709989466,3.738513908989262,None,3.7385675339901354,3.738586752995616,None,3.738637631991878,3.73865587299224,None,,,,,,,,,,,1,001,15,,2024-04-09_13h44.20.403,replicate_nsd,2023.2.3,59.874835366735276,2024-04-09 13h44.40.917710 -0400,
images/15_0 copy 6.jpg,0,47,0,0,2,"[9, 19, 29, 39, 49, 59, 68, 69, 70, 71]",0,191,191,191,5.94055036699865,,,,,,,,,,,3.738816301978659,3.7389065199822653,3.7389121539890766,3.740596124989679,None,3.7406613289786037,3.7406813699926715,None,3.74073370397673,3.7407531549979467,None,3.7408031369850505,3.74082138898666,None,,,,,,,,,,,1,001,15,,2024-04-09_13h44.20.403,replicate_nsd,2023.2.3,59.874835366735276,2024-04-09 13h44.40.917710 -0400,
images/15_0.jpg,0,48,0,0,2,"[9, 19, 29, 39, 49, 59, 68, 69, 70, 71]",0,192,192,192,5.94055036699865,,,,,,,,,,,3.7409836259903386,3.7410656749852933,3.7410710789845325,3.7427528029948007,None,3.742818211991107,3.742838497972116,None,3.7428915039927233,3.7429107199714053,None,3.742960747971665,3.742978611990111,None,,,,,,,,,,,1,001,15,,2024-04-09_13h44.20.403,replicate_nsd,2023.2.3,59.874835366735276,2024-04-09 13h44.40.917710 -0400,
images/blank.jpg,0,49,1,0,2,"[9, 19, 29, 39, 49, 59, 68, 69, 70, 71]",0,193,193,193,5.94055036699865,,,,,,,,,,,3.7431395889725536,3.7432219219917897,3.7432273679878563,3.744712081999751,None,3.7447780699876603,3.744798430998344,None,3.7448512529954314,3.744870397989871,None,3.7449205159791745,3.744938427989837,None,,,,,,,,,,,1,001,15,,2024-04-09_13h44.20.403,replicate_nsd,2023.2.3,59.874835366735276,2024-04-09 13h44.40.917710 -0400,
images/15_28 copy 7.jpg,0,50,0,0,2,"[9, 19, 29, 39, 49, 59, 68, 69, 70, 71]",0,194,194,194,5.94055036699865,,,,,,,,,,,3.7450990799989086,3.745180588972289,3.745186095999088,3.746895588992629,None,3.7469613569846842,3.746981402975507,None,3.747034800995607,3.747053839993896,None,3.747104275971651,3.7471223779721186,None,,,,,,,,,,,1,001,15,,2024-04-09_13h44.20.403,replicate_nsd,2023.2.3,59.874835366735276,2024-04-09 13h44.40.917710 -0400,
images/21_12 copy 2.jpg,0,51,0,0,2,"[9, 19, 29, 39, 49, 59, 68, 69, 70, 71]",0,195,195,195,5.94055036699865,,,,,,,,,,,3.747283044998767,3.7473645649733953,3.7473700149857905,3.749022286996478,None,3.7490879479737487,3.7491082989727147,None,3.7491608149721287,3.749180004990194,None,3.7492298699798994,3.749247788975481,None,,,,,,,,,,,1,001,15,,2024-04-09_13h44.20.403,replicate_nsd,2023.2.3,59.874835366735276,2024-04-09 13h44.40.917710 -0400,
images/11_40.jpg,0,52,0,0,2,"[9, 19, 29, 39, 49, 59, 68, 69, 70, 71]",0,196,196,196,5.94055036699865,,,,,,,,,,,3.7494089439860545,3.7494990399864037,3.7495045179966837,3.751157094986411,None,3.751222971972311,3.7512434119998943,None,3.751296412985539,3.7513157399953343,None,3.7513663609861396,3.7513847749796696,None,,,,,,,,,,,1,001,15,,2024-04-09_13h44.20.403,replicate_nsd,2023.2.3,59.874835366735276,2024-04-09 13h44.40.917710 -0400,
images/pair05 copy 3.jpg,0,53,0,0,2,"[9, 19, 29, 39, 49, 59, 68, 69, 70, 71]",0,197,197,197,5.94055036699865,,,,,,,,,,,3.7515450019855052,3.7516266989987344,3.7516322459850926,3.753883159981342,None,3.7539504779851995,3.753970715973992,None,3.754025213973364,3.754044489993248,None,3.7540953009738587,3.7541132789920084,None,,,,,,,,,,,1,001,15,,2024-04-09_13h44.20.403,replicate_nsd,2023.2.3,59.874835366735276,2024-04-09 13h44.40.917710 -0400,
images/12_40.jpg,0,54,0,0,2,"[9, 19, 29, 39, 49, 59, 68, 69, 70, 71]",0,198,198,198,5.94055036699865,,,,,,,,,,,3.754275916988263,3.7543662459938787,3.7543718519737013,3.756482872995548,None,3.7565558049827814,3.756576381972991,None,3.756630094983848,3.7566490219905972,None,3.756699388992274,3.7567175129952375,None,,,,,,,,,,,1,001,15,,2024-04-09_13h44.20.403,replicate_nsd,2023.2.3,59.874835366735276,2024-04-09 13h44.40.917710 -0400,
images/23_28 copy 7.jpg,0,55,0,0,2,"[9, 19, 29, 39, 49, 59, 68, 69, 70, 71]",0,199,199,199,5.94055036699865,,,,,,,,,,,3.7568796539853793,3.7569624559837393,3.7569679869920947,3.7587517309875693,None,3.7588169029913843,3.758837382978527,None,3.7588907669996843,3.758909746975405,None,3.758959924976807,3.7589779419940896,None,,,,,,,,,,,1,001,15,,2024-04-09_13h44.20.403,replicate_nsd,2023.2.3,59.874835366735276,2024-04-09 13h44.40.917710 -0400,
images/7_12.jpg,0,56,0,0,2,"[9, 19, 29, 39, 49, 59, 68, 69, 70, 71]",0,200,200,200,5.94055036699865,,,,,,,,,,,3.759138864988927,3.759228524984792,3.7592340449918993,3.7609131139761303,None,3.7609787279798184,3.760999489983078,None,3.761052217974793,3.761071410990553,None,3.7611216769728344,3.7611402519978583,None,,,,,,,,,,,1,001,15,,2024-04-09_13h44.20.403,replicate_nsd,2023.2.3,59.874835366735276,2024-04-09 13h44.40.917710 -0400,
images/pair12 copy 7.jpg,0,57,0,0,2,"[9, 19, 29, 39, 49, 59, 68, 69, 70, 71]",0,201,201,201,5.94055036699865,,,,,,,,,,,3.7613022409786936,3.7613841209968086,3.7613895979884546,3.763589995971415,None,3.763656725990586,3.763677201990504,None,3.7637304769887123,3.7637501989956945,None,3.763800189975882,3.763818164996337,None,,,,,,,,,,,1,001,15,,2024-04-09_13h44.20.403,replicate_nsd,2023.2.3,59.874835366735276,2024-04-09 13h44.40.917710 -0400,
images/13_12 copy.jpg,0,58,0,0,2,"[9, 19, 29, 39, 49, 59, 68, 69, 70, 71]",0,202,202,202,5.94055036699865,,,,,,,,,,,3.763981980999233,3.764072509977268,3.764078089996474,3.7662418759719003,None,3.7663087529945187,3.7663291329809,None,3.766382594971219,3.7664017059723847,None,3.766451812989544,3.7664694329723716,None,,,,,,,,,,,1,001,15,,2024-04-09_13h44.20.403,replicate_nsd,2023.2.3,59.874835366735276,2024-04-09 13h44.40.917710 -0400,
images/blank.jpg,0,59,1,0,2,"[9, 19, 29, 39, 49, 59, 68, 69, 70, 71]",0,203,203,203,5.94055036699865,,,,,,,,,,,3.7666328059858643,3.7667242189927492,3.7667296969739255,3.768282882985659,None,3.768348444980802,3.7683690289850347,None,3.7684217609930784,3.7684410629735794,None,3.768490884976927,3.7685091249877587,None,,,,,,,,,,,1,001,15,,2024-04-09_13h44.20.403,replicate_nsd,2023.2.3,59.874835366735276,2024-04-09 13h44.40.917710 -0400,
images/11_28 copy 7.jpg,0,60,0,0,2,"[9, 19, 29, 39, 49, 59, 68, 69, 70, 71]",0,204,204,204,5.94055036699865,,,,,,,,,,,3.768671795987757,3.7687541869818233,3.7687597269832622,3.8222809689759742,None,3.8223943969933316,3.8224206639861222,None,3.822487122990424,3.8225110069906805,None,3.822584127978189,3.8226069239899516,None,,,,,,,,,,,1,001,15,,2024-04-09_13h44.20.403,replicate_nsd,2023.2.3,59.874835366735276,2024-04-09 13h44.40.917710 -0400,
images/20_0 copy.jpg,0,61,0,0,2,"[9, 19, 29, 39, 49, 59, 68, 69, 70, 71]",0,205,205,205,5.94055036699865,,,,,,,,,,,3.822818723972887,3.822942516999319,3.8229495199921075,3.8248787079937756,None,3.824959316989407,3.8249841869983356,None,3.825049640989164,3.8250730549916625,None,3.825134624989005,3.8251567039988004,None,,,,,,,,,,,1,001,15,,2024-04-09_13h44.20.403,replicate_nsd,2023.2.3,59.874835366735276,2024-04-09 13h44.40.917710 -0400,
images/pair06 copy 2.jpg,0,62,0,0,2,"[9, 19, 29, 39, 49, 59, 68, 69, 70, 71]",0,206,206,206,5.94055036699865,,,,,,,,,,,3.8253561849996913,3.825456745980773,3.825463471992407,3.8281068119977135,None,3.8281882309820503,3.828213370987214,None,3.8282797119754832,3.8283029749873094,None,3.8283652209793217,3.8283868549915496,None,,,,,,,,,,,1,001,15,,2024-04-09_13h44.20.403,replicate_nsd,2023.2.3,59.874835366735276,2024-04-09 13h44.40.917710 -0400,
images/17_40 copy 2.jpg,0,63,0,0,2,"[9, 19, 29, 39, 49, 59, 68, 69, 70, 71]",0,207,207,207,5.94055036699865,,,,,,,,,,,3.8285851389809977,3.8286961679987144,3.8287029299826827,3.830965456989361,None,3.8310459369968157,3.8310711029917,None,3.831136759981746,3.8311598979926202,None,3.8312222299864516,3.831244094995782,None,,,,,,,,,,,1,001,15,,2024-04-09_13h44.20.403,replicate_nsd,2023.2.3,59.874835366735276,2024-04-09 13h44.40.917710 -0400,
images/8_0 copy 4.jpg,0,64,0,0,2,"[9, 19, 29, 39, 49, 59, 68, 69, 70, 71]",0,208,208,208,5.94055036699865,,,,,,,,,,,3.8314430309983436,3.8315512749832124,3.8315578709880356,3.8334748889901675,None,3.8335556439997163,3.8335807729745284,None,3.833645621984033,3.8336694769968744,None,3.8337308409973048,3.8337532519944943,None,,,,,,,,,,,1,001,15,,2024-04-09_13h44.20.403,replicate_nsd,2023.2.3,59.874835366735276,2024-04-09 13h44.40.917710 -0400,
images/19_40.jpg,0,65,0,0,2,"[9, 19, 29, 39, 49, 59, 68, 69, 70, 71]",0,209,209,209,5.94055036699865,,,,,,,,,,,3.8339502969756722,3.8340511009737384,3.834057820989983,3.8358832949888892,None,3.8359685059986077,3.835992889973568,None,3.836057157983305,3.8360818729852326,None,3.8361422419839073,3.836164469976211,None,,,,,,,,,,,1,001,15,,2024-04-09_13h44.20.403,replicate_nsd,2023.2.3,59.874835366735276,2024-04-09 13h44.40.917710 -0400,
images/12_0 copy 2.jpg,0,66,0,0,2,"[9, 19, 29, 39, 49, 59, 68, 69, 70, 71]",0,210,210,210,5.94055036699865,,,,,,,,,,,3.8363606549974065,3.83646922398475,3.8364757519739214,3.8382646019745152,None,3.838345139985904,3.8383699289988726,None,3.838434982986655,3.8384581089776475,None,3.8385193389840424,3.838541440985864,None,,,,,,,,,,,1,001,15,,2024-04-09_13h44.20.403,replicate_nsd,2023.2.3,59.874835366735276,2024-04-09 13h44.40.917710 -0400,
images/19_28 copy 4.jpg,0,67,0,0,2,"[9, 19, 29, 39, 49, 59, 68, 69, 70, 71]",0,211,211,211,5.94055036699865,,,,,,,,,,,3.8387385649839416,3.838838768977439,3.8388453649822623,3.840654089988675,None,3.8407344879815355,3.840759011975024,None,3.8408242059813347,3.840847405983368,None,3.840909036982339,3.8409309829876292,None,,,,,,,,,,,1,001,15,,2024-04-09_13h44.20.403,replicate_nsd,2023.2.3,59.874835366735276,2024-04-09 13h44.40.917710 -0400,
images/blank.jpg,0,68,1,0,2,"[9, 19, 29, 39, 49, 59, 68, 69, 70, 71]",0,212,212,212,5.94055036699865,,,,,,,,,,,3.841128663974814,3.8412384699913673,3.8412452339835,3.8428709309955593,None,3.842951232974883,3.842976240994176,None,3.8430416619812604,3.843065408989787,None,3.843127080996055,3.8431491509836633,None,,,,,,,,,,,1,001,15,,2024-04-09_13h44.20.403,replicate_nsd,2023.2.3,59.874835366735276,2024-04-09 13h44.40.917710 -0400,
images/blank.jpg,0,69,1,0,2,"[9, 19, 29, 39, 49, 59, 68, 69, 70, 71]",0,213,213,213,5.94055036699865,,,,,,,,,,,3.8433461409877054,3.84345623999252,3.8434630279953126,3.845083423977485,None,3.845163342979504,3.8451883399975486,None,3.8452538269921206,3.8452773039753083,None,3.845338768995134,3.8453613449819386,None,,,,,,,,,,,1,001,15,,2024-04-09_13h44.20.403,replicate_nsd,2023.2.3,59.874835366735276,2024-04-09 13h44.40.917710 -0400,
images/blank.jpg,0,70,1,0,2,"[9, 19, 29, 39, 49, 59, 68, 69, 70, 71]",0,214,214,214,5.94055036699865,,,,,,,,,,,3.845560775982449,3.845671149989357,3.8456779709958937,3.8472775499976706,None,3.8473575219977647,3.84738233598182,None,3.8474471399968024,3.847470381995663,None,3.847532425977988,3.847554562991718,None,,,,,,,,,,,1,001,15,,2024-04-09_13h44.20.403,replicate_nsd,2023.2.3,59.874835366735276,2024-04-09 13h44.40.917710 -0400,
images/blank.jpg,0,71,1,1,2,"[9, 19, 29, 39, 49, 59, 68, 69, 70, 71]",0,215,215,215,5.94055036699865,,,,,,,,,,,3.8477515269769356,3.8478622080001514,3.8478690489719156,3.8493746939930134,None,3.849455532996217,3.849480955977924,None,3.849546076991828,3.849569882993819,None,3.8496313999930862,3.8496540209744126,None,,,,,,,,,,,1,001,15,,2024-04-09_13h44.20.403,replicate_nsd,2023.2.3,59.874835366735276,2024-04-09 13h44.40.917710 -0400,
images/pair14 copy.jpg,0,0,0,0,3,"[9, 19, 31, 45, 56, 68, 69, 70, 71]",0,216,216,216,5.94055036699865,,,,,,,,,,,3.8498511859797873,3.8499521869816817,3.8499590539722703,3.852721258997917,None,3.852803016983671,3.852828190982109,None,3.8528943749843165,3.8529180729819927,None,3.852979843999492,3.8530021409969777,None,,,,,,,,,,,1,001,15,,2024-04-09_13h44.20.403,replicate_nsd,2023.2.3,59.874835366735276,2024-04-09 13h44.40.917710 -0400,
images/18_40 copy 7.jpg,0,1,0,0,3,"[9, 19, 31, 45, 56, 68, 69, 70, 71]",0,217,217,217,5.94055036699865,,,,,,,,,,,3.8532023409788962,3.8533124219975434,3.8533191479800735,3.8556088429759257,None,3.855690854979912,3.8557222959934734,None,3.8557893489778508,3.855813356989529,None,3.855885553988628,3.85590873399633,None,,,,,,,,,,,1,001,15,,2024-04-09_13h44.20.403,replicate_nsd,2023.2.3,59.874835366735276,2024-04-09 13h44.40.917710 -0400,
images/22_40 copy 3.jpg,0,2,0,0,3,"[9, 19, 31, 45, 56, 68, 69, 70, 71]",0,218,218,218,5.94055036699865,,,,,,,,,,,3.85610921899206,3.856210520985769,3.8562171079975087,3.858133232977707,None,3.8582112269941717,3.858235732972389,None,3.8582987939880695,3.858321765990695,None,3.858382824982982,3.8584043349837884,None,,,,,,,,,,,1,001,15,,2024-04-09_13h44.20.403,replicate_nsd,2023.2.3,59.874835366735276,2024-04-09 13h44.40.917710 -0400,
images/19_40 copy 5.jpg,0,3,0,0,3,"[9, 19, 31, 45, 56, 68, 69, 70, 71]",0,219,219,219,5.94055036699865,,,,,,,,,,,3.858597585989628,3.8587060709833167,3.858712787972763,3.8605156629928388,None,3.860589883988723,3.860612833988853,None,3.8606733979831915,3.860695016977843,None,3.860752311971737,3.8607725159963593,None,,,,,,,,,,,1,001,15,,2024-04-09_13h44.20.403,replicate_nsd,2023.2.3,59.874835366735276,2024-04-09 13h44.40.917710 -0400,
images/19_28 copy 3.jpg,0,4,0,0,3,"[9, 19, 31, 45, 56, 68, 69, 70, 71]",0,220,220,220,5.94055036699865,,,,,,,,,,,3.8609691059973557,3.861068805999821,3.861075142980553,3.8628151019802317,None,3.8628854119742755,3.862923990993295,None,3.8629800609778613,3.863000331999501,None,3.863052846980281,3.8630721329827793,None,,,,,,,,,,,1,001,15,,2024-04-09_13h44.20.403,replicate_nsd,2023.2.3,59.874835366735276,2024-04-09 13h44.40.917710 -0400,
images/pair09 copy 6.jpg,0,5,0,0,3,"[9, 19, 31, 45, 56, 68, 69, 70, 71]",0,221,221,221,5.94055036699865,,,,,,,,,,,3.863241456972901,3.8633279019850306,3.8633335229824297,3.8658130709955003,None,3.865879661985673,3.86589984697639,None,3.865953383996384,3.8659726149926428,None,3.866022903996054,3.8660412129829638,None,,,,,,,,,,,1,001,15,,2024-04-09_13h44.20.403,replicate_nsd,2023.2.3,59.874835366735276,2024-04-09 13h44.40.917710 -0400,
images/6_0 copy 7.jpg,0,6,0,0,3,"[9, 19, 31, 45, 56, 68, 69, 70, 71]",0,222,222,222,5.94055036699865,,,,,,,,,,,3.8662029189872555,3.866284846997587,3.866290248988662,3.8684575599909294,None,3.868524028977845,3.868544259981718,None,3.868598816974554,3.8686182079836726,None,3.868668962997617,3.868686992995208,None,,,,,,,,,,,1,001,15,,2024-04-09_13h44.20.403,replicate_nsd,2023.2.3,59.874835366735276,2024-04-09 13h44.40.917710 -0400,
images/10_40 copy 2.jpg,0,7,0,0,3,"[9, 19, 31, 45, 56, 68, 69, 70, 71]",0,223,223,223,5.94055036699865,,,,,,,,,,,3.8688497609982733,3.868932158977259,3.868937589984853,3.870657912979368,None,3.870723714993801,3.8707443619787227,None,3.8707966989895795,3.8708158169756643,None,3.8708659629919566,3.8708841139741708,None,,,,,,,,,,,1,001,15,,2024-04-09_13h44.20.403,replicate_nsd,2023.2.3,59.874835366735276,2024-04-09 13h44.40.917710 -0400,
images/pair11 copy 4.jpg,0,8,0,0,3,"[9, 19, 31, 45, 56, 68, 69, 70, 71]",0,224,224,224,5.94055036699865,,,,,,,,,,,3.8710446759941988,3.8711272119835485,3.8711326879856642,3.8734521709848195,None,3.873518386972137,3.87353842399898,None,3.873592411982827,3.8736114879720844,None,3.873662350990344,3.8736802589846775,None,,,,,,,,,,,1,001,15,,2024-04-09_13h44.20.403,replicate_nsd,2023.2.3,59.874835366735276,2024-04-09 13h44.40.917710 -0400,
