current_image,is_repeat,trial_index,is_blank_trial,is_new_run,run_num,all_blanks_list,loop_all_images.thisRepN,loop_all_images.thisTrialN,loop_all_images.thisN,loop_all_images.thisIndex,thisRow.t,notes,set_up.started,set_up.stopped,waiting_fmri.started,key_resp_2.started,text_3.started,waiting_fmri.stopped,key_resp_2.keys,key_resp_2.rt,key_resp_2.duration,set_skips.started,set_skips.stopped,trial.started,trial.stopped,press_if_repeat.keys,blank_trial.started,blank_trial.stopped,key_resp_3.keys,run_wait2.started,run_wait2.stopped,key_resp_5.keys,waiting_fmri_2.started,waiting_fmri_2.stopped,key_resp_4.keys,participant,session,starting_run,,date,expName,psychopyVersion,frameRate,expStart,
,,,,,,,,,,,,,0.0371698240051046,0.0374026219942607,0.03742425297969021,0.048206965991994366,0.048206965991994366,1.6731759549875278,5,1.6202749540098011,None,,,,,,,,,,,,,,,1,001,16,,2024-04-09_13h57.38.459,replicate_nsd,2023.2.3,59.874111202892585,2024-04-09 13h57.52.165696 -0400,
images/7_12 copy 4.jpg,0,0,0,0,0,"[9, 19, 29, 39, 49, 59, 68, 69, 70, 71]",0,0,0,0,5.23616964899702,,,,,,,,,,,1.7471829050045926,1.7472417730023153,1.7472480769793037,1.7543944729841314,None,1.7553190650069155,1.7553723469900433,None,1.756177375005791,1.756223456992302,None,1.756912877986906,1.7569536759983748,None,1,001,16,,2024-04-09_13h57.38.459,replicate_nsd,2023.2.3,59.874111202892585,2024-04-09 13h57.52.165696 -0400,
images/19_40 copy 3.jpg,0,1,0,0,0,"[9, 19, 29, 39, 49, 59, 68, 69, 70, 71]",0,1,1,1,5.23616964899702,,,,,,,,,,,1.7578485859849025,1.757932410982903,1.7579422910057474,1.7613268099958077,None,1.7614464429789223,1.761483808979392,None,1.761583803978283,1.7616182799974922,None,1.7617111679865047,1.7617440869798884,None,1,001,16,,2024-04-09_13h57.38.459,replicate_nsd,2023.2.3,59.874111202892585,2024-04-09 13h57.52.165696 -0400,
images/18_28 copy 3.jpg,0,2,0,0,0,"[9, 19, 29, 39, 49, 59, 68, 69, 70, 71]",0,2,2,2,5.23616964899702,,,,,,,,,,,1.762039430992445,1.7621214499813505,1.7621311050024815,1.7654214059875812,None,1.7655407190031838,1.7655857559875585,None,1.7656863149895798,1.7657212149933912,None,1.7658145619789138,1.7658478009980172,None,1,001,16,,2024-04-09_13h57.38.459,replicate_nsd,2023.2.3,59.874111202892585,2024-04-09 13h57.52.165696 -0400,
images/22_40 copy.jpg,0,3,0,0,0,"[9, 19, 29, 39, 49, 59, 68, 69, 70, 71]",0,3,3,3,5.23616964899702,,,,,,,,,,,1.7661423019890208,1.7662241029902361,1.766233756992733,1.7693357240059413,None,1.769456067995634,1.769492650986649,None,1.7695908689929638,1.769625379005447,None,1.769718681985978,1.7697516299958806,None,1,001,16,,2024-04-09_13h57.38.459,replicate_nsd,2023.2.3,59.874111202892585,2024-04-09 13h57.52.165696 -0400,
images/14_40 copy 4.jpg,0,4,0,0,0,"[9, 19, 29, 39, 49, 59, 68, 69, 70, 71]",0,4,4,4,5.23616964899702,,,,,,,,,,,1.7700469410046935,1.7701283000060357,1.7701380710059311,1.77339759998722,None,1.7735177279973868,1.7735547479824163,None,1.7736522280029021,1.7736870889784768,None,1.7737800529866945,1.7738125789910555,None,1,001,16,,2024-04-09_13h57.38.459,replicate_nsd,2023.2.3,59.874111202892585,2024-04-09 13h57.52.165696 -0400,
images/pair04 copy 5.jpg,0,5,0,0,0,"[9, 19, 29, 39, 49, 59, 68, 69, 70, 71]",0,5,5,5,5.23616964899702,,,,,,,,,,,1.7741073179931846,1.7741890589823015,1.7741987689805683,1.7832442309882026,None,1.7833425139833707,1.7833721489878371,None,1.7834522500052117,1.7834809359919745,None,1.7835559579834808,1.7835830159892794,None,1,001,16,,2024-04-09_13h57.38.459,replicate_nsd,2023.2.3,59.874111202892585,2024-04-09 13h57.52.165696 -0400,
images/22_12.jpg,0,6,0,0,0,"[9, 19, 29, 39, 49, 59, 68, 69, 70, 71]",0,6,6,6,5.23616964899702,,,,,,,,,,,1.78382107699872,1.7838875779998489,1.7838955589977559,1.787422035005875,None,1.7875194439839106,1.787549170985585,None,1.7876285819802433,1.7876559279975481,None,1.7877311279880814,1.787757165991934,None,1,001,16,,2024-04-09_13h57.38.459,replicate_nsd,2023.2.3,59.874111202892585,2024-04-09 13h57.52.165696 -0400,
images/8_28 copy 4.jpg,0,7,0,0,0,"[9, 19, 29, 39, 49, 59, 68, 69, 70, 71]",0,7,7,7,5.23616964899702,,,,,,,,,,,1.7879937310062815,1.7880587069957983,1.7880663099931553,1.7906526479928289,None,1.7907350809837226,1.7907602219784167,None,1.7908257889794186,1.7908491769921966,None,1.7909111850021873,1.7909336209995672,None,1,001,16,,2024-04-09_13h57.38.459,replicate_nsd,2023.2.3,59.874111202892585,2024-04-09 13h57.52.165696 -0400,
images/18_40 copy.jpg,0,8,0,0,0,"[9, 19, 29, 39, 49, 59, 68, 69, 70, 71]",0,8,8,8,5.23616964899702,,,,,,,,,,,1.791131581994705,1.7912210039794445,1.7912281089811586,1.7935763349814806,None,1.7936594100028742,1.7936849989928305,None,1.7937530009949114,1.793777040002169,None,1.793840664991876,1.7938633610028774,None,1,001,16,,2024-04-09_13h57.38.459,replicate_nsd,2023.2.3,59.874111202892585,2024-04-09 13h57.52.165696 -0400,
images/blank.jpg,0,9,1,0,0,"[9, 19, 29, 39, 49, 59, 68, 69, 70, 71]",0,9,9,9,5.23616964899702,,,,,,,,,,,1.794065445981687,1.7941214960010257,1.7941280030063353,1.7961643369926605,None,1.796260203991551,1.7962906769826077,None,1.7963694600039162,1.7963970109994989,None,1.7964719260053243,1.7964982029807288,None,1,001,16,,2024-04-09_13h57.38.459,replicate_nsd,2023.2.3,59.874111202892585,2024-04-09 13h57.52.165696 -0400,
images/pair03 copy 7.jpg,0,10,0,0,0,"[9, 19, 29, 39, 49, 59, 68, 69, 70, 71]",0,10,10,10,5.23616964899702,,,,,,,,,,,1.796734215982724,1.796799731993815,1.7968073439842556,1.7999742279935163,None,1.8000578679784667,1.8000834039994515,None,1.8001518060045782,1.800175565003883,None,1.800239446980413,1.8002621860068757,None,1,001,16,,2024-04-09_13h57.38.459,replicate_nsd,2023.2.3,59.874111202892585,2024-04-09 13h57.52.165696 -0400,
images/8_28 copy.jpg,0,11,0,0,0,"[9, 19, 29, 39, 49, 59, 68, 69, 70, 71]",0,11,11,11,5.23616964899702,,,,,,,,,,,1.8004694039991591,1.800525459984783,1.800532013992779,1.803277655999409,None,1.8033604240044951,1.8033861749863718,None,1.8034542409877758,1.8034774139814544,None,1.803541775996564,1.8035649789962918,None,1,001,16,,2024-04-09_13h57.38.459,replicate_nsd,2023.2.3,59.874111202892585,2024-04-09 13h57.52.165696 -0400,
images/17_28 copy.jpg,0,12,0,0,0,"[9, 19, 29, 39, 49, 59, 68, 69, 70, 71]",0,12,12,12,5.23616964899702,,,,,,,,,,,1.8037670069898013,1.8038227210054174,1.8038294639845844,1.8066818279912695,None,1.8067766779859085,1.8068056519841775,None,1.8068844759836793,1.8069117759878282,None,1.8069865120050963,1.8070130980049726,None,1,001,16,,2024-04-09_13h57.38.459,replicate_nsd,2023.2.3,59.874111202892585,2024-04-09 13h57.52.165696 -0400,
images/pair11 copy 5.jpg,0,13,0,0,0,"[9, 19, 29, 39, 49, 59, 68, 69, 70, 71]",0,13,13,13,5.23616964899702,,,,,,,,,,,1.8072496609820519,1.8073144840018358,1.8073222469829489,1.81118888000492,None,1.811285173986107,1.8113156229956076,None,1.8113958099856973,1.8114239319984335,None,1.8114988890010864,1.811525900993729,None,1,001,16,,2024-04-09_13h57.38.459,replicate_nsd,2023.2.3,59.874111202892585,2024-04-09 13h57.52.165696 -0400,
images/pair13.jpg,0,14,0,0,0,"[9, 19, 29, 39, 49, 59, 68, 69, 70, 71]",0,14,14,14,5.23616964899702,,,,,,,,,,,1.8117631299828645,1.8118278289912269,1.8118358179926872,1.815247246006038,None,1.8153435539861675,1.8153734139923472,None,1.8154524079873227,1.815480403980473,None,1.815554297005292,1.8155886599852238,None,1,001,16,,2024-04-09_13h57.38.459,replicate_nsd,2023.2.3,59.874111202892585,2024-04-09 13h57.52.165696 -0400,
images/8_28 copy 3.jpg,0,15,0,0,0,"[9, 19, 29, 39, 49, 59, 68, 69, 70, 71]",0,15,15,15,5.23616964899702,,,,,,,,,,,1.8158296599867754,1.8158948939817492,1.8159029109810945,1.8188412849849556,None,1.818938354990678,1.8189682219817769,None,1.8190478839969728,1.8190753319940995,None,1.8191502789850347,1.8191771270066965,None,1,001,16,,2024-04-09_13h57.38.459,replicate_nsd,2023.2.3,59.874111202892585,2024-04-09 13h57.52.165696 -0400,
images/23_40 copy.jpg,0,16,0,0,0,"[9, 19, 29, 39, 49, 59, 68, 69, 70, 71]",0,16,16,16,5.23616964899702,,,,,,,,,,,1.8194147390022408,1.819479372992646,1.8194870519801043,1.8225360149808694,None,1.8226326929870993,1.822662919992581,None,1.8227415069995914,1.8227690990024712,None,1.8228434869961347,1.8228698750026524,None,1,001,16,,2024-04-09_13h57.38.459,replicate_nsd,2023.2.3,59.874111202892585,2024-04-09 13h57.52.165696 -0400,
images/23_40 copy 6.jpg,0,17,0,0,0,"[9, 19, 29, 39, 49, 59, 68, 69, 70, 71]",0,17,17,17,5.23616964899702,,,,,,,,,,,1.8231058520032093,1.823170907999156,1.8231785929820035,1.8256405860011,None,1.8257372099906206,1.8257678769878112,None,1.825847228989005,1.8258746579813305,None,1.826012334000552,1.8260406149784103,None,1,001,16,,2024-04-09_13h57.38.459,replicate_nsd,2023.2.3,59.874111202892585,2024-04-09 13h57.52.165696 -0400,
images/20_40 copy 2.jpg,0,18,0,0,0,"[9, 19, 29, 39, 49, 59, 68, 69, 70, 71]",0,18,18,18,5.23616964899702,,,,,,,,,,,1.8262831299798563,1.8263483739865478,1.8263563719810918,1.829190029995516,None,1.8292858399800025,1.8293154900020454,None,1.8293943339958787,1.8294225680001546,None,1.829497397004161,1.829523936001351,None,1,001,16,,2024-04-09_13h57.38.459,replicate_nsd,2023.2.3,59.874111202892585,2024-04-09 13h57.52.165696 -0400,
images/blank.jpg,0,19,1,0,0,"[9, 19, 29, 39, 49, 59, 68, 69, 70, 71]",0,19,19,19,5.23616964899702,,,,,,,,,,,1.8297604639956262,1.8298252039821818,1.8298327319789678,1.8317361589870416,None,1.831830971990712,1.8318600530037656,None,1.8319382509798743,1.8319659279950429,None,1.83203978597885,1.832066181988921,None,1,001,16,,2024-04-09_13h57.38.459,replicate_nsd,2023.2.3,59.874111202892585,2024-04-09 13h57.52.165696 -0400,
images/12_28 copy.jpg,0,20,0,0,0,"[9, 19, 29, 39, 49, 59, 68, 69, 70, 71]",0,20,20,20,5.23616964899702,,,,,,,,,,,1.8323015570058487,1.8323659609886818,1.8323736639868002,1.835139195987722,None,1.8352367369807325,1.8352657219802495,None,1.8353444369859062,1.8353722610045224,None,1.8354467869794462,1.835474900988629,None,1,001,16,,2024-04-09_13h57.38.459,replicate_nsd,2023.2.3,59.874111202892585,2024-04-09 13h57.52.165696 -0400,
images/6_0 copy 7.jpg,0,21,0,0,0,"[9, 19, 29, 39, 49, 59, 68, 69, 70, 71]",0,21,21,21,5.23616964899702,,,,,,,,,,,1.8357109039789066,1.8357758249912877,1.8357835130009335,1.8386458290042356,None,1.8387416299956385,1.8387712629919406,None,1.8388500809960533,1.8388776799838524,None,1.838952130987309,1.8389784900064114,None,1,001,16,,2024-04-09_13h57.38.459,replicate_nsd,2023.2.3,59.874111202892585,2024-04-09 13h57.52.165696 -0400,
images/15_28 copy 3.jpg,0,22,0,0,0,"[9, 19, 29, 39, 49, 59, 68, 69, 70, 71]",0,22,22,22,5.23616964899702,,,,,,,,,,,1.8392159729846753,1.8392804639879614,1.8392881879990455,1.8421744859952014,None,1.84227022799314,1.8422994930006098,None,1.8423775359988213,1.842405420000432,None,1.842479511979036,1.842505162989255,None,1,001,16,,2024-04-09_13h57.38.459,replicate_nsd,2023.2.3,59.874111202892585,2024-04-09 13h57.52.165696 -0400,
images/14_28 copy 5.jpg,0,23,0,0,0,"[9, 19, 29, 39, 49, 59, 68, 69, 70, 71]",0,23,23,23,5.23616964899702,,,,,,,,,,,1.8427398009807803,1.8428048019995913,1.8428124680067413,1.8456511859840248,None,1.8457471010042354,1.8457766840001568,None,1.8458555649849586,1.8458834729972295,None,1.845958317979239,1.8459846719924826,None,1,001,16,,2024-04-09_13h57.38.459,replicate_nsd,2023.2.3,59.874111202892585,2024-04-09 13h57.52.165696 -0400,
images/11_0 copy 2.jpg,0,24,0,0,0,"[9, 19, 29, 39, 49, 59, 68, 69, 70, 71]",0,24,24,24,5.23616964899702,,,,,,,,,,,1.8462220749934204,1.8462871889933012,1.8462948539818171,1.8490902819903567,None,1.849186090985313,1.8492165789939463,None,1.849295247986447,1.8493231179891154,None,1.8493970760027878,1.849423370003933,None,1,001,16,,2024-04-09_13h57.38.459,replicate_nsd,2023.2.3,59.874111202892585,2024-04-09 13h57.52.165696 -0400,
images/23_40 copy 4.jpg,0,25,0,0,0,"[9, 19, 29, 39, 49, 59, 68, 69, 70, 71]",0,25,25,25,5.23616964899702,,,,,,,,,,,1.8496602569939569,1.8497261849988718,1.849734115996398,1.8522139249835163,None,1.8523093319963664,1.852338692988269,None,1.8524172579927836,1.8524450569821056,None,1.8525196819973644,1.852545708999969,None,1,001,16,,2024-04-09_13h57.38.459,replicate_nsd,2023.2.3,59.874111202892585,2024-04-09 13h57.52.165696 -0400,
images/14_40 copy 7.jpg,0,26,0,0,0,"[9, 19, 29, 39, 49, 59, 68, 69, 70, 71]",0,26,26,26,5.23616964899702,,,,,,,,,,,1.8527822049800307,1.8528482749825343,1.852855898992857,1.8553977529809345,None,1.855493763985578,1.855523046979215,None,1.8556022879783995,1.8556299459887668,None,1.8557038209983148,1.8557304439891595,None,1,001,16,,2024-04-09_13h57.38.459,replicate_nsd,2023.2.3,59.874111202892585,2024-04-09 13h57.52.165696 -0400,
images/24_40 copy 7.jpg,0,27,0,0,0,"[9, 19, 29, 39, 49, 59, 68, 69, 70, 71]",0,27,27,27,5.23616964899702,,,,,,,,,,,1.8559653289848939,1.8560308279993478,1.8560389659833163,1.8588998729828745,None,1.8589964589918964,1.8590255790040828,None,1.8591054040007293,1.8591324229782913,None,1.8592071649909485,1.859232974005863,None,1,001,16,,2024-04-09_13h57.38.459,replicate_nsd,2023.2.3,59.874111202892585,2024-04-09 13h57.52.165696 -0400,
images/21_0 copy 6.jpg,0,28,0,0,0,"[9, 19, 29, 39, 49, 59, 68, 69, 70, 71]",0,28,28,28,5.23616964899702,,,,,,,,,,,1.8594690820027608,1.859534902003361,1.8595426520041656,1.8623548529867548,None,1.86245209898334,1.862482636992354,None,1.862561124988133,1.8625893289863598,None,1.8626647889905144,1.8626904389820993,None,1,001,16,,2024-04-09_13h57.38.459,replicate_nsd,2023.2.3,59.874111202892585,2024-04-09 13h57.52.165696 -0400,
images/blank.jpg,0,29,1,0,0,"[9, 19, 29, 39, 49, 59, 68, 69, 70, 71]",0,29,29,29,5.23616964899702,,,,,,,,,,,1.8629262039903551,1.862990876979893,1.8629985039879102,1.8648866369912867,None,1.8649835840042215,1.8650133289920632,None,1.865091838000808,1.865119281981606,None,1.8651935789966956,1.8652193399902899,None,1,001,16,,2024-04-09_13h57.38.459,replicate_nsd,2023.2.3,59.874111202892585,2024-04-09 13h57.52.165696 -0400,
images/9_0 copy 7.jpg,0,30,0,0,0,"[9, 19, 29, 39, 49, 59, 68, 69, 70, 71]",0,30,30,30,5.23616964899702,,,,,,,,,,,1.8654551570070907,1.86551963200327,1.8655272769974545,1.8683826990018133,None,1.8684902579989284,1.8685196909937076,None,1.8685993749822956,1.8686268549936358,None,1.8687023370002862,1.8687281619932037,None,1,001,16,,2024-04-09_13h57.38.459,replicate_nsd,2023.2.3,59.874111202892585,2024-04-09 13h57.52.165696 -0400,
images/17_12 copy 3.jpg,0,31,0,0,0,"[9, 19, 29, 39, 49, 59, 68, 69, 70, 71]",0,31,31,31,5.23616964899702,,,,,,,,,,,1.8689647360006347,1.8690293399849907,1.8690368719981052,1.8717212750052568,None,1.8718179629941005,1.8718466550053563,None,1.8719263359962497,1.8719532349787187,None,1.8720279819972347,1.8720538420020603,None,1,001,16,,2024-04-09_13h57.38.459,replicate_nsd,2023.2.3,59.874111202892585,2024-04-09 13h57.52.165696 -0400,
images/16_28 copy 6.jpg,0,32,0,0,0,"[9, 19, 29, 39, 49, 59, 68, 69, 70, 71]",0,32,32,32,5.23616964899702,,,,,,,,,,,1.8723004930070601,1.8723661770054605,1.872373884980334,1.8751640879781917,None,1.8752611340023577,1.8752900899853557,None,1.875369352987036,1.8753964380011894,None,1.875471456995001,1.8754968889988959,None,1,001,16,,2024-04-09_13h57.38.459,replicate_nsd,2023.2.3,59.874111202892585,2024-04-09 13h57.52.165696 -0400,
images/24_40 copy 7.jpg,0,33,0,0,0,"[9, 19, 29, 39, 49, 59, 68, 69, 70, 71]",0,33,33,33,5.23616964899702,,,,,,,,,,,1.875733394001145,1.8757981619855855,1.8758057819795795,1.8778981209907215,None,1.8779944429988973,1.8780238879844546,None,1.878102710004896,1.878129900986096,None,1.8782045659900177,1.878230236005038,None,1,001,16,,2024-04-09_13h57.38.459,replicate_nsd,2023.2.3,59.874111202892585,2024-04-09 13h57.52.165696 -0400,
images/pair10.jpg,0,34,0,0,0,"[9, 19, 29, 39, 49, 59, 68, 69, 70, 71]",0,34,34,34,5.23616964899702,,,,,,,,,,,1.878467228001682,1.8785318729933351,1.8785396729945205,1.8823232739814557,None,1.882419231988024,1.8824482850031927,None,1.88252767798258,1.8825551699846983,None,1.8826300890068524,1.882655944005819,None,1,001,16,,2024-04-09_13h57.38.459,replicate_nsd,2023.2.3,59.874111202892585,2024-04-09 13h57.52.165696 -0400,
images/9_12 copy 2.jpg,0,35,0,0,0,"[9, 19, 29, 39, 49, 59, 68, 69, 70, 71]",0,35,35,35,5.23616964899702,,,,,,,,,,,1.8828957410005387,1.8829607630032115,1.8829684910015203,1.8862813049927354,None,1.8863767629954964,1.8864055929880124,None,1.8864846589858644,1.8865115529915784,None,1.8865863219834864,1.8866129149973858,None,1,001,16,,2024-04-09_13h57.38.459,replicate_nsd,2023.2.3,59.874111202892585,2024-04-09 13h57.52.165696 -0400,
images/13_40 copy.jpg,0,36,0,0,0,"[9, 19, 29, 39, 49, 59, 68, 69, 70, 71]",0,36,36,36,5.23616964899702,,,,,,,,,,,1.8868467249849346,1.8869110929954331,1.8869189209945034,1.8899179970030673,None,1.8900144200015347,1.8900435130053665,None,1.890122387005249,1.8901494839810766,None,1.8902240789902862,1.8902499529940542,None,1,001,16,,2024-04-09_13h57.38.459,replicate_nsd,2023.2.3,59.874111202892585,2024-04-09 13h57.52.165696 -0400,
images/pair01.jpg,0,37,0,0,0,"[9, 19, 29, 39, 49, 59, 68, 69, 70, 71]",0,37,37,37,5.23616964899702,,,,,,,,,,,1.8904851569968741,1.890549439995084,1.8905572200019378,1.8946081849862821,None,1.8947037989855744,1.8947329929796979,None,1.894812041980913,1.8948390150035266,None,1.8949136610026471,1.8949400649871677,None,1,001,16,,2024-04-09_13h57.38.459,replicate_nsd,2023.2.3,59.874111202892585,2024-04-09 13h57.52.165696 -0400,
images/14_40 copy 7.jpg,0,38,0,0,0,"[9, 19, 29, 39, 49, 59, 68, 69, 70, 71]",0,38,38,38,5.23616964899702,,,,,,,,,,,1.895175929996185,1.8952397170069162,1.89524766698014,1.8978731090028305,None,1.897969618003117,1.897998556989478,None,1.8980780539859552,1.8981064379913732,None,1.8981821129855234,1.8982083989831153,None,1,001,16,,2024-04-09_13h57.38.459,replicate_nsd,2023.2.3,59.874111202892585,2024-04-09 13h57.52.165696 -0400,
images/blank.jpg,0,39,1,0,0,"[9, 19, 29, 39, 49, 59, 68, 69, 70, 71]",0,39,39,39,5.23616964899702,,,,,,,,,,,1.8984439129999373,1.8985079499834683,1.8985157799907029,1.9006253099942114,None,1.9007216049940325,1.9007507750065997,None,1.9008296829997562,1.9008567959826905,None,1.9009314199793153,1.9009574719821103,None,1,001,16,,2024-04-09_13h57.38.459,replicate_nsd,2023.2.3,59.874111202892585,2024-04-09 13h57.52.165696 -0400,
images/pair15 copy 7.jpg,0,40,0,0,0,"[9, 19, 29, 39, 49, 59, 68, 69, 70, 71]",0,40,40,40,5.23616964899702,,,,,,,,,,,1.901195837999694,1.9012608399789315,1.9012683809851296,1.9054204089916311,None,1.9055167649930809,1.9055461719981395,None,1.9056249189889058,1.9056520790036302,None,1.9057260449917521,1.9057525669923052,None,1,001,16,,2024-04-09_13h57.38.459,replicate_nsd,2023.2.3,59.874111202892585,2024-04-09 13h57.52.165696 -0400,
images/15_0 copy.jpg,0,41,0,0,0,"[9, 19, 29, 39, 49, 59, 68, 69, 70, 71]",0,41,41,41,5.23616964899702,,,,,,,,,,,1.9059882549918257,1.9060527599940542,1.9060605120030232,1.909462893003365,None,1.9095596839906648,1.9095890529861208,None,1.9096693790052086,1.9096967679797672,None,1.9097712739894632,1.9097975599870551,None,1,001,16,,2024-04-09_13h57.38.459,replicate_nsd,2023.2.3,59.874111202892585,2024-04-09 13h57.52.165696 -0400,
images/21_40.jpg,0,42,0,0,0,"[9, 19, 29, 39, 49, 59, 68, 69, 70, 71]",0,42,42,42,5.23616964899702,,,,,,,,,,,1.9100367839855608,1.910101051995298,1.9101087790040765,1.9131276179978158,None,1.9132238739985041,1.9132535259996075,None,1.9133331129851285,1.9133601619978435,None,1.913435427006334,1.9134610850014724,None,1,001,16,,2024-04-09_13h57.38.459,replicate_nsd,2023.2.3,59.874111202892585,2024-04-09 13h57.52.165696 -0400,
images/21_28 copy 7.jpg,0,43,0,0,0,"[9, 19, 29, 39, 49, 59, 68, 69, 70, 71]",0,43,43,43,5.23616964899702,,,,,,,,,,,1.9136981149786152,1.9137618810054846,1.9137695049867034,1.9166214900033083,None,1.9167173159949016,1.9167466450016946,None,1.9168257099809125,1.9168531319883186,None,1.9169282460061368,1.916953845997341,None,1,001,16,,2024-04-09_13h57.38.459,replicate_nsd,2023.2.3,59.874111202892585,2024-04-09 13h57.52.165696 -0400,
images/pair18 copy 2.jpg,0,44,0,0,0,"[9, 19, 29, 39, 49, 59, 68, 69, 70, 71]",0,44,44,44,5.23616964899702,,,,,,,,,,,1.9171928069845308,1.9172581619932316,1.9172657649905887,1.9216933909920044,None,1.9217882139782887,1.9218174669949804,None,1.921896960993763,1.9219250309979543,None,1.9220005059905816,1.922026416985318,None,1,001,16,,2024-04-09_13h57.38.459,replicate_nsd,2023.2.3,59.874111202892585,2024-04-09 13h57.52.165696 -0400,
images/20_28 copy 4.jpg,0,45,0,0,0,"[9, 19, 29, 39, 49, 59, 68, 69, 70, 71]",0,45,45,45,5.23616964899702,,,,,,,,,,,1.9222612009907607,1.9223249729839154,1.9223328619846143,1.925669085001573,None,1.9257648089842405,1.9257938560040202,None,1.9258729019784369,1.9258998360019177,None,1.9259738700056914,1.9260000979993492,None,1,001,16,,2024-04-09_13h57.38.459,replicate_nsd,2023.2.3,59.874111202892585,2024-04-09 13h57.52.165696 -0400,
images/6_40 copy 4.jpg,0,46,0,0,0,"[9, 19, 29, 39, 49, 59, 68, 69, 70, 71]",0,46,46,46,5.23616964899702,,,,,,,,,,,1.9262380189902615,1.9263032919843681,1.926311260991497,1.9293826569919474,None,1.9294788529805373,1.929507658991497,None,1.929586093989201,1.9296130719885696,None,1.92968717898475,1.9297128210018855,None,1,001,16,,2024-04-09_13h57.38.459,replicate_nsd,2023.2.3,59.874111202892585,2024-04-09 13h57.52.165696 -0400,
images/10_28 copy 4.jpg,0,47,0,0,0,"[9, 19, 29, 39, 49, 59, 68, 69, 70, 71]",0,47,47,47,5.23616964899702,,,,,,,,,,,1.9299479899927974,1.9300124709843658,1.930020315980073,1.9327796739817131,None,1.9328753470035736,1.9329046159982681,None,1.9329842089791782,1.9330114790063817,None,1.9330863359791692,1.933112369995797,None,1,001,16,,2024-04-09_13h57.38.459,replicate_nsd,2023.2.3,59.874111202892585,2024-04-09 13h57.52.165696 -0400,
images/21_12 copy 4.jpg,0,48,0,0,0,"[9, 19, 29, 39, 49, 59, 68, 69, 70, 71]",0,48,48,48,5.23616964899702,,,,,,,,,,,1.933347338985186,1.933412235986907,1.933420130982995,1.9362482629949227,None,1.9363437829888426,1.9363728640018962,None,1.9364513979817275,1.9364787229860667,None,1.936552794999443,1.9365787679853383,None,1,001,16,,2024-04-09_13h57.38.459,replicate_nsd,2023.2.3,59.874111202892585,2024-04-09 13h57.52.165696 -0400,
images/blank.jpg,0,49,1,0,0,"[9, 19, 29, 39, 49, 59, 68, 69, 70, 71]",0,49,49,49,5.23616964899702,,,,,,,,,,,1.9368129929935094,1.936877640982857,1.9368853209889494,1.9387711979798041,None,1.9388668070023414,1.938896437000949,None,1.9389755580050405,1.9390025149914436,None,1.9390767949807923,1.9391030789993238,None,1,001,16,,2024-04-09_13h57.38.459,replicate_nsd,2023.2.3,59.874111202892585,2024-04-09 13h57.52.165696 -0400,
images/7_0 copy 3.jpg,0,50,0,0,0,"[9, 19, 29, 39, 49, 59, 68, 69, 70, 71]",0,50,50,50,5.23616964899702,,,,,,,,,,,1.939340873999754,1.9394059449841734,1.9394136540067848,1.9422580589889549,None,1.9423536809918005,1.9423829650040716,None,1.9424618110060692,1.9424890569935087,None,1.9425634169892874,1.942589054000564,None,1,001,16,,2024-04-09_13h57.38.459,replicate_nsd,2023.2.3,59.874111202892585,2024-04-09 13h57.52.165696 -0400,
images/22_12 copy 7.jpg,0,51,0,0,0,"[9, 19, 29, 39, 49, 59, 68, 69, 70, 71]",0,51,51,51,5.23616964899702,,,,,,,,,,,1.9428252359793987,1.9428896250028629,1.942897301982157,1.945359084988013,None,1.9454554560070392,1.9454850679903757,None,1.9455635749909561,1.9455906600051094,None,1.9456650739884935,1.9456914709880948,None,1,001,16,,2024-04-09_13h57.38.459,replicate_nsd,2023.2.3,59.874111202892585,2024-04-09 13h57.52.165696 -0400,
images/18_28 copy.jpg,0,52,0,0,0,"[9, 19, 29, 39, 49, 59, 68, 69, 70, 71]",0,52,52,52,5.23616964899702,,,,,,,,,,,1.9459247949998826,1.945989122003084,1.945996884984197,1.948590294981841,None,1.948686510004336,1.9487157159892377,None,1.9487949589965865,1.9488218629849143,None,1.948897472990211,1.9489236439985689,None,1,001,16,,2024-04-09_13h57.38.459,replicate_nsd,2023.2.3,59.874111202892585,2024-04-09 13h57.52.165696 -0400,
images/10_28 copy.jpg,0,53,0,0,0,"[9, 19, 29, 39, 49, 59, 68, 69, 70, 71]",0,53,53,53,5.23616964899702,,,,,,,,,,,1.9491606499941554,1.9492250419862103,1.9492327389889397,1.9516954839928076,None,1.9518021059921011,1.9518311900028493,None,1.951910814997973,1.9519382499856874,None,1.952012936992105,1.9520388169912621,None,1,001,16,,2024-04-09_13h57.38.459,replicate_nsd,2023.2.3,59.874111202892585,2024-04-09 13h57.52.165696 -0400,
images/pair11 copy 2.jpg,0,54,0,0,0,"[9, 19, 29, 39, 49, 59, 68, 69, 70, 71]",0,54,54,54,5.23616964899702,,,,,,,,,,,1.9522739139792975,1.952338895003777,1.9523467989929486,1.9556809199857526,None,1.9557637039979454,1.9557884609967005,None,1.9558566019986756,1.9558800359955058,None,1.9559440079901833,1.9559662700048648,None,1,001,16,,2024-04-09_13h57.38.459,replicate_nsd,2023.2.3,59.874111202892585,2024-04-09 13h57.52.165696 -0400,
images/15_0.jpg,0,55,0,0,0,"[9, 19, 29, 39, 49, 59, 68, 69, 70, 71]",0,55,55,55,5.23616964899702,,,,,,,,,,,1.9562016109994147,1.9562572689901572,1.9562640679941978,1.9589740090013947,None,1.9590571640001144,1.9590824519982561,None,1.9591502959956415,1.9591733980050776,None,1.9592376200016588,1.9592598589952104,None,1,001,16,,2024-04-09_13h57.38.459,replicate_nsd,2023.2.3,59.874111202892585,2024-04-09 13h57.52.165696 -0400,
images/15_12 copy 3.jpg,0,56,0,0,0,"[9, 19, 29, 39, 49, 59, 68, 69, 70, 71]",0,56,56,56,5.23616964899702,,,,,,,,,,,1.9594640449795406,1.9595190229883883,1.9595255799940787,1.9622619019937702,None,1.962343659979524,1.9623693540052045,None,1.9624368140066508,1.9624605049903039,None,1.9625247599906288,1.9625470839964692,None,1,001,16,,2024-04-09_13h57.38.459,replicate_nsd,2023.2.3,59.874111202892585,2024-04-09 13h57.52.165696 -0400,
images/18_40 copy 4.jpg,0,57,0,0,0,"[9, 19, 29, 39, 49, 59, 68, 69, 70, 71]",0,57,57,57,5.23616964899702,,,,,,,,,,,1.962753341998905,1.9628089960024226,1.9628155159880407,1.9652126769942697,None,1.9652954469784163,1.9653205679787789,None,1.9653883919818327,1.965411885001231,None,1.9654765209998004,1.9654985009983648,None,1,001,16,,2024-04-09_13h57.38.459,replicate_nsd,2023.2.3,59.874111202892585,2024-04-09 13h57.52.165696 -0400,
images/23_28 copy 3.jpg,0,58,0,0,0,"[9, 19, 29, 39, 49, 59, 68, 69, 70, 71]",0,58,58,58,5.23616964899702,,,,,,,,,,,1.9657074529968668,1.965763143991353,1.965769754984649,1.968523119983729,None,1.9686051959870383,1.9686305960058235,None,1.9686978879908565,1.9687215059821028,None,1.9687857849930879,1.9688095549936406,None,1,001,16,,2024-04-09_13h57.38.459,replicate_nsd,2023.2.3,59.874111202892585,2024-04-09 13h57.52.165696 -0400,
images/blank.jpg,0,59,1,0,0,"[9, 19, 29, 39, 49, 59, 68, 69, 70, 71]",0,59,59,59,5.23616964899702,,,,,,,,,,,1.9690134119882714,1.9690692010044586,1.9690758509968873,1.9706548120011576,None,1.9707371179829352,1.9707619459950365,None,1.9708290389971808,1.9708523970039096,None,1.9709160669881385,1.9709382749861106,None,1,001,16,,2024-04-09_13h57.38.459,replicate_nsd,2023.2.3,59.874111202892585,2024-04-09 13h57.52.165696 -0400,
images/15_28 copy 4.jpg,0,60,0,0,0,"[9, 19, 29, 39, 49, 59, 68, 69, 70, 71]",0,60,60,60,5.23616964899702,,,,,,,,,,,1.9711411799944472,1.9711959679843858,1.9712023969914299,1.9735849410062656,None,1.9736673109873664,1.973692380997818,None,1.973760338005377,1.9737834369880147,None,1.9738473239995074,1.9738694179977756,None,1,001,16,,2024-04-09_13h57.38.459,replicate_nsd,2023.2.3,59.874111202892585,2024-04-09 13h57.52.165696 -0400,
images/6_40 copy.jpg,0,61,0,0,0,"[9, 19, 29, 39, 49, 59, 68, 69, 70, 71]",0,61,61,61,5.23616964899702,,,,,,,,,,,1.9740732829959597,1.9741288509976584,1.9741356169979554,1.9765106189879589,None,1.9765921770012937,1.9766174709948245,None,1.9766848239814863,1.9767082299804315,None,1.9767720229865517,1.9767942869802937,None,1,001,16,,2024-04-09_13h57.38.459,replicate_nsd,2023.2.3,59.874111202892585,2024-04-09 13h57.52.165696 -0400,
images/13_28.jpg,0,62,0,0,0,"[9, 19, 29, 39, 49, 59, 68, 69, 70, 71]",0,62,62,62,5.23616964899702,,,,,,,,,,,1.976995482982602,1.9770508490037173,1.977057493000757,1.9796339320018888,None,1.9797163979965262,1.9797410799947102,None,1.9798085409856867,1.9798315920052119,None,1.9798961250053253,1.9799180819827598,None,1,001,16,,2024-04-09_13h57.38.459,replicate_nsd,2023.2.3,59.874111202892585,2024-04-09 13h57.52.165696 -0400,
images/24_0 copy 7.jpg,0,63,0,0,0,"[9, 19, 29, 39, 49, 59, 68, 69, 70, 71]",0,63,63,63,5.23616964899702,,,,,,,,,,,1.9801229199802037,1.9801785110030323,1.9801850880030543,1.9828565969946794,None,1.9829382169991732,1.982963207992725,None,1.9830298429878894,1.9830533379863482,None,1.9831172789854463,1.9831395289802458,None,1,001,16,,2024-04-09_13h57.38.459,replicate_nsd,2023.2.3,59.874111202892585,2024-04-09 13h57.52.165696 -0400,
images/5_12 copy 7.jpg,0,64,0,0,0,"[9, 19, 29, 39, 49, 59, 68, 69, 70, 71]",0,64,64,64,5.23616964899702,,,,,,,,,,,1.983341532992199,1.9833974280045368,1.9834041199937928,1.9859925060009118,None,1.9860750539810397,1.9861002179968636,None,1.9861675129795913,1.9861908559978474,None,1.9862547100055963,1.9862770210020244,None,1,001,16,,2024-04-09_13h57.38.459,replicate_nsd,2023.2.3,59.874111202892585,2024-04-09 13h57.52.165696 -0400,
images/18_0 copy.jpg,0,65,0,0,0,"[9, 19, 29, 39, 49, 59, 68, 69, 70, 71]",0,65,65,65,5.23616964899702,,,,,,,,,,,1.9864819299837109,1.9865377160022035,1.9865443479793612,1.9891487509885337,None,1.9892312209994998,1.9892561899905559,None,1.9893234680057503,1.9893469259841368,None,1.989410763984779,1.9894333749834914,None,1,001,16,,2024-04-09_13h57.38.459,replicate_nsd,2023.2.3,59.874111202892585,2024-04-09 13h57.52.165696 -0400,
images/pair13 copy 7.jpg,0,66,0,0,0,"[9, 19, 29, 39, 49, 59, 68, 69, 70, 71]",0,66,66,66,5.23616964899702,,,,,,,,,,,1.9896363930020016,1.989692050992744,1.989698719989974,1.9928250589873642,None,1.992907979991287,1.992933526984416,None,1.9930029099923559,1.9930263749847654,None,1.9930907499801833,1.9931132750061806,None,1,001,16,,2024-04-09_13h57.38.459,replicate_nsd,2023.2.3,59.874111202892585,2024-04-09 13h57.52.165696 -0400,
images/18_40 copy 2.jpg,0,67,0,0,0,"[9, 19, 29, 39, 49, 59, 68, 69, 70, 71]",0,67,67,67,5.23616964899702,,,,,,,,,,,1.9933170230069663,1.9933721529960167,1.9933789539791178,1.9961851209809538,None,1.996268839982804,1.996293596981559,None,1.9963615659798961,1.996384562982712,None,1.9964485359960236,1.9964708809857257,None,1,001,16,,2024-04-09_13h57.38.459,replicate_nsd,2023.2.3,59.874111202892585,2024-04-09 13h57.52.165696 -0400,
images/blank.jpg,0,68,1,0,0,"[9, 19, 29, 39, 49, 59, 68, 69, 70, 71]",0,68,68,68,5.23616964899702,,,,,,,,,,,1.9966742479882669,1.996730237005977,1.9967369239893742,1.9986431509896647,None,1.9987253319995943,1.9987502800067887,None,1.998818736989051,1.9988421000016388,None,1.9989062050008215,1.998928316985257,None,1,001,16,,2024-04-09_13h57.38.459,replicate_nsd,2023.2.3,59.874111202892585,2024-04-09 13h57.52.165696 -0400,
images/blank.jpg,0,69,1,0,0,"[9, 19, 29, 39, 49, 59, 68, 69, 70, 71]",0,69,69,69,5.23616964899702,,,,,,,,,,,1.9991319729888346,1.9991876319982111,1.9991942360065877,2.0008019899833016,None,2.0008843889809214,2.0009097190049943,None,2.000976818992058,2.001000435993774,None,2.001064079988282,2.0010860360052902,None,1,001,16,,2024-04-09_13h57.38.459,replicate_nsd,2023.2.3,59.874111202892585,2024-04-09 13h57.52.165696 -0400,
images/blank.jpg,0,70,1,0,0,"[9, 19, 29, 39, 49, 59, 68, 69, 70, 71]",0,70,70,70,5.23616964899702,,,,,,,,,,,2.001288042985834,2.0013432939886115,2.001349864003714,2.0030469670018647,None,2.0031291359919123,2.003154320002068,None,2.003221800987376,2.0032455369946547,None,2.003309444000479,2.0033321020018775,None,1,001,16,,2024-04-09_13h57.38.459,replicate_nsd,2023.2.3,59.874111202892585,2024-04-09 13h57.52.165696 -0400,
images/blank.jpg,0,71,1,1,0,"[9, 19, 29, 39, 49, 59, 68, 69, 70, 71]",0,71,71,71,5.23616964899702,,,,,,,,,,,2.0035357299784664,2.003591354994569,2.003597976989113,2.0053320709848776,None,2.0054151020012796,2.0054404829861596,None,2.005508692993317,2.005531881004572,None,2.00559603900183,2.0056184270069934,None,1,001,16,,2024-04-09_13h57.38.459,replicate_nsd,2023.2.3,59.874111202892585,2024-04-09 13h57.52.165696 -0400,
images/22_40 copy.jpg,0,0,0,0,1,"[9, 19, 31, 42, 56, 68, 69, 70, 71]",0,72,72,72,5.23616964899702,,,,,,,,,,,2.005821875005495,2.005877806979697,2.005884434998734,2.0077609540021513,None,2.0078444049868267,2.00786959999823,None,2.007937716000015,2.0079613720008638,None,2.0080263550044037,2.0080484070058446,None,1,001,16,,2024-04-09_13h57.38.459,replicate_nsd,2023.2.3,59.874111202892585,2024-04-09 13h57.52.165696 -0400,
images/8_0 copy 3.jpg,0,1,0,0,1,"[9, 19, 31, 42, 56, 68, 69, 70, 71]",0,73,73,73,5.23616964899702,,,,,,,,,,,2.0082526189798955,2.0083083389909007,2.008315060986206,2.0109113229846116,None,2.010993433999829,2.0110183439974207,None,2.011086365993833,2.011109768995084,None,2.0111744019959588,2.0111964590032585,None,1,001,16,,2024-04-09_13h57.38.459,replicate_nsd,2023.2.3,59.874111202892585,2024-04-09 13h57.52.165696 -0400,
images/14_0 copy 2.jpg,0,2,0,0,1,"[9, 19, 31, 42, 56, 68, 69, 70, 71]",0,74,74,74,5.23616964899702,,,,,,,,,,,2.011399413982872,2.0114545130054466,2.0114611519966274,2.0140393920009956,None,2.0141214469913393,2.0141466679924633,None,2.0142452489817515,2.0142695480026305,None,2.014334235980641,2.0143566349870525,None,1,001,16,,2024-04-09_13h57.38.459,replicate_nsd,2023.2.3,59.874111202892585,2024-04-09 13h57.52.165696 -0400,
images/5_28 copy 3.jpg,0,3,0,0,1,"[9, 19, 31, 42, 56, 68, 69, 70, 71]",0,75,75,75,5.23616964899702,,,,,,,,,,,2.0145608549937606,2.014616244996432,2.0146229339879937,2.0172499909822363,None,2.017332344985334,2.017357823991915,None,2.0174255259917118,2.017448864004109,None,2.0175127440015785,2.0175351049983874,None,1,001,16,,2024-04-09_13h57.38.459,replicate_nsd,2023.2.3,59.874111202892585,2024-04-09 13h57.52.165696 -0400,
images/20_28 copy 4.jpg,0,4,0,0,1,"[9, 19, 31, 42, 56, 68, 69, 70, 71]",0,76,76,76,5.23616964899702,,,,,,,,,,,2.0177371710014995,2.017792862985516,2.017799542983994,2.019701190001797,None,2.0197837759915274,2.0198090249905363,None,2.0198766029789113,2.0199002489971463,None,2.019964228005847,2.0199882930028252,None,1,001,16,,2024-04-09_13h57.38.459,replicate_nsd,2023.2.3,59.874111202892585,2024-04-09 13h57.52.165696 -0400,
images/8_0 copy.jpg,0,5,0,0,1,"[9, 19, 31, 42, 56, 68, 69, 70, 71]",0,77,77,77,5.23616964899702,,,,,,,,,,,2.020191158982925,2.020246468979167,2.020253094000509,2.0225467669952195,None,2.022634699998889,2.022659844980808,None,2.022726622002665,2.0227496220031753,None,2.0228128579910845,2.022834953997517,None,1,001,16,,2024-04-09_13h57.38.459,replicate_nsd,2023.2.3,59.874111202892585,2024-04-09 13h57.52.165696 -0400,
images/12_40 copy 3.jpg,0,6,0,0,1,"[9, 19, 31, 42, 56, 68, 69, 70, 71]",0,78,78,78,5.23616964899702,,,,,,,,,,,2.023038071987685,2.023095332988305,2.023101915983716,2.025545662996592,None,2.0256254749838263,2.025649663992226,None,2.0257155500003137,2.0257381229894236,None,2.025800512987189,2.02582194597926,None,1,001,16,,2024-04-09_13h57.38.459,replicate_nsd,2023.2.3,59.874111202892585,2024-04-09 13h57.52.165696 -0400,
images/13_40 copy 7.jpg,0,7,0,0,1,"[9, 19, 31, 42, 56, 68, 69, 70, 71]",0,79,79,79,5.23616964899702,,,,,,,,,,,2.0260201380006038,2.0260744209808763,2.0260808799939696,2.0284513309889007,None,2.0285312889900524,2.0285557819879614,None,2.0286219349945895,2.0286448219849262,None,2.02870794699993,2.028729775978718,None,1,001,16,,2024-04-09_13h57.38.459,replicate_nsd,2023.2.3,59.874111202892585,2024-04-09 13h57.52.165696 -0400,
images/15_12 copy 3.jpg,0,8,0,0,1,"[9, 19, 31, 42, 56, 68, 69, 70, 71]",0,80,80,80,5.23616964899702,,,,,,,,,,,2.028927046980243,2.0289811709953938,2.028987531986786,2.030820276006125,None,2.030900482990546,2.0309246050019283,None,2.030990731989732,2.0310135780018754,None,2.0310769229836296,2.0310980920039583,None,1,001,16,,2024-04-09_13h57.38.459,replicate_nsd,2023.2.3,59.874111202892585,2024-04-09 13h57.52.165696 -0400,
images/blank.jpg,0,9,1,0,1,"[9, 19, 31, 42, 56, 68, 69, 70, 71]",0,81,81,81,5.23616964899702,,,,,,,,,,,2.031302527990192,2.031356244988274,2.0313627449795604,2.033078560983995,None,2.033158943988383,2.033183388004545,None,2.0332497089984827,2.0332725979969837,None,2.0333367879793514,2.0333586019987706,None,1,001,16,,2024-04-09_13h57.38.459,replicate_nsd,2023.2.3,59.874111202892585,2024-04-09 13h57.52.165696 -0400,
images/12_12 copy 2.jpg,0,10,0,0,1,"[9, 19, 31, 42, 56, 68, 69, 70, 71]",0,82,82,82,5.23616964899702,,,,,,,,,,,2.0335569719900377,2.0336106680042576,2.033616999979131,2.0362534529995173,None,2.0363343950011767,2.0363590359920636,None,2.036425477999728,2.036448405997362,None,2.03651067399187,2.0365324529993813,None,1,001,16,,2024-04-09_13h57.38.459,replicate_nsd,2023.2.3,59.874111202892585,2024-04-09 13h57.52.165696 -0400,
images/6_40 copy 6.jpg,0,11,0,0,1,"[9, 19, 31, 42, 56, 68, 69, 70, 71]",0,83,83,83,5.23616964899702,,,,,,,,,,,2.0367305479885545,2.036784681986319,2.036791110993363,2.0391156160039827,None,2.0391965319868177,2.039220876991749,None,2.0392865699832328,2.039309682993917,None,2.0393722580047324,2.039394163992256,None,1,001,16,,2024-04-09_13h57.38.459,replicate_nsd,2023.2.3,59.874111202892585,2024-04-09 13h57.52.165696 -0400,
images/6_28 copy 6.jpg,0,12,0,0,1,"[9, 19, 31, 42, 56, 68, 69, 70, 71]",0,84,84,84,5.23616964899702,,,,,,,,,,,2.0395931279927026,2.039646894001635,2.039653254003497,2.0423841399897356,None,2.042463632998988,2.042488229984883,None,2.042554799001664,2.04257749899989,None,2.042640620988095,2.0426620049984194,None,1,001,16,,2024-04-09_13h57.38.459,replicate_nsd,2023.2.3,59.874111202892585,2024-04-09 13h57.52.165696 -0400,
images/19_12 copy 6.jpg,0,13,0,0,1,"[9, 19, 31, 42, 56, 68, 69, 70, 71]",0,85,85,85,5.23616964899702,,,,,,,,,,,2.042860830988502,2.0429148729890585,2.042921388987452,2.0455287049990147,None,2.04560769800446,2.045631796005182,None,2.045696955989115,2.0457193369802553,None,2.0457816339912824,2.0458032820024528,None,1,001,16,,2024-04-09_13h57.38.459,replicate_nsd,2023.2.3,59.874111202892585,2024-04-09 13h57.52.165696 -0400,
images/pair08 copy.jpg,0,14,0,0,1,"[9, 19, 31, 42, 56, 68, 69, 70, 71]",0,86,86,86,5.23616964899702,,,,,,,,,,,2.045999275986105,2.046054542006459,2.046060877997661,2.0497513549926225,None,2.0498311730043497,2.04985533998115,None,2.0499217890028376,2.049944340978982,None,2.0500063939834945,2.0500279999978375,None,1,001,16,,2024-04-09_13h57.38.459,replicate_nsd,2023.2.3,59.874111202892585,2024-04-09 13h57.52.165696 -0400,
images/24_12 copy 7.jpg,0,15,0,0,1,"[9, 19, 31, 42, 56, 68, 69, 70, 71]",0,87,87,87,5.23616964899702,,,,,,,,,,,2.0502259630011395,2.0502803970011882,2.0502867509785574,2.0532488570024725,None,2.0533277670037933,2.0533543859783094,None,2.0534212269994896,2.0534444410004653,None,2.0535073280043434,2.05352943399339,None,1,001,16,,2024-04-09_13h57.38.459,replicate_nsd,2023.2.3,59.874111202892585,2024-04-09 13h57.52.165696 -0400,
images/7_12 copy 2.jpg,0,16,0,0,1,"[9, 19, 31, 42, 56, 68, 69, 70, 71]",0,88,88,88,5.23616964899702,,,,,,,,,,,2.0537290579814,2.0537825810024515,2.053789189987583,2.056265616993187,None,2.0563456179806963,2.0563700379861984,None,2.056435429985868,2.0564583569939714,None,2.0565198179974686,2.056541747006122,None,1,001,16,,2024-04-09_13h57.38.459,replicate_nsd,2023.2.3,59.874111202892585,2024-04-09 13h57.52.165696 -0400,
images/12_28 copy 5.jpg,0,17,0,0,1,"[9, 19, 31, 42, 56, 68, 69, 70, 71]",0,89,89,89,5.23616964899702,,,,,,,,,,,2.0567368250049185,2.0567907899967395,2.056797203986207,2.059061762993224,None,2.059142067999346,2.059166634979192,None,2.059232500003418,2.0592553390015382,None,2.0593178319977596,2.059339920990169,None,1,001,16,,2024-04-09_13h57.38.459,replicate_nsd,2023.2.3,59.874111202892585,2024-04-09 13h57.52.165696 -0400,
images/6_0.jpg,0,18,0,0,1,"[9, 19, 31, 42, 56, 68, 69, 70, 71]",0,90,90,90,5.23616964899702,,,,,,,,,,,2.059537459979765,2.059591705998173,2.0595980559883174,2.0619273989868816,None,2.0620070129807573,2.0620316279819235,None,2.0620971510070376,2.0621203379996587,None,2.062182894005673,2.06220467199455,None,1,001,16,,2024-04-09_13h57.38.459,replicate_nsd,2023.2.3,59.874111202892585,2024-04-09 13h57.52.165696 -0400,
images/blank.jpg,0,19,1,0,1,"[9, 19, 31, 42, 56, 68, 69, 70, 71]",0,91,91,91,5.23616964899702,,,,,,,,,,,2.0624013530032244,2.062455841980409,2.062462419999065,2.0641750039940234,None,2.0642541559936944,2.064278389996616,None,2.064343595993705,2.064366415987024,None,2.0644286049937364,2.064450339996256,None,1,001,16,,2024-04-09_13h57.38.459,replicate_nsd,2023.2.3,59.874111202892585,2024-04-09 13h57.52.165696 -0400,
images/21_12 copy.jpg,0,20,0,0,1,"[9, 19, 31, 42, 56, 68, 69, 70, 71]",0,92,92,92,5.23616964899702,,,,,,,,,,,2.0646480869909283,2.0647017839946784,2.0647082130017225,2.06700084998738,None,2.0670797569910064,2.0671041769965086,None,2.067170124995755,2.0671928619849496,None,2.067254908004543,2.0672765469935257,None,1,001,16,,2024-04-09_13h57.38.459,replicate_nsd,2023.2.3,59.874111202892585,2024-04-09 13h57.52.165696 -0400,
images/15_40.jpg,0,21,0,0,1,"[9, 19, 31, 42, 56, 68, 69, 70, 71]",0,93,93,93,5.23616964899702,,,,,,,,,,,2.0674725449935067,2.0675264509918634,2.0675330520025454,2.070149698993191,None,2.070229075005045,2.0702541079954244,None,2.070319453981938,2.070342029997846,None,2.070403546997113,2.0704255040036514,None,1,001,16,,2024-04-09_13h57.38.459,replicate_nsd,2023.2.3,59.874111202892585,2024-04-09 13h57.52.165696 -0400,
images/20_12 copy 4.jpg,0,22,0,0,1,"[9, 19, 31, 42, 56, 68, 69, 70, 71]",0,94,94,94,5.23616964899702,,,,,,,,,,,2.0706522509863134,2.0707062559959013,2.070712613989599,2.0733394919952843,None,2.073419232998276,2.0734439799853135,None,2.0735095719865058,2.073532193986466,None,2.0735939320002217,2.0736156509956345,None,1,001,16,,2024-04-09_13h57.38.459,replicate_nsd,2023.2.3,59.874111202892585,2024-04-09 13h57.52.165696 -0400,
images/12_40 copy 2.jpg,0,23,0,0,1,"[9, 19, 31, 42, 56, 68, 69, 70, 71]",0,95,95,95,5.23616964899702,,,,,,,,,,,2.0738108129880857,2.073864956997568,2.073871536005754,2.0761095130001195,None,2.0761887919798028,2.076213230000576,None,2.076279284985503,2.0763027450011577,None,2.0763648269930854,2.076387173990952,None,1,001,16,,2024-04-09_13h57.38.459,replicate_nsd,2023.2.3,59.874111202892585,2024-04-09 13h57.52.165696 -0400,
images/16_0 copy.jpg,0,24,0,0,1,"[9, 19, 31, 42, 56, 68, 69, 70, 71]",0,96,96,96,5.23616964899702,,,,,,,,,,,2.0765858629893046,2.076641032996122,2.07664744000067,2.079237041005399,None,2.079316260002088,2.0793407110031694,None,2.0794063879875466,2.079430196987232,None,2.0794917889870703,2.0795136489905417,None,1,001,16,,2024-04-09_13h57.38.459,replicate_nsd,2023.2.3,59.874111202892585,2024-04-09 13h57.52.165696 -0400,
images/15_28 copy 6.jpg,0,25,0,0,1,"[9, 19, 31, 42, 56, 68, 69, 70, 71]",0,97,97,97,5.23616964899702,,,,,,,,,,,2.0797098400071263,2.0797638520016335,2.0797702679992653,2.0821021549927536,None,2.0821818510012235,2.082206199003849,None,2.082272320985794,2.0822948809945956,None,2.0823571840010118,2.082378766994225,None,1,001,16,,2024-04-09_13h57.38.459,replicate_nsd,2023.2.3,59.874111202892585,2024-04-09 13h57.52.165696 -0400,
images/8_28 copy 5.jpg,0,26,0,0,1,"[9, 19, 31, 42, 56, 68, 69, 70, 71]",0,98,98,98,5.23616964899702,,,,,,,,,,,2.0825744689791463,2.0826289700053167,2.082635444996413,2.084887314995285,None,2.0849737169919536,2.084998503996758,None,2.085064318991499,2.085095777991228,None,2.085160418995656,2.085181874979753,None,1,001,16,,2024-04-09_13h57.38.459,replicate_nsd,2023.2.3,59.874111202892585,2024-04-09 13h57.52.165696 -0400,
images/14_28.jpg,0,27,0,0,1,"[9, 19, 31, 42, 56, 68, 69, 70, 71]",0,99,99,99,5.23616964899702,,,,,,,,,,,2.085380004980834,2.085434512991924,2.0854409849853255,2.087693709996529,None,2.0877743150049355,2.087799631000962,None,2.0878659459995106,2.0878888329898473,None,2.0879510439990554,2.0879728739964776,None,1,001,16,,2024-04-09_13h57.38.459,replicate_nsd,2023.2.3,59.874111202892585,2024-04-09 13h57.52.165696 -0400,
images/22_0 copy.jpg,0,28,0,0,1,"[9, 19, 31, 42, 56, 68, 69, 70, 71]",0,100,100,100,5.23616964899702,,,,,,,,,,,2.0881682629988063,2.088222494989168,2.0882290260051377,2.0907344319857657,None,2.090814255992882,2.0908385980001185,None,2.090904659999069,2.0909275989979506,None,2.0909906049782876,2.0910124160000123,None,1,001,16,,2024-04-09_13h57.38.459,replicate_nsd,2023.2.3,59.874111202892585,2024-04-09 13h57.52.165696 -0400,
images/9_40 copy 6.jpg,0,29,0,0,1,"[9, 19, 31, 42, 56, 68, 69, 70, 71]",0,101,101,101,5.23616964899702,,,,,,,,,,,2.09121188998688,2.0912657539884094,2.091271939978469,2.093875054997625,None,2.093954677984584,2.093979297991609,None,2.094045906997053,2.0940690930001438,None,2.0941320169949904,2.0941538859915454,None,1,001,16,,2024-04-09_13h57.38.459,replicate_nsd,2023.2.3,59.874111202892585,2024-04-09 13h57.52.165696 -0400,
images/16_12 copy 3.jpg,0,30,0,0,1,"[9, 19, 31, 42, 56, 68, 69, 70, 71]",0,102,102,102,5.23616964899702,,,,,,,,,,,2.0943499999993946,2.094404064991977,2.09441049999441,2.097031735989731,None,2.0971111249818932,2.097134837997146,None,2.097200703981798,2.0972239399852697,None,2.0972864009963814,2.0973079719988164,None,1,001,16,,2024-04-09_13h57.38.459,replicate_nsd,2023.2.3,59.874111202892585,2024-04-09 13h57.52.165696 -0400,
images/blank.jpg,0,31,1,0,1,"[9, 19, 31, 42, 56, 68, 69, 70, 71]",0,103,103,103,5.23616964899702,,,,,,,,,,,2.0975049510016106,2.09755859800498,2.097565042990027,2.0992485609895084,None,2.0993284930009395,2.099352781980997,None,2.0994182259892114,2.099441141996067,None,2.099502955999924,2.099524277000455,None,1,001,16,,2024-04-09_13h57.38.459,replicate_nsd,2023.2.3,59.874111202892585,2024-04-09 13h57.52.165696 -0400,
images/5_28 copy 3.jpg,0,32,0,0,1,"[9, 19, 31, 42, 56, 68, 69, 70, 71]",0,104,104,104,5.23616964899702,,,,,,,,,,,2.0997185680025723,2.0997730669914745,2.0997794449795038,2.101716186996782,None,2.101804813981289,2.101829959981842,None,2.1018965209950693,2.1019194099935703,None,2.101981222978793,2.1020028780039866,None,1,001,16,,2024-04-09_13h57.38.459,replicate_nsd,2023.2.3,59.874111202892585,2024-04-09 13h57.52.165696 -0400,
images/16_12 copy 7.jpg,0,33,0,0,1,"[9, 19, 31, 42, 56, 68, 69, 70, 71]",0,105,105,105,5.23616964899702,,,,,,,,,,,2.1021981799858622,2.10225258700666,2.1022588170017116,2.104613643983612,None,2.1046933220059145,2.1047182169859298,None,2.1047837839869317,2.104806635994464,None,2.1048687000002246,2.1048900979803875,None,1,001,16,,2024-04-09_13h57.38.459,replicate_nsd,2023.2.3,59.874111202892585,2024-04-09 13h57.52.165696 -0400,
images/8_40 copy 5.jpg,0,34,0,0,1,"[9, 19, 31, 42, 56, 68, 69, 70, 71]",0,106,106,106,5.23616964899702,,,,,,,,,,,2.1050887900055386,2.1051427589845844,2.1051489929959644,2.10770184698049,None,2.107781273982255,2.1078056179976556,None,2.107871371001238,2.107894522981951,None,2.1079566679836717,2.107978304993594,None,1,001,16,,2024-04-09_13h57.38.459,replicate_nsd,2023.2.3,59.874111202892585,2024-04-09 13h57.52.165696 -0400,
images/12_12 copy 4.jpg,0,35,0,0,1,"[9, 19, 31, 42, 56, 68, 69, 70, 71]",0,107,107,107,5.23616964899702,,,,,,,,,,,2.108173619984882,2.108226633979939,2.1082330719800666,2.1105146429908928,None,2.1105944250011817,2.1106190150021575,None,2.110684968996793,2.1107080539804883,None,2.1107706220063847,2.1107923939998727,None,1,001,16,,2024-04-09_13h57.38.459,replicate_nsd,2023.2.3,59.874111202892585,2024-04-09 13h57.52.165696 -0400,
images/6_12 copy 7.jpg,0,36,0,0,1,"[9, 19, 31, 42, 56, 68, 69, 70, 71]",0,108,108,108,5.23616964899702,,,,,,,,,,,2.1109899079892784,2.111044118006248,2.1110504969838075,2.1137001540046185,None,2.1137786229955964,2.1138029620051384,None,2.113868611981161,2.1138913669856265,None,2.1139534319809172,2.1139752299932297,None,1,001,16,,2024-04-09_13h57.38.459,replicate_nsd,2023.2.3,59.874111202892585,2024-04-09 13h57.52.165696 -0400,
images/8_12.jpg,0,37,0,0,1,"[9, 19, 31, 42, 56, 68, 69, 70, 71]",0,109,109,109,5.23616964899702,,,,,,,,,,,2.114172076981049,2.1142260640044697,2.1142325599794276,2.1168256560049485,None,2.1169050489843357,2.1169295919826254,None,2.1169949930044822,2.117018104996532,None,2.117080467985943,2.117102543998044,None,1,001,16,,2024-04-09_13h57.38.459,replicate_nsd,2023.2.3,59.874111202892585,2024-04-09 13h57.52.165696 -0400,
images/14_0 copy 6.jpg,0,38,0,0,1,"[9, 19, 31, 42, 56, 68, 69, 70, 71]",0,110,110,110,5.23616964899702,,,,,,,,,,,2.1173009839840233,2.1173547199869063,2.1173611309786793,2.119797988998471,None,2.1198773350042757,2.119901462981943,None,2.119967164006084,2.1199898599879816,None,2.120052420999855,2.1200742579821963,None,1,001,16,,2024-04-09_13h57.38.459,replicate_nsd,2023.2.3,59.874111202892585,2024-04-09 13h57.52.165696 -0400,
images/17_12 copy 2.jpg,0,39,0,0,1,"[9, 19, 31, 42, 56, 68, 69, 70, 71]",0,111,111,111,5.23616964899702,,,,,,,,,,,2.120268351980485,2.120321502996376,2.120327885990264,2.1226395739940926,None,2.1227194030070677,2.1227439399808645,None,2.1228100009902846,2.1228329830046277,None,2.1228956599952653,2.122917303990107,None,1,001,16,,2024-04-09_13h57.38.459,replicate_nsd,2023.2.3,59.874111202892585,2024-04-09 13h57.52.165696 -0400,
images/pair11 copy 7.jpg,0,40,0,0,1,"[9, 19, 31, 42, 56, 68, 69, 70, 71]",0,112,112,112,5.23616964899702,,,,,,,,,,,2.1231164729979355,2.123170659004245,2.1231772319879383,2.1264971359923948,None,2.1265798379899934,2.1266049059922807,None,2.1266731380019337,2.1266966440016404,None,2.1267617629782762,2.126784295978723,None,1,001,16,,2024-04-09_13h57.38.459,replicate_nsd,2023.2.3,59.874111202892585,2024-04-09 13h57.52.165696 -0400,
images/21_40 copy.jpg,0,41,0,0,1,"[9, 19, 31, 42, 56, 68, 69, 70, 71]",0,113,113,113,5.23616964899702,,,,,,,,,,,2.1270220179867465,2.127077113982523,2.1270838399941567,2.129925852001179,None,2.1300079679931514,2.130033066001488,None,2.130101108981762,2.1301243279885966,None,2.1301887849986088,2.13021115999436,None,1,001,16,,2024-04-09_13h57.38.459,replicate_nsd,2023.2.3,59.874111202892585,2024-04-09 13h57.52.165696 -0400,
images/blank.jpg,0,42,1,0,1,"[9, 19, 31, 42, 56, 68, 69, 70, 71]",0,114,114,114,5.23616964899702,,,,,,,,,,,2.1304143619781826,2.1304695759899914,2.1304762630024925,2.13236709398916,None,2.132449208991602,2.1324745540041476,None,2.1325419929926284,2.132565170992166,None,2.1326299849897623,2.132652105006855,None,1,001,16,,2024-04-09_13h57.38.459,replicate_nsd,2023.2.3,59.874111202892585,2024-04-09 13h57.52.165696 -0400,
images/18_0 copy 2.jpg,0,43,0,0,1,"[9, 19, 31, 42, 56, 68, 69, 70, 71]",0,115,115,115,5.23616964899702,,,,,,,,,,,2.132853825984057,2.1329099199792836,2.1329165149945766,2.135208164982032,None,2.1352901840000413,2.135315419989638,None,2.1353832820022944,2.1354068359942175,None,2.135471276997123,2.135493765003048,None,1,001,16,,2024-04-09_13h57.38.459,replicate_nsd,2023.2.3,59.874111202892585,2024-04-09 13h57.52.165696 -0400,
images/8_40 copy 2.jpg,0,44,0,0,1,"[9, 19, 31, 42, 56, 68, 69, 70, 71]",0,116,116,116,5.23616964899702,,,,,,,,,,,2.1356975229864474,2.1357536209980026,2.1357602489879355,2.138057732983725,None,2.1381397990044206,2.1381652370037045,None,2.138232892000815,2.138256209989777,None,2.138320069992915,2.1383425389940385,None,1,001,16,,2024-04-09_13h57.38.459,replicate_nsd,2023.2.3,59.874111202892585,2024-04-09 13h57.52.165696 -0400,
images/7_12 copy 5.jpg,0,45,0,0,1,"[9, 19, 31, 42, 56, 68, 69, 70, 71]",0,117,117,117,5.23616964899702,,,,,,,,,,,2.138543943001423,2.1385999209887814,2.138606559979962,2.1409552739933133,None,2.1410378239816055,2.1410625980061013,None,2.1411309230024926,2.1411543659924064,None,2.141218029981246,2.141240465978626,None,1,001,16,,2024-04-09_13h57.38.459,replicate_nsd,2023.2.3,59.874111202892585,2024-04-09 13h57.52.165696 -0400,
images/10_12 copy 7.jpg,0,46,0,0,1,"[9, 19, 31, 42, 56, 68, 69, 70, 71]",0,118,118,118,5.23616964899702,,,,,,,,,,,2.1414435479964595,2.1414990129997022,2.141505690990016,2.1440366199822165,None,2.1441186489828397,2.1441438219917472,None,2.1442116649996024,2.1442347219854128,None,2.144298675993923,2.1443211309961043,None,1,001,16,,2024-04-09_13h57.38.459,replicate_nsd,2023.2.3,59.874111202892585,2024-04-09 13h57.52.165696 -0400,
images/23_12 copy 3.jpg,0,47,0,0,1,"[9, 19, 31, 42, 56, 68, 69, 70, 71]",0,119,119,119,5.23616964899702,,,,,,,,,,,2.144522661983501,2.1445776619948447,2.144584321998991,2.1472842929943,None,2.147365965996869,2.147391234000679,None,2.147458291001385,2.1474819379800465,None,2.1475456559855957,2.1475678179995157,None,1,001,16,,2024-04-09_13h57.38.459,replicate_nsd,2023.2.3,59.874111202892585,2024-04-09 13h57.52.165696 -0400,
images/pair18 copy 4.jpg,0,48,0,0,1,"[9, 19, 31, 42, 56, 68, 69, 70, 71]",0,120,120,120,5.23616964899702,,,,,,,,,,,2.1477677429793403,2.147823746985523,2.147830192989204,2.1514339209825266,None,2.1515160480048507,2.151540964987362,None,2.1516152969852556,2.1516390570031945,None,2.151703818992246,2.151725992996944,None,1,001,16,,2024-04-09_13h57.38.459,replicate_nsd,2023.2.3,59.874111202892585,2024-04-09 13h57.52.165696 -0400,
images/10_0 copy 3.jpg,0,49,0,0,1,"[9, 19, 31, 42, 56, 68, 69, 70, 71]",0,121,121,121,5.23616964899702,,,,,,,,,,,2.1519396670046262,2.151995085994713,2.152001909998944,2.1549727949895896,None,2.155054898990784,2.1550798609969206,None,2.1551476400054526,2.1551705749880057,None,2.155234171979828,2.1552561729913577,None,1,001,16,,2024-04-09_13h57.38.459,replicate_nsd,2023.2.3,59.874111202892585,2024-04-09 13h57.52.165696 -0400,
images/9_0 copy 5.jpg,0,50,0,0,1,"[9, 19, 31, 42, 56, 68, 69, 70, 71]",0,122,122,122,5.23616964899702,,,,,,,,,,,2.1554588839935604,2.155513671983499,2.1555204459873494,2.1580173679976724,None,2.158099863998359,2.1581248279835563,None,2.1581919780001044,2.158215498988284,None,2.158278610004345,2.158301057992503,None,1,001,16,,2024-04-09_13h57.38.459,replicate_nsd,2023.2.3,59.874111202892585,2024-04-09 13h57.52.165696 -0400,
images/pair04 copy 4.jpg,0,51,0,0,1,"[9, 19, 31, 42, 56, 68, 69, 70, 71]",0,123,123,123,5.23616964899702,,,,,,,,,,,2.1585037320037372,2.1585593599884305,2.1585659609991126,2.161766742996406,None,2.1618491929839365,2.1618740260018967,None,2.161941765982192,2.1619648709893227,None,2.162028371996712,2.1620509719941765,None,1,001,16,,2024-04-09_13h57.38.459,replicate_nsd,2023.2.3,59.874111202892585,2024-04-09 13h57.52.165696 -0400,
images/8_0 copy 6.jpg,0,52,0,0,1,"[9, 19, 31, 42, 56, 68, 69, 70, 71]",0,124,124,124,5.23616964899702,,,,,,,,,,,2.162254088994814,2.162309526000172,2.162316161993658,2.165143823978724,None,2.165225750999525,2.1652504990051966,None,2.165317926002899,2.1653409999853466,None,2.165403997991234,2.1654259389906656,None,1,001,16,,2024-04-09_13h57.38.459,replicate_nsd,2023.2.3,59.874111202892585,2024-04-09 13h57.52.165696 -0400,
images/5_0 copy 2.jpg,0,53,0,0,1,"[9, 19, 31, 42, 56, 68, 69, 70, 71]",0,125,125,125,5.23616964899702,,,,,,,,,,,2.1656282829935662,2.1656834179884754,2.1656900189991575,2.168424685980426,None,2.1685064990015235,2.1685311929904856,None,2.168598705000477,2.1686222569842357,None,2.16868626899668,2.1687086309830192,None,1,001,16,,2024-04-09_13h57.38.459,replicate_nsd,2023.2.3,59.874111202892585,2024-04-09 13h57.52.165696 -0400,
images/pair01 copy 7.jpg,0,54,0,0,1,"[9, 19, 31, 42, 56, 68, 69, 70, 71]",0,126,126,126,5.23616964899702,,,,,,,,,,,2.1689133449981455,2.1689689710037783,2.168975529988529,2.172451396007091,None,2.172534398006974,2.1725593929877505,None,2.172627202991862,2.1726502740057185,None,2.1727149520011153,2.1727370070002507,None,1,001,16,,2024-04-09_13h57.38.459,replicate_nsd,2023.2.3,59.874111202892585,2024-04-09 13h57.52.165696 -0400,
images/11_28.jpg,0,55,0,0,1,"[9, 19, 31, 42, 56, 68, 69, 70, 71]",0,127,127,127,5.23616964899702,,,,,,,,,,,2.172939857991878,2.1729954009933863,2.173002138006268,2.176102228986565,None,2.1761844419816043,2.1762091139971744,None,2.1762772819784004,2.1763003800006118,None,2.176363821985433,2.1763864409876987,None,1,001,16,,2024-04-09_13h57.38.459,replicate_nsd,2023.2.3,59.874111202892585,2024-04-09 13h57.52.165696 -0400,
images/blank.jpg,0,56,1,0,1,"[9, 19, 31, 42, 56, 68, 69, 70, 71]",0,128,128,128,5.23616964899702,,,,,,,,,,,2.1765886749781203,2.1766439609928057,2.1766505949781276,2.178617128985934,None,2.1786999839823693,2.1787256289971992,None,2.178793462982867,2.1788169439823832,None,2.178881578001892,2.178904058993794,None,1,001,16,,2024-04-09_13h57.38.459,replicate_nsd,2023.2.3,59.874111202892585,2024-04-09 13h57.52.165696 -0400,
images/18_28 copy 7.jpg,0,57,0,0,1,"[9, 19, 31, 42, 56, 68, 69, 70, 71]",0,129,129,129,5.23616964899702,,,,,,,,,,,2.1791055820067413,2.179160935978871,2.1791674830019474,2.1814715689979494,None,2.181553200003691,2.1815785089856945,None,2.1816463439899962,2.1816700779891107,None,2.1817338349937927,2.18175582200638,None,1,001,16,,2024-04-09_13h57.38.459,replicate_nsd,2023.2.3,59.874111202892585,2024-04-09 13h57.52.165696 -0400,
images/16_28 copy 7.jpg,0,58,0,0,1,"[9, 19, 31, 42, 56, 68, 69, 70, 71]",0,130,130,130,5.23616964899702,,,,,,,,,,,2.1819571479863953,2.1820123420038726,2.182019103987841,2.1843471649917774,None,2.184429655986605,2.18445484698168,None,2.1845218550006393,2.1845454949943814,None,2.184608738985844,2.1846312429988757,None,1,001,16,,2024-04-09_13h57.38.459,replicate_nsd,2023.2.3,59.874111202892585,2024-04-09 13h57.52.165696 -0400,
images/20_0 copy 4.jpg,0,59,0,0,1,"[9, 19, 31, 42, 56, 68, 69, 70, 71]",0,131,131,131,5.23616964899702,,,,,,,,,,,2.1848332840017974,2.1848887630039826,2.1848954239976592,2.18753987699165,None,2.1876217079989146,2.187646906997543,None,2.1877152069937438,2.1877386639826,None,2.187802875007037,2.187824805994751,None,1,001,16,,2024-04-09_13h57.38.459,replicate_nsd,2023.2.3,59.874111202892585,2024-04-09 13h57.52.165696 -0400,
images/7_40 copy.jpg,0,60,0,0,1,"[9, 19, 31, 42, 56, 68, 69, 70, 71]",0,132,132,132,5.23616964899702,,,,,,,,,,,2.18802848100313,2.188084577996051,2.1880911119806115,2.190827493002871,None,2.1909094659786206,2.190934638987528,None,2.1910025760007557,2.1910258129937574,None,2.1910893080057576,2.19111143698683,None,1,001,16,,2024-04-09_13h57.38.459,replicate_nsd,2023.2.3,59.874111202892585,2024-04-09 13h57.52.165696 -0400,
images/21_40 copy 6.jpg,0,61,0,0,1,"[9, 19, 31, 42, 56, 68, 69, 70, 71]",0,133,133,133,5.23616964899702,,,,,,,,,,,2.1913136469956953,2.1913689579814672,2.1913756190042477,2.193728355981875,None,2.1938100309926085,2.193835121986922,None,2.1939027259941213,2.1939259890059475,None,2.193989621999208,2.1940118909988087,None,1,001,16,,2024-04-09_13h57.38.459,replicate_nsd,2023.2.3,59.874111202892585,2024-04-09 13h57.52.165696 -0400,
images/19_0 copy 5.jpg,0,62,0,0,1,"[9, 19, 31, 42, 56, 68, 69, 70, 71]",0,134,134,134,5.23616964899702,,,,,,,,,,,2.194213682989357,2.1942684829991776,2.194274993002182,2.1968799360038247,None,2.196962096990319,2.1969870759930927,None,2.1970547270029783,2.1970778910035733,None,2.1971411959966645,2.1971636899979785,None,1,001,16,,2024-04-09_13h57.38.459,replicate_nsd,2023.2.3,59.874111202892585,2024-04-09 13h57.52.165696 -0400,
images/14_40 copy 2.jpg,0,63,0,0,1,"[9, 19, 31, 42, 56, 68, 69, 70, 71]",0,135,135,135,5.23616964899702,,,,,,,,,,,2.1973649889987428,2.1974204760044813,2.1974271789949853,2.199763365002582,None,2.1998448509839363,2.1998694209905807,None,2.1999361519992817,2.1999597149842884,None,2.200023761979537,2.2000460359849967,None,1,001,16,,2024-04-09_13h57.38.459,replicate_nsd,2023.2.3,59.874111202892585,2024-04-09 13h57.52.165696 -0400,
images/7_40 copy 6.jpg,0,64,0,0,1,"[9, 19, 31, 42, 56, 68, 69, 70, 71]",0,136,136,136,5.23616964899702,,,,,,,,,,,2.2002473099855706,2.200303427001927,2.200310015003197,2.2027834210020956,None,2.202864991995739,2.2028897480049636,None,2.2029573549807537,2.2029809189843945,None,2.2030450479942374,2.203067160997307,None,1,001,16,,2024-04-09_13h57.38.459,replicate_nsd,2023.2.3,59.874111202892585,2024-04-09 13h57.52.165696 -0400,
images/11_0 copy 5.jpg,0,65,0,0,1,"[9, 19, 31, 42, 56, 68, 69, 70, 71]",0,137,137,137,5.23616964899702,,,,,,,,,,,2.2032682319986634,2.203323436988285,2.2033300879993476,2.205584968003677,None,2.2056662359973416,2.2056912090047263,None,2.205758509982843,2.205781836004462,None,2.2058462949935347,2.2058688679826446,None,1,001,16,,2024-04-09_13h57.38.459,replicate_nsd,2023.2.3,59.874111202892585,2024-04-09 13h57.52.165696 -0400,
images/9_40 copy 3.jpg,0,66,0,0,1,"[9, 19, 31, 42, 56, 68, 69, 70, 71]",0,138,138,138,5.23616964899702,,,,,,,,,,,2.206070688989712,2.2061257640016265,2.2061323969974183,2.208503069996368,None,2.208584821986733,2.2086100059968885,None,2.2086775369825773,2.2087009929819033,None,2.2087646730069537,2.2087868459930178,None,1,001,16,,2024-04-09_13h57.38.459,replicate_nsd,2023.2.3,59.874111202892585,2024-04-09 13h57.52.165696 -0400,
images/pair01 copy 2.jpg,0,67,0,0,1,"[9, 19, 31, 42, 56, 68, 69, 70, 71]",0,139,139,139,5.23616964899702,,,,,,,,,,,2.208986993005965,2.2090420669992454,2.209048585005803,2.2125373409944586,None,2.2126195220043883,2.2126443609886337,None,2.212711334985215,2.2127345129847527,None,2.212797813990619,2.2128198799910024,None,1,001,16,,2024-04-09_13h57.38.459,replicate_nsd,2023.2.3,59.874111202892585,2024-04-09 13h57.52.165696 -0400,
images/blank.jpg,0,68,1,0,1,"[9, 19, 31, 42, 56, 68, 69, 70, 71]",0,140,140,140,5.23616964899702,,,,,,,,,,,2.213022709998768,2.213083143986296,2.2130899709882215,2.215321170981042,None,2.21540300999186,2.2154276439978275,None,2.2154954409925267,2.2155188680044375,None,2.2155825999798253,2.2156050310004503,None,1,001,16,,2024-04-09_13h57.38.459,replicate_nsd,2023.2.3,59.874111202892585,2024-04-09 13h57.52.165696 -0400,
images/blank.jpg,0,69,1,0,1,"[9, 19, 31, 42, 56, 68, 69, 70, 71]",0,141,141,141,5.23616964899702,,,,,,,,,,,2.215806677006185,2.2158620069967583,2.215868604980642,2.217770126997493,None,2.2178513329999987,2.2178765989956446,None,2.2179443359782454,2.217967653996311,None,2.2180317549791653,2.2180538969987538,None,1,001,16,,2024-04-09_13h57.38.459,replicate_nsd,2023.2.3,59.874111202892585,2024-04-09 13h57.52.165696 -0400,
images/blank.jpg,0,70,1,0,1,"[9, 19, 31, 42, 56, 68, 69, 70, 71]",0,142,142,142,5.23616964899702,,,,,,,,,,,2.2182536329783034,2.218319748993963,2.2183264269842766,2.220130887988489,None,2.2202128199860454,2.2202379439841025,None,2.220304874004796,2.2203283419949003,None,2.220392315997742,2.220414652983891,None,1,001,16,,2024-04-09_13h57.38.459,replicate_nsd,2023.2.3,59.874111202892585,2024-04-09 13h57.52.165696 -0400,
images/blank.jpg,0,71,1,1,1,"[9, 19, 31, 42, 56, 68, 69, 70, 71]",0,143,143,143,5.23616964899702,,,,,,,,,,,2.2206179659988265,2.220673278992763,2.220679983001901,2.2224312360049225,None,2.2225132699823007,2.222538479982177,None,2.2226048599986825,2.2226287569792476,None,2.222692782001104,2.2227155129949097,None,1,001,16,,2024-04-09_13h57.38.459,replicate_nsd,2023.2.3,59.874111202892585,2024-04-09 13h57.52.165696 -0400,
images/15_28.jpg,0,0,0,0,2,"[9, 19, 29, 39, 49, 59, 68, 69, 70, 71]",0,144,144,144,5.23616964899702,,,,,,,,,,,2.222917602979578,2.222973013005685,2.2229797879990656,2.22539722698275,None,2.225478716980433,2.2255038050061557,None,2.225570009002695,2.2255930969840847,None,2.225656155991601,2.225678008981049,None,1,001,16,,2024-04-09_13h57.38.459,replicate_nsd,2023.2.3,59.874111202892585,2024-04-09 13h57.52.165696 -0400,
images/pair09 copy 7.jpg,0,1,0,0,2,"[9, 19, 29, 39, 49, 59, 68, 69, 70, 71]",0,145,145,145,5.23616964899702,,,,,,,,,,,2.225878326979,2.2259328569925856,2.225939487980213,2.229344110994134,None,2.2294259679911193,2.2294526459882036,None,2.2295212500030175,2.2295447299838997,None,2.2296090589952655,2.2296313619881403,None,1,001,16,,2024-04-09_13h57.38.459,replicate_nsd,2023.2.3,59.874111202892585,2024-04-09 13h57.52.165696 -0400,
images/16_28 copy 6.jpg,0,2,0,0,2,"[9, 19, 29, 39, 49, 59, 68, 69, 70, 71]",0,146,146,146,5.23616964899702,,,,,,,,,,,2.229835998994531,2.2298909740056843,2.229897668992635,2.2323575769842137,None,2.232439585000975,2.232464718981646,None,2.2325319689989556,2.2325547819782514,None,2.232618982990971,2.232641402981244,None,1,001,16,,2024-04-09_13h57.38.459,replicate_nsd,2023.2.3,59.874111202892585,2024-04-09 13h57.52.165696 -0400,
images/16_12 copy 3.jpg,0,3,0,0,2,"[9, 19, 29, 39, 49, 59, 68, 69, 70, 71]",0,147,147,147,5.23616964899702,,,,,,,,,,,2.232844190992182,2.2328990770038217,2.2329057099996135,2.2349939679843374,None,2.235082531988155,2.2351084529946093,None,2.2351772459805943,2.2352003020059783,None,2.235264274000656,2.235286166978767,None,1,001,16,,2024-04-09_13h57.38.459,replicate_nsd,2023.2.3,59.874111202892585,2024-04-09 13h57.52.165696 -0400,
images/13_12.jpg,0,4,0,0,2,"[9, 19, 29, 39, 49, 59, 68, 69, 70, 71]",0,148,148,148,5.23616964899702,,,,,,,,,,,2.2354890709975734,2.2355452079791576,2.2355518179829232,2.238176854007179,None,2.238258175988449,2.238283065991709,None,2.238349698978709,2.2383732839953154,None,2.238436196988914,2.2384589499852154,None,1,001,16,,2024-04-09_13h57.38.459,replicate_nsd,2023.2.3,59.874111202892585,2024-04-09 13h57.52.165696 -0400,
images/14_28 copy 7.jpg,0,5,0,0,2,"[9, 19, 29, 39, 49, 59, 68, 69, 70, 71]",0,149,149,149,5.23616964899702,,,,,,,,,,,2.238661091978429,2.2387165169930086,2.238723143993411,2.240996427979553,None,2.2410782630031463,2.2411032849922776,None,2.2411703399848193,2.2411937690048944,None,2.241257516987389,2.2412799949815962,None,1,001,16,,2024-04-09_13h57.38.459,replicate_nsd,2023.2.3,59.874111202892585,2024-04-09 13h57.52.165696 -0400,
images/9_12 copy 4.jpg,0,6,0,0,2,"[9, 19, 29, 39, 49, 59, 68, 69, 70, 71]",0,150,150,150,5.23616964899702,,,,,,,,,,,2.24148212900036,2.2415376369899604,2.2415441460034344,2.2438613529957365,None,2.2439437299908604,2.243969281000318,None,2.2440367569797672,2.2440600779955275,None,2.244123470998602,2.2441455879888963,None,1,001,16,,2024-04-09_13h57.38.459,replicate_nsd,2023.2.3,59.874111202892585,2024-04-09 13h57.52.165696 -0400,
images/6_28 copy 3.jpg,0,7,0,0,2,"[9, 19, 29, 39, 49, 59, 68, 69, 70, 71]",0,151,151,151,5.23616964899702,,,,,,,,,,,2.244349301996408,2.24440493399743,2.2444115249963943,2.24686450700392,None,2.246946768980706,2.2469720899825916,None,2.2470395379932597,2.247062904003542,None,2.247126860980643,2.2471488330047578,None,1,001,16,,2024-04-09_13h57.38.459,replicate_nsd,2023.2.3,59.874111202892585,2024-04-09 13h57.52.165696 -0400,
images/21_12 copy 3.jpg,0,8,0,0,2,"[9, 19, 29, 39, 49, 59, 68, 69, 70, 71]",0,152,152,152,5.23616964899702,,,,,,,,,,,2.2473509199917316,2.2474060370004736,2.247412761003943,2.2496832979959436,None,2.249765507003758,2.2497906780045014,None,2.249858687981032,2.2498817470041104,None,2.2499461459810846,2.2499685649818275,None,1,001,16,,2024-04-09_13h57.38.459,replicate_nsd,2023.2.3,59.874111202892585,2024-04-09 13h57.52.165696 -0400,
images/blank.jpg,0,9,1,0,2,"[9, 19, 29, 39, 49, 59, 68, 69, 70, 71]",0,153,153,153,5.23616964899702,,,,,,,,,,,2.250173176988028,2.250229073979426,2.2502356240001973,2.251909776998218,None,2.251991047989577,2.252016038983129,None,2.252083136991132,2.252106422005454,None,2.252169657003833,2.2521915749821346,None,1,001,16,,2024-04-09_13h57.38.459,replicate_nsd,2023.2.3,59.874111202892585,2024-04-09 13h57.52.165696 -0400,
images/9_40 copy 7.jpg,0,10,0,0,2,"[9, 19, 29, 39, 49, 59, 68, 69, 70, 71]",0,154,154,154,5.23616964899702,,,,,,,,,,,2.252392386988504,2.2524482430017088,2.2524546060012653,2.254736080998555,None,2.254818172979867,2.254843547998462,None,2.2549103729834314,2.2549337259843014,None,2.254997744981665,2.255020317999879,None,1,001,16,,2024-04-09_13h57.38.459,replicate_nsd,2023.2.3,59.874111202892585,2024-04-09 13h57.52.165696 -0400,
images/pair17.jpg,0,11,0,0,2,"[9, 19, 29, 39, 49, 59, 68, 69, 70, 71]",0,155,155,155,5.23616964899702,,,,,,,,,,,2.255221615982009,2.2552760549879167,2.2552824890008196,2.2586401400039904,None,2.258722005004529,2.2587465590040665,None,2.258813268999802,2.2588365449919365,None,2.258899951004423,2.2589225319970865,None,1,001,16,,2024-04-09_13h57.38.459,replicate_nsd,2023.2.3,59.874111202892585,2024-04-09 13h57.52.165696 -0400,
images/12_0.jpg,0,12,0,0,2,"[9, 19, 29, 39, 49, 59, 68, 69, 70, 71]",0,156,156,156,5.23616964899702,,,,,,,,,,,2.2591441789991222,2.259198148996802,2.259204718982801,2.262177050986793,None,2.262256421992788,2.26228089799406,None,2.2623462170013227,2.262369065982057,None,2.262431884999387,2.2624540889810305,None,1,001,16,,2024-04-09_13h57.38.459,replicate_nsd,2023.2.3,59.874111202892585,2024-04-09 13h57.52.165696 -0400,
images/16_0 copy 7.jpg,0,13,0,0,2,"[9, 19, 29, 39, 49, 59, 68, 69, 70, 71]",0,157,157,157,5.23616964899702,,,,,,,,,,,2.2626511770067737,2.2627050449955277,2.2627114949864335,2.265241029992467,None,2.265320026985137,2.265344233979704,None,2.2654095749894623,2.2654324960021768,None,2.2654943069792353,2.2655157319968566,None,1,001,16,,2024-04-09_13h57.38.459,replicate_nsd,2023.2.3,59.874111202892585,2024-04-09 13h57.52.165696 -0400,
images/14_28 copy 2.jpg,0,14,0,0,2,"[9, 19, 29, 39, 49, 59, 68, 69, 70, 71]",0,158,158,158,5.23616964899702,,,,,,,,,,,2.2657135860063136,2.2657675659866072,2.2657740199938416,2.2680472179781646,None,2.2681263370031957,2.2681506299995817,None,2.268215744988993,2.2682385169900954,None,2.268307953985641,2.2683297589828726,None,1,001,16,,2024-04-09_13h57.38.459,replicate_nsd,2023.2.3,59.874111202892585,2024-04-09 13h57.52.165696 -0400,
images/9_12.jpg,0,15,0,0,2,"[9, 19, 29, 39, 49, 59, 68, 69, 70, 71]",0,159,159,159,5.23616964899702,,,,,,,,,,,2.2685354389832355,2.268589426006656,2.2685959140071645,2.2709260789852124,None,2.2710055009811185,2.2710298899910413,None,2.2710957549861632,2.27111828699708,None,2.2711800700053573,2.2712014830030967,None,1,001,16,,2024-04-09_13h57.38.459,replicate_nsd,2023.2.3,59.874111202892585,2024-04-09 13h57.52.165696 -0400,
images/9_28 copy 5.jpg,0,16,0,0,2,"[9, 19, 29, 39, 49, 59, 68, 69, 70, 71]",0,160,160,160,5.23616964899702,,,,,,,,,,,2.2713987099996302,2.2714520129957236,2.271458439005073,2.273967102984898,None,2.274046862992691,2.2740715380059555,None,2.2741374599863775,2.274160442990251,None,2.2742224120011088,2.2742443830065895,None,1,001,16,,2024-04-09_13h57.38.459,replicate_nsd,2023.2.3,59.874111202892585,2024-04-09 13h57.52.165696 -0400,
images/16_28 copy 3.jpg,0,17,0,0,2,"[9, 19, 29, 39, 49, 59, 68, 69, 70, 71]",0,161,161,161,5.23616964899702,,,,,,,,,,,2.274442089983495,2.274496117985109,2.274502707994543,2.2768024260003585,None,2.276882170001045,2.27690654998878,None,2.276972335006576,2.2769954669929575,None,2.2770577899937052,2.2770800849830266,None,1,001,16,,2024-04-09_13h57.38.459,replicate_nsd,2023.2.3,59.874111202892585,2024-04-09 13h57.52.165696 -0400,
images/7_0 copy 4.jpg,0,18,0,0,2,"[9, 19, 29, 39, 49, 59, 68, 69, 70, 71]",0,162,162,162,5.23616964899702,,,,,,,,,,,2.2772783469990827,2.277332188998116,2.277338741987478,2.279597858985653,None,2.2796770659915637,2.2797015469986945,None,2.279766755993478,2.279789633990731,None,2.27985097898636,2.2798726949840784,None,1,001,16,,2024-04-09_13h57.38.459,replicate_nsd,2023.2.3,59.874111202892585,2024-04-09 13h57.52.165696 -0400,
images/blank.jpg,0,19,1,0,2,"[9, 19, 29, 39, 49, 59, 68, 69, 70, 71]",0,163,163,163,5.23616964899702,,,,,,,,,,,2.2800690779986326,2.2801230349869,2.280129463004414,2.2817191689973697,None,2.281797828996787,2.281821972981561,None,2.2818863879947457,2.281908992998069,None,2.281970217998605,2.281992503994843,None,1,001,16,,2024-04-09_13h57.38.459,replicate_nsd,2023.2.3,59.874111202892585,2024-04-09 13h57.52.165696 -0400,
images/pair18 copy 4.jpg,0,20,0,0,2,"[9, 19, 29, 39, 49, 59, 68, 69, 70, 71]",0,164,164,164,5.23616964899702,,,,,,,,,,,2.2821887460013386,2.282242752989987,2.282249045005301,2.284940788988024,None,2.285022194002522,2.28504661199986,None,2.28512161099934,2.2851445009873714,None,2.2852072319947183,2.285231157002272,None,1,001,16,,2024-04-09_13h57.38.459,replicate_nsd,2023.2.3,59.874111202892585,2024-04-09 13h57.52.165696 -0400,
images/23_28 copy 6.jpg,0,21,0,0,2,"[9, 19, 29, 39, 49, 59, 68, 69, 70, 71]",0,165,165,165,5.23616964899702,,,,,,,,,,,2.2854304630018305,2.285484253981849,2.2854907820001245,2.288286597991828,None,2.2883658509817906,2.288390030997107,None,2.2884562679973897,2.2884786409849767,None,2.2885401459934656,2.2885616309940815,None,1,001,16,,2024-04-09_13h57.38.459,replicate_nsd,2023.2.3,59.874111202892585,2024-04-09 13h57.52.165696 -0400,
images/12_12 copy.jpg,0,22,0,0,2,"[9, 19, 29, 39, 49, 59, 68, 69, 70, 71]",0,166,166,166,5.23616964899702,,,,,,,,,,,2.2887591519975103,2.288812776998384,2.2888191629899666,2.291222369996831,None,2.2913026030000765,2.2913272269943263,None,2.29139273398323,2.291415493004024,None,2.291477210004814,2.291498656006297,None,1,001,16,,2024-04-09_13h57.38.459,replicate_nsd,2023.2.3,59.874111202892585,2024-04-09 13h57.52.165696 -0400,
images/16_40 copy 2.jpg,0,23,0,0,2,"[9, 19, 29, 39, 49, 59, 68, 69, 70, 71]",0,167,167,167,5.23616964899702,,,,,,,,,,,2.2916950460057706,2.2917487589875236,2.291755212994758,2.2942986660054885,None,2.294377419981174,2.294401911989553,None,2.2944674949976616,2.2944904129835777,None,2.2945529779826757,2.2945751399965957,None,1,001,16,,2024-04-09_13h57.38.459,replicate_nsd,2023.2.3,59.874111202892585,2024-04-09 13h57.52.165696 -0400,
images/15_28 copy.jpg,0,24,0,0,2,"[9, 19, 29, 39, 49, 59, 68, 69, 70, 71]",0,168,168,168,5.23616964899702,,,,,,,,,,,2.2947728599829134,2.2948268709878903,2.294833211984951,2.2971108299971092,None,2.2971897779789288,2.2972141630016267,None,2.297279221005738,2.2973018839838915,None,2.297363335004775,2.2973851969873067,None,1,001,16,,2024-04-09_13h57.38.459,replicate_nsd,2023.2.3,59.874111202892585,2024-04-09 13h57.52.165696 -0400,
images/pair06 copy 3.jpg,0,25,0,0,2,"[9, 19, 29, 39, 49, 59, 68, 69, 70, 71]",0,169,169,169,5.23616964899702,,,,,,,,,,,2.297581258986611,2.2976353609992657,2.297641824989114,2.3009747189935297,None,2.3010562699928414,2.301081265002722,None,2.3011489089985844,2.3011721420043614,None,2.3012358929845504,2.301258666004287,None,1,001,16,,2024-04-09_13h57.38.459,replicate_nsd,2023.2.3,59.874111202892585,2024-04-09 13h57.52.165696 -0400,
images/21_40 copy 7.jpg,0,26,0,0,2,"[9, 19, 29, 39, 49, 59, 68, 69, 70, 71]",0,170,170,170,5.23616964899702,,,,,,,,,,,2.301461939001456,2.301517176005291,2.3015236649953295,2.304792984999949,None,2.304874794994248,2.3049001290055458,None,2.3049691499909386,2.3049929849803448,None,2.3050563669821713,2.305078720994061,None,1,001,16,,2024-04-09_13h57.38.459,replicate_nsd,2023.2.3,59.874111202892585,2024-04-09 13h57.52.165696 -0400,
images/pair05.jpg,0,27,0,0,2,"[9, 19, 29, 39, 49, 59, 68, 69, 70, 71]",0,171,171,171,5.23616964899702,,,,,,,,,,,2.3052809219807386,2.3053364149818663,2.3053432529850397,2.308537887001876,None,2.3086199410026893,2.3086452900024597,None,2.308713196980534,2.3087368559790775,None,2.308799888996873,2.3088222990045324,None,1,001,16,,2024-04-09_13h57.38.459,replicate_nsd,2023.2.3,59.874111202892585,2024-04-09 13h57.52.165696 -0400,
images/16_0 copy 7.jpg,0,28,0,0,2,"[9, 19, 29, 39, 49, 59, 68, 69, 70, 71]",0,172,172,172,5.23616964899702,,,,,,,,,,,2.309023908979725,2.3090796360047534,2.3090862410026602,2.311624067981029,None,2.311704605992418,2.311729559995001,None,2.3117972390027717,2.3118205899954773,None,2.311883565998869,2.311905933980597,None,1,001,16,,2024-04-09_13h57.38.459,replicate_nsd,2023.2.3,59.874111202892585,2024-04-09 13h57.52.165696 -0400,
images/blank.jpg,0,29,1,0,2,"[9, 19, 29, 39, 49, 59, 68, 69, 70, 71]",0,173,173,173,5.23616964899702,,,,,,,,,,,2.3121078179974575,2.3121633940027095,2.312170058983611,2.314019757002825,None,2.3141010190011,2.3141257200040855,None,2.314192052988801,2.3142153439985123,None,2.31427812500624,2.314300887985155,None,1,001,16,,2024-04-09_13h57.38.459,replicate_nsd,2023.2.3,59.874111202892585,2024-04-09 13h57.52.165696 -0400,
images/10_28 copy.jpg,0,30,0,0,2,"[9, 19, 29, 39, 49, 59, 68, 69, 70, 71]",0,174,174,174,5.23616964899702,,,,,,,,,,,2.314500387001317,2.3145555009832606,2.314562190003926,2.316542288986966,None,2.316623347986024,2.3166483560053166,None,2.3167148839856964,2.316738246998284,None,2.316801389999455,2.316823241999373,None,1,001,16,,2024-04-09_13h57.38.459,replicate_nsd,2023.2.3,59.874111202892585,2024-04-09 13h57.52.165696 -0400,
images/pair15 copy 6.jpg,0,31,0,0,2,"[9, 19, 29, 39, 49, 59, 68, 69, 70, 71]",0,175,175,175,5.23616964899702,,,,,,,,,,,2.3170241379993968,2.3170791559969075,2.3170857549994253,2.320660864992533,None,2.3207421049883123,2.3207671720010694,None,2.3208336509997025,2.3208570429997053,None,2.320920122001553,2.320942427002592,None,1,001,16,,2024-04-09_13h57.38.459,replicate_nsd,2023.2.3,59.874111202892585,2024-04-09 13h57.52.165696 -0400,
images/7_0 copy 6.jpg,0,32,0,0,2,"[9, 19, 29, 39, 49, 59, 68, 69, 70, 71]",0,176,176,176,5.23616964899702,,,,,,,,,,,2.3211426319903694,2.3211976349994075,2.3212041719816625,2.324015664984472,None,2.324096163007198,2.3241211449785624,None,2.324188130995026,2.3242115059983917,None,2.3242757429834455,2.3242980919894762,None,1,001,16,,2024-04-09_13h57.38.459,replicate_nsd,2023.2.3,59.874111202892585,2024-04-09 13h57.52.165696 -0400,
images/6_28 copy 7.jpg,0,33,0,0,2,"[9, 19, 29, 39, 49, 59, 68, 69, 70, 71]",0,177,177,177,5.23616964899702,,,,,,,,,,,2.324497834983049,2.324552976002451,2.3245594799809624,2.3270850219996646,None,2.3271662229963113,2.327191333984956,None,2.327258161007194,2.3272813519870397,None,2.327344282006379,2.327366005978547,None,1,001,16,,2024-04-09_13h57.38.459,replicate_nsd,2023.2.3,59.874111202892585,2024-04-09 13h57.52.165696 -0400,
images/22_40 copy 3.jpg,0,34,0,0,2,"[9, 19, 29, 39, 49, 59, 68, 69, 70, 71]",0,178,178,178,5.23616964899702,,,,,,,,,,,2.327565618994413,2.327620655996725,2.327627256978303,2.3298298500012606,None,2.32991084898822,2.329935599991586,None,2.3300019269809127,2.330025429982925,None,2.3300884189957287,2.3301109809835907,None,1,001,16,,2024-04-09_13h57.38.459,replicate_nsd,2023.2.3,59.874111202892585,2024-04-09 13h57.52.165696 -0400,
images/17_0 copy 3.jpg,0,35,0,0,2,"[9, 19, 29, 39, 49, 59, 68, 69, 70, 71]",0,179,179,179,5.23616964899702,,,,,,,,,,,2.3303116759925615,2.3303674699855037,2.330374078999739,2.33283208499779,None,2.3329131309874356,2.332938507985091,None,2.3330049789801706,2.3330283319810405,None,2.3330909399956,2.333113823988242,None,1,001,16,,2024-04-09_13h57.38.459,replicate_nsd,2023.2.3,59.874111202892585,2024-04-09 13h57.52.165696 -0400,
images/blank.jpg,0,36,0,0,2,"[9, 19, 29, 39, 49, 59, 68, 69, 70, 71]",0,180,180,180,5.23616964899702,,,,,,,,,,,2.333313398004975,2.3333692849846557,2.3333757529908326,2.335194176994264,None,2.335280351981055,2.335305263986811,None,2.3353719529986847,2.335395678994246,None,2.3354578930011485,2.33548034998239,None,1,001,16,,2024-04-09_13h57.38.459,replicate_nsd,2023.2.3,59.874111202892585,2024-04-09 13h57.52.165696 -0400,
images/23_12 copy 3.jpg,0,37,0,0,2,"[9, 19, 29, 39, 49, 59, 68, 69, 70, 71]",0,181,181,181,5.23616964899702,,,,,,,,,,,2.3356835290032905,2.3357401980028953,2.335746836994076,2.337801285000751,None,2.3378961039998103,2.337924188002944,None,2.338001391995931,2.338028106983984,None,2.3381013949983753,2.338127146998886,None,1,001,16,,2024-04-09_13h57.38.459,replicate_nsd,2023.2.3,59.874111202892585,2024-04-09 13h57.52.165696 -0400,
images/8_28 copy 3.jpg,0,38,0,0,2,"[9, 19, 29, 39, 49, 59, 68, 69, 70, 71]",0,182,182,182,5.23616964899702,,,,,,,,,,,2.338358757988317,2.3384231779782567,2.3384310039982665,2.3405377760063857,None,2.340630519000115,2.3406597260036506,None,2.340736067999387,2.3407630319998134,None,2.3408359109889716,2.3408618700050283,None,1,001,16,,2024-04-09_13h57.38.459,replicate_nsd,2023.2.3,59.874111202892585,2024-04-09 13h57.52.165696 -0400,
images/blank.jpg,0,39,1,0,2,"[9, 19, 29, 39, 49, 59, 68, 69, 70, 71]",0,183,183,183,5.23616964899702,,,,,,,,,,,2.3410941019828897,2.341158439987339,2.341166094003711,2.3430483609845396,None,2.343142131983768,2.3431710549921263,None,2.3432467939855997,2.343274204991758,None,2.3433475180063397,2.3433741430053487,None,1,001,16,,2024-04-09_13h57.38.459,replicate_nsd,2023.2.3,59.874111202892585,2024-04-09 13h57.52.165696 -0400,
images/20_28 copy.jpg,0,40,0,0,2,"[9, 19, 29, 39, 49, 59, 68, 69, 70, 71]",0,184,184,184,5.23616964899702,,,,,,,,,,,2.343606573995203,2.3436709999805316,2.343678720993921,2.3464869580056984,None,2.3465817410033196,2.3466110229783226,None,2.3466878939943854,2.346714933984913,None,2.346787994989427,2.346814146003453,None,1,001,16,,2024-04-09_13h57.38.459,replicate_nsd,2023.2.3,59.874111202892585,2024-04-09 13h57.52.165696 -0400,
images/20_12 copy.jpg,0,41,0,0,2,"[9, 19, 29, 39, 49, 59, 68, 69, 70, 71]",0,185,185,185,5.23616964899702,,,,,,,,,,,2.3470462480036076,2.3471108530065976,2.3471185009984765,2.3496989409904927,None,2.3497928569850046,2.349821791984141,None,2.3498986949853133,2.349925736984005,None,2.3499984389927704,2.3500243779853918,None,1,001,16,,2024-04-09_13h57.38.459,replicate_nsd,2023.2.3,59.874111202892585,2024-04-09 13h57.52.165696 -0400,
images/12_12 copy 7.jpg,0,42,0,0,2,"[9, 19, 29, 39, 49, 59, 68, 69, 70, 71]",0,186,186,186,5.23616964899702,,,,,,,,,,,2.3502563549845945,2.350321121979505,2.350328915985301,2.352755325002363,None,2.3528639909927733,2.3528977779787965,None,2.352983110002242,2.353010610997444,None,2.3530874499992933,2.353113655000925,None,1,001,16,,2024-04-09_13h57.38.459,replicate_nsd,2023.2.3,59.874111202892585,2024-04-09 13h57.52.165696 -0400,
images/8_12 copy 2.jpg,0,43,0,0,2,"[9, 19, 29, 39, 49, 59, 68, 69, 70, 71]",0,187,187,187,5.23616964899702,,,,,,,,,,,2.3533609689911827,2.353434204997029,2.3534405679965857,2.3559438579832204,None,2.356038053985685,2.3560667370038573,None,2.356144530000165,2.3561715749965515,None,2.356244672992034,2.3562704689975362,None,1,001,16,,2024-04-09_13h57.38.459,replicate_nsd,2023.2.3,59.874111202892585,2024-04-09 13h57.52.165696 -0400,
images/10_0.jpg,0,44,0,0,2,"[9, 19, 29, 39, 49, 59, 68, 69, 70, 71]",0,188,188,188,5.23616964899702,,,,,,,,,,,2.3565047649899498,2.3565687729860656,2.3565762570069637,2.359008859988535,None,2.359102571994299,2.359131339995656,None,2.359208502981346,2.3592353829881176,None,2.3593091199873015,2.359335110988468,None,1,001,16,,2024-04-09_13h57.38.459,replicate_nsd,2023.2.3,59.874111202892585,2024-04-09 13h57.52.165696 -0400,
images/pair06 copy 4.jpg,0,45,0,0,2,"[9, 19, 29, 39, 49, 59, 68, 69, 70, 71]",0,189,189,189,5.23616964899702,,,,,,,,,,,2.359565920982277,2.359630788996583,2.3596386809949763,2.421900254994398,None,2.422034896997502,2.422069391992409,None,2.422160991001874,2.422193406004226,None,2.4222792029904667,2.4223096380010247,None,1,001,16,,2024-04-09_13h57.38.459,replicate_nsd,2023.2.3,59.874111202892585,2024-04-09 13h57.52.165696 -0400,
images/17_0 copy 5.jpg,0,46,0,0,2,"[9, 19, 29, 39, 49, 59, 68, 69, 70, 71]",0,190,190,190,5.23616964899702,,,,,,,,,,,2.422595880983863,2.422679821989732,2.4226888679841068,2.4259909089887515,None,2.426095977978548,2.426128099003108,None,2.426214679988334,2.426245059003122,None,2.426327235996723,2.426356752985157,None,1,001,16,,2024-04-09_13h57.38.459,replicate_nsd,2023.2.3,59.874111202892585,2024-04-09 13h57.52.165696 -0400,
images/15_0 copy 6.jpg,0,47,0,0,2,"[9, 19, 29, 39, 49, 59, 68, 69, 70, 71]",0,191,191,191,5.23616964899702,,,,,,,,,,,2.426620243990328,2.4266951530007645,2.4267037909885403,2.4295298639917746,None,2.429630892991554,2.429661963979015,None,2.429745910980273,2.4297756159794517,None,2.429855474998476,2.429883934004465,None,1,001,16,,2024-04-09_13h57.38.459,replicate_nsd,2023.2.3,59.874111202892585,2024-04-09 13h57.52.165696 -0400,
images/15_0.jpg,0,48,0,0,2,"[9, 19, 29, 39, 49, 59, 68, 69, 70, 71]",0,192,192,192,5.23616964899702,,,,,,,,,,,2.4301364709972404,2.4302060449845158,2.430214220978087,2.4325008259911556,None,2.4326017090061214,2.4326330079929903,None,2.432716843992239,2.432746214006329,None,2.432824502000585,2.4328522179857828,None,1,001,16,,2024-04-09_13h57.38.459,replicate_nsd,2023.2.3,59.874111202892585,2024-04-09 13h57.52.165696 -0400,
images/blank.jpg,0,49,1,0,2,"[9, 19, 29, 39, 49, 59, 68, 69, 70, 71]",0,193,193,193,5.23616964899702,,,,,,,,,,,2.433104085997911,2.4331728339893743,2.4331812119926326,2.4351715490047354,None,2.4352732829866,2.4353045389871113,None,2.4353879079862963,2.4354169229918625,None,2.4355129009927623,2.4355399170017336,None,1,001,16,,2024-04-09_13h57.38.459,replicate_nsd,2023.2.3,59.874111202892585,2024-04-09 13h57.52.165696 -0400,
images/15_28 copy 7.jpg,0,50,0,0,2,"[9, 19, 29, 39, 49, 59, 68, 69, 70, 71]",0,194,194,194,5.23616964899702,,,,,,,,,,,2.4357837249990553,2.435849898989545,2.4358578409883194,2.438505712983897,None,2.4386025790008716,2.4386321119964123,None,2.438713051000377,2.438741272984771,None,2.438817697984632,2.4388448289828375,None,1,001,16,,2024-04-09_13h57.38.459,replicate_nsd,2023.2.3,59.874111202892585,2024-04-09 13h57.52.165696 -0400,
images/21_12 copy 2.jpg,0,51,0,0,2,"[9, 19, 29, 39, 49, 59, 68, 69, 70, 71]",0,195,195,195,5.23616964899702,,,,,,,,,,,2.439086778991623,2.4391523259982932,2.4391603299882263,2.441817743005231,None,2.441913905000547,2.4419438479817472,None,2.442022214003373,2.4420505029847845,None,2.442126088979421,2.4421525030047633,None,1,001,16,,2024-04-09_13h57.38.459,replicate_nsd,2023.2.3,59.874111202892585,2024-04-09 13h57.52.165696 -0400,
images/11_40.jpg,0,52,0,0,2,"[9, 19, 29, 39, 49, 59, 68, 69, 70, 71]",0,196,196,196,5.23616964899702,,,,,,,,,,,2.4423922119894996,2.4424588799884077,2.442466690001311,2.445401357981609,None,2.4455155699979514,2.445544717978919,None,2.4456226429902017,2.445649906003382,None,2.4457237960014027,2.445749670994701,None,1,001,16,,2024-04-09_13h57.38.459,replicate_nsd,2023.2.3,59.874111202892585,2024-04-09 13h57.52.165696 -0400,
images/pair05 copy 3.jpg,0,53,0,0,2,"[9, 19, 29, 39, 49, 59, 68, 69, 70, 71]",0,197,197,197,5.23616964899702,,,,,,,,,,,2.4459818530012853,2.446046227007173,2.4460538330022246,2.4493980389961507,None,2.449489664984867,2.4495344790047966,None,2.4496073350019287,2.4496330359834246,None,2.4497024879965466,2.449726938997628,None,1,001,16,,2024-04-09_13h57.38.459,replicate_nsd,2023.2.3,59.874111202892585,2024-04-09 13h57.52.165696 -0400,
images/12_40.jpg,0,54,0,0,2,"[9, 19, 29, 39, 49, 59, 68, 69, 70, 71]",0,198,198,198,5.23616964899702,,,,,,,,,,,2.4499459769867826,2.4500064549793024,2.450013756984845,2.4528644809906837,None,2.4529450569825713,2.4529698209953494,None,2.453036055987468,2.4530589419882745,None,2.453122106991941,2.45314441199298,None,1,001,16,,2024-04-09_13h57.38.459,replicate_nsd,2023.2.3,59.874111202892585,2024-04-09 13h57.52.165696 -0400,
images/23_28 copy 7.jpg,0,55,0,0,2,"[9, 19, 29, 39, 49, 59, 68, 69, 70, 71]",0,199,199,199,5.23616964899702,,,,,,,,,,,2.4533439109800383,2.453399171005003,2.453405791980913,2.455893604987068,None,2.4559739849937614,2.455999077996239,None,2.4560663269949146,2.456089952989714,None,2.45615398499649,2.4561763999809045,None,1,001,16,,2024-04-09_13h57.38.459,replicate_nsd,2023.2.3,59.874111202892585,2024-04-09 13h57.52.165696 -0400,
images/7_12.jpg,0,56,0,0,2,"[9, 19, 29, 39, 49, 59, 68, 69, 70, 71]",0,200,200,200,5.23616964899702,,,,,,,,,,,2.456376221991377,2.4564320459903684,2.4564385330013465,2.458731472986983,None,2.4588124789879657,2.4588372359867208,None,2.458904180995887,2.458927555999253,None,2.4589910809881985,2.459013749001315,None,1,001,16,,2024-04-09_13h57.38.459,replicate_nsd,2023.2.3,59.874111202892585,2024-04-09 13h57.52.165696 -0400,
images/pair12 copy 7.jpg,0,57,0,0,2,"[9, 19, 29, 39, 49, 59, 68, 69, 70, 71]",0,201,201,201,5.23616964899702,,,,,,,,,,,2.45921566998004,2.4592717610066757,2.459278391994303,2.46236066397978,None,2.462441838986706,2.4624668280011974,None,2.462534524995135,2.4625585059984587,None,2.4626219930069055,2.462644582003122,None,1,001,16,,2024-04-09_13h57.38.459,replicate_nsd,2023.2.3,59.874111202892585,2024-04-09 13h57.52.165696 -0400,
images/13_12 copy.jpg,0,58,0,0,2,"[9, 19, 29, 39, 49, 59, 68, 69, 70, 71]",0,202,202,202,5.23616964899702,,,,,,,,,,,2.462847741000587,2.4629042059823405,2.4629108069930226,2.4658106099814177,None,2.4658909889985807,2.4659161109884735,None,2.4659824399859644,2.466005744994618,None,2.4660681649984326,2.4660906849894673,None,1,001,16,,2024-04-09_13h57.38.459,replicate_nsd,2023.2.3,59.874111202892585,2024-04-09 13h57.52.165696 -0400,
images/blank.jpg,0,59,1,0,2,"[9, 19, 29, 39, 49, 59, 68, 69, 70, 71]",0,203,203,203,5.23616964899702,,,,,,,,,,,2.466292679979233,2.4663482129981276,2.466354946984211,2.4682375109987333,None,2.468325247988105,2.468349952978315,None,2.4684236019966193,2.4684479080024175,None,2.468511379993288,2.468533948995173,None,1,001,16,,2024-04-09_13h57.38.459,replicate_nsd,2023.2.3,59.874111202892585,2024-04-09 13h57.52.165696 -0400,
images/11_28 copy 7.jpg,0,60,0,0,2,"[9, 19, 29, 39, 49, 59, 68, 69, 70, 71]",0,204,204,204,5.23616964899702,,,,,,,,,,,2.468732106004609,2.468787371995859,2.468793851992814,2.471112703002291,None,2.4711931259953417,2.471218033984769,None,2.4712848299823236,2.471308235981269,None,2.4713706949842162,2.4713925419782754,None,1,001,16,,2024-04-09_13h57.38.459,replicate_nsd,2023.2.3,59.874111202892585,2024-04-09 13h57.52.165696 -0400,
images/20_0 copy.jpg,0,61,0,0,2,"[9, 19, 29, 39, 49, 59, 68, 69, 70, 71]",0,205,205,205,5.23616964899702,,,,,,,,,,,2.4715935309941415,2.471648409991758,2.471654792985646,2.474012955004582,None,2.474093793978682,2.4741191279899795,None,2.4741856869950425,2.474209656997118,None,2.4742723050003406,2.474294743005885,None,1,001,16,,2024-04-09_13h57.38.459,replicate_nsd,2023.2.3,59.874111202892585,2024-04-09 13h57.52.165696 -0400,
images/pair06 copy 2.jpg,0,62,0,0,2,"[9, 19, 29, 39, 49, 59, 68, 69, 70, 71]",0,206,206,206,5.23616964899702,,,,,,,,,,,2.474495103000663,2.4745517410046887,2.474558176996652,2.4776975649874657,None,2.4777787170023657,2.4778036199859343,None,2.477869992988417,2.477893254981609,None,2.477956088987412,2.477978492999682,None,1,001,16,,2024-04-09_13h57.38.459,replicate_nsd,2023.2.3,59.874111202892585,2024-04-09 13h57.52.165696 -0400,
images/17_40 copy 2.jpg,0,63,0,0,2,"[9, 19, 29, 39, 49, 59, 68, 69, 70, 71]",0,207,207,207,5.23616964899702,,,,,,,,,,,2.4781799509946723,2.478235335991485,2.478241832985077,2.4814020119956695,None,2.481482557981508,2.4815075119840913,None,2.481574801990064,2.481597679987317,None,2.4816606139938813,2.4816824999870732,None,1,001,16,,2024-04-09_13h57.38.459,replicate_nsd,2023.2.3,59.874111202892585,2024-04-09 13h57.52.165696 -0400,
images/8_0 copy 4.jpg,0,64,0,0,2,"[9, 19, 29, 39, 49, 59, 68, 69, 70, 71]",0,208,208,208,5.23616964899702,,,,,,,,,,,2.481883943983121,2.4819396209786646,2.481946080981288,2.484425131988246,None,2.4845056679914705,2.4845307839859743,None,2.48459705998539,2.484620420000283,None,2.484683374001179,2.4847056120052002,None,1,001,16,,2024-04-09_13h57.38.459,replicate_nsd,2023.2.3,59.874111202892585,2024-04-09 13h57.52.165696 -0400,
images/19_40.jpg,0,65,0,0,2,"[9, 19, 29, 39, 49, 59, 68, 69, 70, 71]",0,209,209,209,5.23616964899702,,,,,,,,,,,2.4849048019968905,2.4849661759799346,2.4849729519919492,2.4873133759829216,None,2.4873945089930203,2.487419184006285,None,2.4874854490044527,2.487509256985504,None,2.4875716519891284,2.487593936995836,None,1,001,16,,2024-04-09_13h57.38.459,replicate_nsd,2023.2.3,59.874111202892585,2024-04-09 13h57.52.165696 -0400,
images/12_0 copy 2.jpg,0,66,0,0,2,"[9, 19, 29, 39, 49, 59, 68, 69, 70, 71]",0,210,210,210,5.23616964899702,,,,,,,,,,,2.487795022985665,2.4878500319900922,2.4878566899860743,2.4901255430013407,None,2.490206018992467,2.490231131989276,None,2.49029668798903,2.4903201540000737,None,2.4903825679793954,2.49040511198109,None,1,001,16,,2024-04-09_13h57.38.459,replicate_nsd,2023.2.3,59.874111202892585,2024-04-09 13h57.52.165696 -0400,
images/19_28 copy 4.jpg,0,67,0,0,2,"[9, 19, 29, 39, 49, 59, 68, 69, 70, 71]",0,211,211,211,5.23616964899702,,,,,,,,,,,2.4906041189969983,2.4906595119973645,2.4906659589905757,2.4933535879827105,None,2.493434656993486,2.4934595839877147,None,2.4935248020046856,2.4935478399856947,None,2.4936100819904823,2.4936317229876295,None,1,001,16,,2024-04-09_13h57.38.459,replicate_nsd,2023.2.3,59.874111202892585,2024-04-09 13h57.52.165696 -0400,
images/blank.jpg,0,68,1,0,2,"[9, 19, 29, 39, 49, 59, 68, 69, 70, 71]",0,212,212,212,5.23616964899702,,,,,,,,,,,2.4938283289957326,2.4938841559924185,2.4938906809838954,2.49556699898676,None,2.495646698982455,2.4956719009787776,None,2.4957375649828464,2.4957611879799515,None,2.4958237149985507,2.4958457839966286,None,1,001,16,,2024-04-09_13h57.38.459,replicate_nsd,2023.2.3,59.874111202892585,2024-04-09 13h57.52.165696 -0400,
images/blank.jpg,0,69,1,0,2,"[9, 19, 29, 39, 49, 59, 68, 69, 70, 71]",0,213,213,213,5.23616964899702,,,,,,,,,,,2.4960445209871978,2.496099913987564,2.4961065189854708,2.4977227349882014,None,2.4978034060040955,2.497827638988383,None,2.4978939889988396,2.4979170259903185,None,2.497979748994112,2.4980020909861196,None,1,001,16,,2024-04-09_13h57.38.459,replicate_nsd,2023.2.3,59.874111202892585,2024-04-09 13h57.52.165696 -0400,
images/blank.jpg,0,70,1,0,2,"[9, 19, 29, 39, 49, 59, 68, 69, 70, 71]",0,214,214,214,5.23616964899702,,,,,,,,,,,2.4982021629984956,2.498257386003388,2.49826401899918,2.499983838002663,None,2.500064994994318,2.5000901210005395,None,2.5001570580061525,2.5001800970057957,None,2.500243097980274,2.5002655260032043,None,1,001,16,,2024-04-09_13h57.38.459,replicate_nsd,2023.2.3,59.874111202892585,2024-04-09 13h57.52.165696 -0400,
images/blank.jpg,0,71,1,1,2,"[9, 19, 29, 39, 49, 59, 68, 69, 70, 71]",0,215,215,215,5.23616964899702,,,,,,,,,,,2.5004658329999074,2.5005220969906077,2.500528659991687,2.5022665779979434,None,2.5023474619956687,2.5023721430043224,None,2.502437610994093,2.5024607329978608,None,2.5025234509957954,2.5025457050069235,None,1,001,16,,2024-04-09_13h57.38.459,replicate_nsd,2023.2.3,59.874111202892585,2024-04-09 13h57.52.165696 -0400,
images/pair14 copy.jpg,0,0,0,0,3,"[9, 19, 31, 45, 56, 68, 69, 70, 71]",0,216,216,216,5.23616964899702,,,,,,,,,,,2.502745595003944,2.5028011399845127,2.502807616983773,2.506414528004825,None,2.506495420995634,2.5065204389975406,None,2.506587276002392,2.506610284006456,None,2.506672597985016,2.5066948489984497,None,1,001,16,,2024-04-09_13h57.38.459,replicate_nsd,2023.2.3,59.874111202892585,2024-04-09 13h57.52.165696 -0400,
images/18_40 copy 7.jpg,0,1,0,0,3,"[9, 19, 31, 45, 56, 68, 69, 70, 71]",0,217,217,217,5.23616964899702,,,,,,,,,,,2.5068946369865444,2.50695038199774,2.5069571049825754,2.509757470979821,None,2.5098421440052334,2.5098669930011965,None,2.5099347359791864,2.5099572780018207,None,2.5100193159887567,2.5100416030036286,None,1,001,16,,2024-04-09_13h57.38.459,replicate_nsd,2023.2.3,59.874111202892585,2024-04-09 13h57.52.165696 -0400,
images/22_40 copy 3.jpg,0,2,0,0,3,"[9, 19, 31, 45, 56, 68, 69, 70, 71]",0,218,218,218,5.23616964899702,,,,,,,,,,,2.5102433169959113,2.510298631998012,2.510305117990356,2.5123416720016394,None,2.512422047992004,2.5124469379952643,None,2.5125131369859446,2.5125363119877875,None,2.512598475004779,2.512620977999177,None,1,001,16,,2024-04-09_13h57.38.459,replicate_nsd,2023.2.3,59.874111202892585,2024-04-09 13h57.52.165696 -0400,
images/19_40 copy 5.jpg,0,3,0,0,3,"[9, 19, 31, 45, 56, 68, 69, 70, 71]",0,219,219,219,5.23616964899702,,,,,,,,,,,2.512821451993659,2.5128769330040086,2.512883449002402,2.515090873988811,None,2.5151717419794295,2.5151968199934345,None,2.5152627030038275,2.515286224981537,None,2.515348474989878,2.515371232992038,None,1,001,16,,2024-04-09_13h57.38.459,replicate_nsd,2023.2.3,59.874111202892585,2024-04-09 13h57.52.165696 -0400,
images/19_28 copy 3.jpg,0,4,0,0,3,"[9, 19, 31, 45, 56, 68, 69, 70, 71]",0,220,220,220,5.23616964899702,,,,,,,,,,,2.515570919989841,2.5156259939831216,2.515632389986422,2.517973793001147,None,2.5180541290028486,2.518079001980368,None,2.518144529982237,2.5181677700020373,None,2.518229887005873,2.518251914996654,None,1,001,16,,2024-04-09_13h57.38.459,replicate_nsd,2023.2.3,59.874111202892585,2024-04-09 13h57.52.165696 -0400,
images/pair09 copy 6.jpg,0,5,0,0,3,"[9, 19, 31, 45, 56, 68, 69, 70, 71]",0,221,221,221,5.23616964899702,,,,,,,,,,,2.51847077900311,2.5185258869896643,2.518532411981141,2.5218900269828737,None,2.521971076988848,2.521995760005666,None,2.522062495991122,2.5220861049892846,None,2.522149117983645,2.522170915006427,None,1,001,16,,2024-04-09_13h57.38.459,replicate_nsd,2023.2.3,59.874111202892585,2024-04-09 13h57.52.165696 -0400,
images/6_0 copy 7.jpg,0,6,0,0,3,"[9, 19, 31, 45, 56, 68, 69, 70, 71]",0,222,222,222,5.23616964899702,,,,,,,,,,,2.5223709989804775,2.5224260419781785,2.5224324720038567,2.5248929589870386,None,2.5249735209799837,2.525016636995133,None,2.525137675984297,2.525179392978316,None,2.5252937479817774,2.5253341700008605,None,1,001,16,,2024-04-09_13h57.38.459,replicate_nsd,2023.2.3,59.874111202892585,2024-04-09 13h57.52.165696 -0400,
images/10_40 copy 2.jpg,0,7,0,0,3,"[9, 19, 31, 45, 56, 68, 69, 70, 71]",0,223,223,223,5.23616964899702,,,,,,,,,,,2.525708664994454,2.5258103459782433,2.5258223749988247,2.5288383809966035,None,2.5289318409923,2.5289611439802684,None,2.529038645006949,2.5290655109856743,None,2.52913915598765,2.5291648879938293,None,1,001,16,,2024-04-09_13h57.38.459,replicate_nsd,2023.2.3,59.874111202892585,2024-04-09 13h57.52.165696 -0400,
images/pair11 copy 4.jpg,0,8,0,0,3,"[9, 19, 31, 45, 56, 68, 69, 70, 71]",0,224,224,224,5.23616964899702,,,,,,,,,,,2.5293951990024652,2.5294601770001464,2.5294676820049062,2.5329520920058712,None,2.5330468470056076,2.533075782004744,None,2.5331544119981118,2.533181456004968,None,2.5332558149821125,2.533281908981735,None,1,001,16,,2024-04-09_13h57.38.459,replicate_nsd,2023.2.3,59.874111202892585,2024-04-09 13h57.52.165696 -0400,
images/blank.jpg,0,9,1,0,3,"[9, 19, 31, 45, 56, 68, 69, 70, 71]",0,225,225,225,5.23616964899702,,,,,,,,,,,2.533516839990625,2.5335812169942074,2.5335889739799313,2.53603745700093,None,2.5361308619903866,2.536160164978355,None,2.5362369059876073,2.536263752990635,None,2.5363366279925685,2.5363623349985573,None,1,001,16,,2024-04-09_13h57.38.459,replicate_nsd,2023.2.3,59.874111202892585,2024-04-09 13h57.52.165696 -0400,
images/10_28 copy 2.jpg,0,10,0,0,3,"[9, 19, 31, 45, 56, 68, 69, 70, 71]",0,226,226,226,5.23616964899702,,,,,,,,,,,2.5365950249833986,2.536659867997514,2.536667373991804,2.539248132001376,None,2.539329530991381,2.5393547199782915,None,2.5394214279949665,2.5394449009909295,None,2.539507416979177,2.5395294629852287,None,1,001,16,,2024-04-09_13h57.38.459,replicate_nsd,2023.2.3,59.874111202892585,2024-04-09 13h57.52.165696 -0400,
images/19_28 copy 6.jpg,0,11,0,0,3,"[9, 19, 31, 45, 56, 68, 69, 70, 71]",0,227,227,227,5.23616964899702,,,,,,,,,,,2.5397295109869447,2.5397859269869514,2.5397925110009965,2.542166711005848,None,2.542247575998772,2.542272980994312,None,2.5423404540051706,2.5423642009845935,None,2.5424278040009085,2.542450367996935,None,1,001,16,,2024-04-09_13h57.38.459,replicate_nsd,2023.2.3,59.874111202892585,2024-04-09 13h57.52.165696 -0400,
images/7_12 copy 4.jpg,0,12,0,0,3,"[9, 19, 31, 45, 56, 68, 69, 70, 71]",0,228,228,228,5.23616964899702,,,,,,,,,,,2.542650944989873,2.5427061049849726,2.542712717986433,2.5446577160037123,None,2.544739014992956,2.5447638649784494,None,2.5448306939797476,2.5448541319929063,None,2.544917742983671,2.544939893996343,None,1,001,16,,2024-04-09_13h57.38.459,replicate_nsd,2023.2.3,59.874111202892585,2024-04-09 13h57.52.165696 -0400,
images/pair09 copy.jpg,0,13,0,0,3,"[9, 19, 31, 45, 56, 68, 69, 70, 71]",0,229,229,229,5.23616964899702,,,,,,,,,,,2.5451417279837187,2.545197292987723,2.545203796995338,2.548475631978363,None,2.5485573489859235,2.5485824549978133,None,2.548649663978722,2.548673109995434,None,2.5487367039895616,2.548758964985609,None,1,001,16,,2024-04-09_13h57.38.459,replicate_nsd,2023.2.3,59.874111202892585,2024-04-09 13h57.52.165696 -0400,
images/10_12 copy.jpg,0,14,0,0,3,"[9, 19, 31, 45, 56, 68, 69, 70, 71]",0,230,230,230,5.23616964899702,,,,,,,,,,,2.5489602549932897,2.5490153879800346,2.5490218779887073,2.5518214329786133,None,2.551903081999626,2.5519279909785837,None,2.5519947549910285,2.552018202986801,None,2.5520811819878872,2.552103456982877,None,1,001,16,,2024-04-09_13h57.38.459,replicate_nsd,2023.2.3,59.874111202892585,2024-04-09 13h57.52.165696 -0400,
