current_image,is_repeat,trial_index,is_blank_trial,is_new_run,run_num,loop_all_images.thisRepN,loop_all_images.thisTrialN,loop_all_images.thisN,loop_all_images.thisIndex,thisRow.t,notes,waiting_fmri.started,key_resp_2.started,text_3.started,waiting_fmri.stopped,key_resp_2.keys,key_resp_2.rt,key_resp_2.duration,set_up.started,set_up.stopped,instructions.started,text.started,key_resp.started,instructions.stopped,key_resp.keys,key_resp.rt,key_resp.duration,trial.started,trial.stopped,press_if_repeat.keys,blank_trial.started,key_resp_3.started,polygon_2.started,key_resp_3.stopped,polygon_2.stopped,blank_trial.stopped,key_resp_3.keys,key_resp_3.rt,key_resp_3.duration,block.started,block.stopped,polygon.started,image.started,press_if_repeat.started,image.stopped,press_if_repeat.stopped,polygon.stopped,text_2.started,text_2.stopped,participant,session,date,expName,psychopyVersion,frameRate,expStart,
,,,,,,,,,,,,0.02923969100083923,0.04084433700336376,0.04084433700336376,134.1727032120034,5,134.12816317200486,None,,,,,,,,,,,,,,,,,,,,,,,,,,,,,,,,1,001,2024-04-03_15h43.27.171,replicate_nsd,2023.2.3,59.67060774341229,2024-04-03 15h43.36.823529 -0400,
,,,,,,,,,,,,,,,,,,,134.17272580900317,134.17279426900495,134.17280083100195,134.1770603630066,134.1770603630066,134.889913609004,space,0.7120573290012544,None,,,,,,,,,,,,,,,,,,,,,,,1,001,2024-04-03_15h43.27.171,replicate_nsd,2023.2.3,59.67060774341229,2024-04-03 15h43.36.823529 -0400,
images/blank.jpg,0,0,1,0,0,0,0,0,0,134.97580306500458,,,,,,,,,,,,,,,,,,134.94566002300417,134.95722777500487,None,134.9585895220007,134.97580306500458,134.97580306500458,135.76360891399963,135.76360891399963,135.75672741300514,f,0.5572377429998596,None,135.7578444690007,135.75787576400035,,,,,,,,,1,001,2024-04-03_15h43.27.171,replicate_nsd,2023.2.3,59.67060774341229,2024-04-03 15h43.36.823529 -0400,
images/blank.jpg,0,1,1,0,0,0,1,1,1,135.76360891399963,,,,,,,,,,,,,,,,,,135.7580518600007,135.76011443900643,None,135.7601962290064,135.76360891399963,135.76360891399963,136.53645383500407,136.53645383500407,136.53111885000544,h,0.6813399460006622,None,136.53133628100477,136.53136236700084,,,,,,,,,1,001,2024-04-03_15h43.27.171,replicate_nsd,2023.2.3,59.67060774341229,2024-04-03 15h43.36.823529 -0400,
images/blank.jpg,0,2,1,0,0,0,2,2,2,136.53645383500407,,,,,,,,,,,,,,,,,,136.5315228460022,136.53310424000665,None,136.53318281999964,136.53645383500407,136.53645383500407,137.31197555499966,137.31197555499966,137.30450922800082,a,0.5605353850041865,None,137.30472972600546,137.30475511900295,,,,,,,,,1,001,2024-04-03_15h43.27.171,replicate_nsd,2023.2.3,59.67060774341229,2024-04-03 15h43.36.823529 -0400,
images/11_12.jpg,0,3,0,0,0,0,3,3,3,137.31197555499966,,,,,,,,,,,,,,,,,,137.3049152800013,138.1726822970013,None,138.172869258,,,,,138.17290717500146,None,,,138.1730245430008,138.17305932000454,137.31197555499966,137.51652850600658,137.51652850600658,138.1802724770023,138.1802724770023,138.1802724770023,,,1,001,2024-04-03_15h43.27.171,replicate_nsd,2023.2.3,59.67060774341229,2024-04-03 15h43.36.823529 -0400,
images/23_12 copy 3.jpg,0,4,0,0,0,0,4,4,4,138.1802724770023,,,,,,,,,,,,,,,,,,138.17333448499994,138.9974822600052,None,138.99759638700198,,,,,138.9976198190052,None,,,138.99768860699987,138.99771158899966,138.1802724770023,138.37223516100494,138.37223516100494,139.0042291150021,139.0042291150021,139.0042291150021,,,1,001,2024-04-03_15h43.27.171,replicate_nsd,2023.2.3,59.67060774341229,2024-04-03 15h43.36.823529 -0400,
images/14_40 copy.jpg,0,5,0,0,0,0,5,5,5,139.0042291150021,,,,,,,,,,,,,,,,,,138.9978780140009,139.82173996799975,None,139.82184910100477,,,,,139.821872119006,None,,,139.82194034900022,139.82196322700474,139.0042291150021,139.19441363000078,139.19441363000078,139.82860632500524,139.82860632500524,139.82860632500524,,,1,001,2024-04-03_15h43.27.171,replicate_nsd,2023.2.3,59.67060774341229,2024-04-03 15h43.36.823529 -0400,
images/12_40 copy 3.jpg,0,6,0,0,0,0,6,6,6,139.82860632500524,,,,,,,,,,,,,,,,,,139.82212711500324,140.66361144300026,None,140.66374913800246,,,,,140.6637764210027,None,,,140.663857517,140.6638839139996,139.82860632500524,140.0206859300015,140.0206859300015,140.6709988970033,140.6709988970033,140.6709988970033,,,1,001,2024-04-03_15h43.27.171,replicate_nsd,2023.2.3,59.67060774341229,2024-04-03 15h43.36.823529 -0400,
images/17_40 copy 2.jpg,0,7,0,0,0,0,7,7,7,140.6709988970033,,,,,,,,,,,,,,,,,,140.6640778380024,141.49848120300157,None,141.49860445400554,,,,,141.4986287980064,None,,,141.4986993660059,141.49872251900524,140.6709988970033,140.86000284500187,140.86000284500187,141.50956164200034,141.50956164200034,141.50956164200034,,,1,001,2024-04-03_15h43.27.171,replicate_nsd,2023.2.3,59.67060774341229,2024-04-03 15h43.36.823529 -0400,
images/pair09 copy.jpg,0,8,0,0,0,0,8,8,8,141.50956164200034,,,,,,,,,,,,,,,,,,141.49889044400334,142.45818730199971,None,142.45830465900508,,,,,142.4583282750027,None,,,142.45839858800173,142.45842153700505,141.50956164200034,141.83491752200644,141.83491752200644,142.46669157100405,142.46669157100405,142.46669157100405,,,1,001,2024-04-03_15h43.27.171,replicate_nsd,2023.2.3,59.67060774341229,2024-04-03 15h43.36.823529 -0400,
images/23_28 copy 3.jpg,0,9,0,0,0,0,9,9,9,142.46669157100405,,,,,,,,,,,,,,,,,,142.45860964600433,143.30310687400197,None,143.30325787500624,,,,,143.3032855040001,None,,,143.3033670799996,143.3033939520028,142.46669157100405,142.65456773200276,142.65456773200276,143.3097239350027,143.3097239350027,143.3097239350027,,,1,001,2024-04-03_15h43.27.171,replicate_nsd,2023.2.3,59.67060774341229,2024-04-03 15h43.36.823529 -0400,
images/blank.jpg,0,10,1,0,0,0,10,10,10,143.3097239350027,,,,,,,,,,,,,,,,,,143.30359019300522,143.30559224300669,None,143.3057120950034,143.3097239350027,143.3097239350027,144.0763571800053,144.0763571800053,144.06978669800446,a,0.6872796110037598,None,144.07000234000589,144.07002881000517,,,,,,,,,1,001,2024-04-03_15h43.27.171,replicate_nsd,2023.2.3,59.67060774341229,2024-04-03 15h43.36.823529 -0400,
images/18_0 copy.jpg,0,11,0,0,0,0,11,11,11,144.0763571800053,,,,,,,,,,,,,,,,,,144.07020079300128,144.92136722900614,None,144.92147511600342,,,,,144.92149959700328,None,,,144.92156672200508,144.92158911700244,144.0763571800053,144.26963934800006,144.26963934800006,144.9278907850021,144.9278907850021,144.9278907850021,,,1,001,2024-04-03_15h43.27.171,replicate_nsd,2023.2.3,59.67060774341229,2024-04-03 15h43.36.823529 -0400,
images/16_40 copy 2.jpg,0,12,0,0,0,0,12,12,12,144.9278907850021,,,,,,,,,,,,,,,,,,144.9217508330039,145.76977006400557,None,145.76990019300138,,,,,145.76992658600648,None,,,145.77000655000302,145.7700328630017,144.9278907850021,145.11318868400122,145.11318868400122,145.7775979020007,145.7775979020007,145.7775979020007,,,1,001,2024-04-03_15h43.27.171,replicate_nsd,2023.2.3,59.67060774341229,2024-04-03 15h43.36.823529 -0400,
images/pair05 copy 4.jpg,0,13,0,0,0,0,13,13,13,145.7775979020007,,,,,,,,,,,,,,,,,,145.77022420400317,146.62241423000523,None,146.62254504300654,,,,,146.62256892200094,None,,,146.622638836001,146.62266200200247,145.7775979020007,145.97359520200553,145.97359520200553,146.6285904960023,146.6285904960023,146.6285904960023,,,1,001,2024-04-03_15h43.27.171,replicate_nsd,2023.2.3,59.67060774341229,2024-04-03 15h43.36.823529 -0400,
images/23_28 copy 3.jpg,0,14,0,0,0,0,14,14,14,146.6285904960023,,,,,,,,,,,,,,,,,,146.62283919699985,147.4346685030032,None,147.43478350200166,,,,,147.43480725800327,None,,,147.43487773300149,147.434900707005,146.6285904960023,146.8194406410039,146.8194406410039,147.43995827500476,147.43995827500476,147.43995827500476,,,1,001,2024-04-03_15h43.27.171,replicate_nsd,2023.2.3,59.67060774341229,2024-04-03 15h43.36.823529 -0400,
images/23_28 copy 3.jpg,0,15,0,0,0,0,15,15,15,147.43995827500476,,,,,,,,,,,,,,,,,,147.4350699580027,148.3153929320033,None,148.31554917300673,,,,,148.31557662800333,None,,,148.31565700600186,148.315683962006,147.43995827500476,147.63272864300234,147.63272864300234,148.3231214700063,148.3231214700063,148.3231214700063,,,1,001,2024-04-03_15h43.27.171,replicate_nsd,2023.2.3,59.67060774341229,2024-04-03 15h43.36.823529 -0400,
images/20_28 copy 5.jpg,0,16,0,0,0,0,16,16,16,148.3231214700063,,,,,,,,,,,,,,,,,,148.31587837100233,149.15902650300268,None,149.15927388200362,,,,,149.15932714300288,None,,,149.15946700500353,149.15951142300037,148.3231214700063,148.5135810530046,148.5135810530046,149.1698427490046,149.1698427490046,149.1698427490046,,,1,001,2024-04-03_15h43.27.171,replicate_nsd,2023.2.3,59.67060774341229,2024-04-03 15h43.36.823529 -0400,
images/5_40 copy 5.jpg,0,17,0,0,0,0,17,17,17,149.1698427490046,,,,,,,,,,,,,,,,,,149.15982058300142,150.05691946700244,None,150.057099690006,,,,,150.05713595500129,None,,,150.05723965000652,150.05727282500447,149.1698427490046,149.36782952700014,149.36782952700014,150.06587623300584,150.06587623300584,150.06587623300584,,,1,001,2024-04-03_15h43.27.171,replicate_nsd,2023.2.3,59.67060774341229,2024-04-03 15h43.36.823529 -0400,
images/13_28 copy 5.jpg,0,18,0,0,0,0,18,18,18,150.06587623300584,,,,,,,,,,,,,,,,,,150.05751618600334,150.87748196300527,None,150.87760349800374,,,,,150.87762720800674,None,,,150.87770440000168,150.87772828100424,150.06587623300584,150.28500776700093,150.28500776700093,150.88423854400025,150.88423854400025,150.88423854400025,,,1,001,2024-04-03_15h43.27.171,replicate_nsd,2023.2.3,59.67060774341229,2024-04-03 15h43.36.823529 -0400,
images/6_12 copy 2.jpg,0,19,0,0,0,0,19,19,19,150.88423854400025,,,,,,,,,,,,,,,,,,150.8779032770035,151.6553780270042,None,151.6554909520055,,,,,151.65551399000105,None,,,151.65558285300358,151.65560545700282,150.88423854400025,151.0668323570062,151.0668323570062,151.66147375900618,151.66147375900618,151.66147375900618,,,1,001,2024-04-03_15h43.27.171,replicate_nsd,2023.2.3,59.67060774341229,2024-04-03 15h43.36.823529 -0400,
images/blank.jpg,0,20,1,0,0,0,20,20,20,151.66147375900618,,,,,,,,,,,,,,,,,,151.6557729039996,151.6575515910008,None,151.65765732800355,151.66147375900618,151.66147375900618,152.45309537200228,152.45309537200228,152.4463126450064,None,,,152.44643400600035,152.44645952599967,,,,,,,,,1,001,2024-04-03_15h43.27.171,replicate_nsd,2023.2.3,59.67060774341229,2024-04-03 15h43.36.823529 -0400,
images/14_28 copy 6.jpg,0,21,0,0,0,0,21,21,21,152.45309537200228,,,,,,,,,,,,,,,,,,152.4466372550014,153.3039369170001,None,153.30406287200458,,,,,153.3040906160022,None,,,153.304171460004,153.3041976050008,152.45309537200228,152.6377112590053,152.6377112590053,153.31157478700334,153.31157478700334,153.31157478700334,,,1,001,2024-04-03_15h43.27.171,replicate_nsd,2023.2.3,59.67060774341229,2024-04-03 15h43.36.823529 -0400,
images/8_0 copy 6.jpg,0,22,0,0,0,0,22,22,22,153.31157478700334,,,,,,,,,,,,,,,,,,153.30439049000415,154.21154554000532,None,154.21165430499968,,,,,154.2116775100003,None,,,154.21174557100312,154.21176766800636,153.31157478700334,153.50495385999966,153.50495385999966,154.2180600980064,154.2180600980064,154.2180600980064,,,1,001,2024-04-03_15h43.27.171,replicate_nsd,2023.2.3,59.67060774341229,2024-04-03 15h43.36.823529 -0400,
images/24_28 copy 6.jpg,0,23,0,0,0,0,23,23,23,154.2180600980064,,,,,,,,,,,,,,,,,,154.21193467300327,155.05582953200064,None,155.05594286999985,,,,,155.0559664110042,None,,,155.056035970003,155.05605914199987,154.2180600980064,154.4206027590044,154.4206027590044,155.06423839700437,155.06423839700437,155.06423839700437,,,1,001,2024-04-03_15h43.27.171,replicate_nsd,2023.2.3,59.67060774341229,2024-04-03 15h43.36.823529 -0400,
images/pair18 copy 4.jpg,0,24,0,0,0,0,24,24,24,155.06423839700437,,,,,,,,,,,,,,,,,,155.05622594600572,155.93448734100093,None,155.93460561200482,,,,,155.93462937100412,None,,,155.93469858000026,155.93472203400597,155.06423839700437,155.25125034500525,155.25125034500525,155.94239464900602,155.94239464900602,155.94239464900602,,,1,001,2024-04-03_15h43.27.171,replicate_nsd,2023.2.3,59.67060774341229,2024-04-03 15h43.36.823529 -0400,
images/pair15 copy 2.jpg,0,25,0,0,0,0,25,25,25,155.94239464900602,,,,,,,,,,,,,,,,,,155.9348918560063,156.76561102800042,None,156.76576579700486,,,,,156.76579418500478,None,,,156.76588594400528,156.7659131420005,155.94239464900602,156.13375520599948,156.13375520599948,156.77376326600643,156.77376326600643,156.77376326600643,,,1,001,2024-04-03_15h43.27.171,replicate_nsd,2023.2.3,59.67060774341229,2024-04-03 15h43.36.823529 -0400,
images/pair08 copy.jpg,0,26,0,0,0,0,26,26,26,156.77376326600643,,,,,,,,,,,,,,,,,,156.76612047300296,157.59757992600498,None,157.59770733900223,,,,,157.59773217400652,None,,,157.59780131099978,157.59782483200252,156.77376326600643,156.96345119100442,156.96345119100442,157.60336050200567,157.60336050200567,157.60336050200567,,,1,001,2024-04-03_15h43.27.171,replicate_nsd,2023.2.3,59.67060774341229,2024-04-03 15h43.36.823529 -0400,
images/16_40 copy 2.jpg,0,27,0,0,0,0,27,27,27,157.60336050200567,,,,,,,,,,,,,,,,,,157.59799287400529,158.42407283300417,None,158.42419167800108,,,,,158.42421538100461,None,,,158.4242850869996,158.42430839900044,157.60336050200567,157.7917902180052,157.7917902180052,158.43363649000094,158.43363649000094,158.43363649000094,,,1,001,2024-04-03_15h43.27.171,replicate_nsd,2023.2.3,59.67060774341229,2024-04-03 15h43.36.823529 -0400,
images/21_40 copy 2.jpg,0,28,0,0,0,0,28,28,28,158.43363649000094,,,,,,,,,,,,,,,,,,158.42447557900596,159.2419747439999,None,159.2421541520016,,,,,159.24218895500235,None,,,159.24229025700333,159.2423230600034,158.43363649000094,158.62651202100096,158.62651202100096,159.25152528400213,159.25152528400213,159.25152528400213,,,1,001,2024-04-03_15h43.27.171,replicate_nsd,2023.2.3,59.67060774341229,2024-04-03 15h43.36.823529 -0400,
images/pair01 copy 4.jpg,0,29,0,0,0,0,29,29,29,159.25152528400213,,,,,,,,,,,,,,,,,,159.2425688190051,160.08521453400317,None,160.08533677000378,,,,,160.08536847600044,None,,,160.08548288600286,160.08551239900407,159.25152528400213,159.4428383360064,159.4428383360064,160.09174534400518,160.09174534400518,160.09174534400518,,,1,001,2024-04-03_15h43.27.171,replicate_nsd,2023.2.3,59.67060774341229,2024-04-03 15h43.36.823529 -0400,
images/blank.jpg,0,30,1,0,0,0,30,30,30,160.09174534400518,,,,,,,,,,,,,,,,,,160.0856924050022,160.08772938800394,None,160.08782493400213,160.09174534400518,160.09174534400518,160.8926470400038,160.8926470400038,160.88622560000658,f,0.785237727999629,None,160.88645394700143,160.8864798420036,,,,,,,,,1,001,2024-04-03_15h43.27.171,replicate_nsd,2023.2.3,59.67060774341229,2024-04-03 15h43.36.823529 -0400,
images/21_28.jpg,0,31,0,0,0,0,31,31,31,160.8926470400038,,,,,,,,,,,,,,,,,,160.88664671800507,161.7160338340036,None,161.7161610520052,,,,,161.7161877239996,None,,,161.7162693220016,161.71629309000127,160.8926470400038,161.08841295599996,161.08841295599996,161.72321179200662,161.72321179200662,161.72321179200662,,,1,001,2024-04-03_15h43.27.171,replicate_nsd,2023.2.3,59.67060774341229,2024-04-03 15h43.36.823529 -0400,
images/pair05 copy 7.jpg,0,32,0,0,0,0,32,32,32,161.72321179200662,,,,,,,,,,,,,,,,,,161.71646189199964,162.54750446800608,None,162.54763151100633,,,,,162.54765862400382,None,,,162.54774099500355,162.54776806000154,161.72321179200662,161.9107401470028,161.9107401470028,162.55670407000434,162.55670407000434,162.55670407000434,,,1,001,2024-04-03_15h43.27.171,replicate_nsd,2023.2.3,59.67060774341229,2024-04-03 15h43.36.823529 -0400,
images/20_40 copy.jpg,0,33,0,0,0,0,33,33,33,162.55670407000434,,,,,,,,,,,,,,,,,,162.5479606020017,163.4351228000014,None,163.43523457300034,,,,,163.43525852600578,None,,,163.43532786500145,163.4353506960033,162.55670407000434,162.75503320700227,162.75503320700227,163.44154861700372,163.44154861700372,163.44154861700372,,,1,001,2024-04-03_15h43.27.171,replicate_nsd,2023.2.3,59.67060774341229,2024-04-03 15h43.36.823529 -0400,
images/16_12 copy 2.jpg,0,34,0,0,0,0,34,34,34,163.44154861700372,,,,,,,,,,,,,,,,,,163.43551573300647,164.29149966499972,None,164.29162317600276,,,,,164.29164900199976,None,,,164.29172576300334,164.29175114800455,163.44154861700372,163.63129226599995,163.63129226599995,164.2979014040029,164.2979014040029,164.2979014040029,,,1,001,2024-04-03_15h43.27.171,replicate_nsd,2023.2.3,59.67060774341229,2024-04-03 15h43.36.823529 -0400,
images/11_0 copy 6.jpg,0,35,0,0,0,0,35,35,35,164.2979014040029,,,,,,,,,,,,,,,,,,164.2919324520044,165.1151710990016,None,165.1153003760046,,,,,165.115323996004,None,,,165.1153941970042,165.11541757300438,164.2979014040029,164.4887483690036,164.4887483690036,165.12116411600437,165.12116411600437,165.12116411600437,,,1,001,2024-04-03_15h43.27.171,replicate_nsd,2023.2.3,59.67060774341229,2024-04-03 15h43.36.823529 -0400,
images/11_0 copy.jpg,0,36,0,0,0,0,36,36,36,165.12116411600437,,,,,,,,,,,,,,,,,,165.1155822530054,165.94244173000334,None,165.94255738700303,,,,,165.9425845700025,None,,,165.94265749000624,165.94268049000675,165.12116411600437,165.31325468900468,165.31325468900468,165.9497040730057,165.9497040730057,165.9497040730057,,,1,001,2024-04-03_15h43.27.171,replicate_nsd,2023.2.3,59.67060774341229,2024-04-03 15h43.36.823529 -0400,
images/10_0 copy.jpg,0,37,0,0,0,0,37,37,37,165.9497040730057,,,,,,,,,,,,,,,,,,165.94285332100117,166.85598493100406,None,166.85619858100108,,,,,166.85624250600085,None,,,166.85636862500542,166.85641034000582,165.9497040730057,166.13779722600157,166.13779722600157,166.8644991350011,166.8644991350011,166.8644991350011,,,1,001,2024-04-03_15h43.27.171,replicate_nsd,2023.2.3,59.67060774341229,2024-04-03 15h43.36.823529 -0400,
images/pair09 copy.jpg,0,38,0,0,0,0,38,38,38,166.8644991350011,,,,,,,,,,,,,,,,,,166.85670904900326,167.77412591400207,None,167.77430521700444,,,,,167.7743396540027,None,,,167.7744391600063,167.7744716790039,166.8644991350011,167.06953607300238,167.06953607300238,167.78399694700056,167.78399694700056,167.78399694700056,,,1,001,2024-04-03_15h43.27.171,replicate_nsd,2023.2.3,59.67060774341229,2024-04-03 15h43.36.823529 -0400,
images/18_12 copy 3.jpg,0,39,0,0,0,0,39,39,39,167.78399694700056,,,,,,,,,,,,,,,,,,167.77470945600362,168.68906536300346,None,168.68917290600075,,,,,168.68919586500124,None,,,168.68926326200017,168.68928532300197,167.78399694700056,168.00774415900378,168.00774415900378,168.6944409350035,168.6944409350035,168.6944409350035,,,1,001,2024-04-03_15h43.27.171,replicate_nsd,2023.2.3,59.67060774341229,2024-04-03 15h43.36.823529 -0400,
images/blank.jpg,0,40,1,0,0,0,40,40,40,168.6944409350035,,,,,,,,,,,,,,,,,,168.6894482120042,168.69095096800447,None,168.6910343060008,168.6944409350035,168.6944409350035,169.43591299700347,169.43591299700347,169.42967393400613,None,,,169.42982334800035,169.42985127700376,,,,,,,,,1,001,2024-04-03_15h43.27.171,replicate_nsd,2023.2.3,59.67060774341229,2024-04-03 15h43.36.823529 -0400,
images/15_40 copy.jpg,0,41,0,0,0,0,41,41,41,169.43591299700347,,,,,,,,,,,,,,,,,,169.4300365950039,170.2577979320049,None,170.2580120010025,,,,,170.25805760600633,None,,,170.25820169600047,170.25824360700062,169.43591299700347,169.61940385100024,169.61940385100024,170.26627463700424,170.26627463700424,170.26627463700424,,,1,001,2024-04-03_15h43.27.171,replicate_nsd,2023.2.3,59.67060774341229,2024-04-03 15h43.36.823529 -0400,
images/17_40 copy 5.jpg,0,42,0,0,0,0,42,42,42,170.26627463700424,,,,,,,,,,,,,,,,,,170.25855898100417,171.21852188200137,None,171.21867744000338,,,,,171.21871083600126,None,,,171.2188105200039,171.21884348800086,170.26627463700424,170.48614857800567,170.48614857800567,171.2259511230004,171.2259511230004,171.2259511230004,,,1,001,2024-04-03_15h43.27.171,replicate_nsd,2023.2.3,59.67060774341229,2024-04-03 15h43.36.823529 -0400,
images/13_28 copy 7.jpg,0,43,0,0,0,0,43,43,43,171.2259511230004,,,,,,,,,,,,,,,,,,171.21907998200186,172.11545987700083,None,172.11555735000002,,,,,172.11557655500656,None,,,172.11563423100597,172.1156535820046,171.2259511230004,171.44995521500095,171.44995521500095,172.12282889000198,172.12282889000198,172.12282889000198,,,1,001,2024-04-03_15h43.27.171,replicate_nsd,2023.2.3,59.67060774341229,2024-04-03 15h43.36.823529 -0400,
images/pair11 copy 4.jpg,0,44,0,0,0,0,44,44,44,172.12282889000198,,,,,,,,,,,,,,,,,,172.1157929270048,172.92417895000108,None,172.92431116600346,,,,,172.92433502300264,None,,,172.92440818100295,172.92443170900515,172.12282889000198,172.31063976000587,172.31063976000587,172.9311129120033,172.9311129120033,172.9311129120033,,,1,001,2024-04-03_15h43.27.171,replicate_nsd,2023.2.3,59.67060774341229,2024-04-03 15h43.36.823529 -0400,
images/14_28 copy 4.jpg,0,45,0,0,0,0,45,45,45,172.9311129120033,,,,,,,,,,,,,,,,,,172.92460321200633,173.747840379001,None,173.74795053100388,,,,,173.74797393500194,None,,,173.74804253200273,173.74806484900182,172.9311129120033,173.1234946590048,173.1234946590048,173.75369725800556,173.75369725800556,173.75369725800556,,,1,001,2024-04-03_15h43.27.171,replicate_nsd,2023.2.3,59.67060774341229,2024-04-03 15h43.36.823529 -0400,
images/23_28 copy 6.jpg,0,46,0,0,0,0,46,46,46,173.75369725800556,,,,,,,,,,,,,,,,,,173.74822779100214,174.5731870200034,None,174.57329410700186,,,,,174.57331686399993,None,,,174.573385143005,174.57340799600206,173.75369725800556,173.94163832300546,173.94163832300546,174.58053849100543,174.58053849100543,174.58053849100543,,,1,001,2024-04-03_15h43.27.171,replicate_nsd,2023.2.3,59.67060774341229,2024-04-03 15h43.36.823529 -0400,
images/19_28 copy 5.jpg,0,47,0,0,0,0,47,47,47,174.58053849100543,,,,,,,,,,,,,,,,,,174.5735707480053,175.41800162200525,None,175.41811190800217,,,,,175.4181347430058,None,,,175.41820401100267,175.41822653900454,174.58053849100543,174.77034615600132,174.77034615600132,175.42559308199998,175.42559308199998,175.42559308199998,,,1,001,2024-04-03_15h43.27.171,replicate_nsd,2023.2.3,59.67060774341229,2024-04-03 15h43.36.823529 -0400,
images/pair04.jpg,0,48,0,0,0,0,48,48,48,175.42559308199998,,,,,,,,,,,,,,,,,,175.41838909200305,176.22318555000675,None,176.22329769399948,,,,,176.2233210570048,None,,,176.22339071200258,176.22341344400047,175.42559308199998,175.61362111100607,175.61362111100607,176.2294085329995,176.2294085329995,176.2294085329995,,,1,001,2024-04-03_15h43.27.171,replicate_nsd,2023.2.3,59.67060774341229,2024-04-03 15h43.36.823529 -0400,
images/pair18 copy 4.jpg,0,49,0,0,0,0,49,49,49,176.2294085329995,,,,,,,,,,,,,,,,,,176.2235795710003,177.05957352500263,None,177.0597315039995,,,,,177.05976522900164,None,,,177.0598630060049,177.0598950420026,176.2294085329995,176.4143641240007,176.4143641240007,177.0667356930062,177.0667356930062,177.0667356930062,,,1,001,2024-04-03_15h43.27.171,replicate_nsd,2023.2.3,59.67060774341229,2024-04-03 15h43.36.823529 -0400,
images/blank.jpg,0,50,1,0,0,0,50,50,50,177.0667356930062,,,,,,,,,,,,,,,,,,177.06012572100008,177.06250796600216,None,177.0626082440067,177.0667356930062,177.0667356930062,177.83840500500082,177.83840500500082,177.8317091880017,a,0.6382502369961003,None,177.83193676600058,177.8319627880046,,,,,,,,,1,001,2024-04-03_15h43.27.171,replicate_nsd,2023.2.3,59.67060774341229,2024-04-03 15h43.36.823529 -0400,
images/13_0 copy 3.jpg,0,51,0,0,0,0,51,51,51,177.83840500500082,,,,,,,,,,,,,,,,,,177.8321269310036,178.659232308004,None,178.6593522740004,,,,,178.6593773220011,None,,,178.6594509130009,178.65947528200195,177.83840500500082,178.03444335400127,178.03444335400127,178.6658218260054,178.6658218260054,178.6658218260054,,,1,001,2024-04-03_15h43.27.171,replicate_nsd,2023.2.3,59.67060774341229,2024-04-03 15h43.36.823529 -0400,
images/5_28 copy 7.jpg,0,52,0,0,0,0,52,52,52,178.6658218260054,,,,,,,,,,,,,,,,,,178.65964794600586,179.4844631330052,None,179.4845739690063,,,,,179.48459776100208,None,,,179.48466856300365,179.48469152000325,178.6658218260054,178.85355416899984,178.85355416899984,179.4910593800014,179.4910593800014,179.4910593800014,,,1,001,2024-04-03_15h43.27.171,replicate_nsd,2023.2.3,59.67060774341229,2024-04-03 15h43.36.823529 -0400,
images/pair05 copy 4.jpg,0,53,0,0,0,0,53,53,53,179.4910593800014,,,,,,,,,,,,,,,,,,179.48485854400496,180.307963913001,None,180.30807916400227,,,,,180.30810255700635,None,,,180.3081742880022,180.30819716900442,179.4910593800014,179.68195434300287,179.68195434300287,180.31402161000005,180.31402161000005,180.31402161000005,,,1,001,2024-04-03_15h43.27.171,replicate_nsd,2023.2.3,59.67060774341229,2024-04-03 15h43.36.823529 -0400,
images/20_28 copy 5.jpg,0,54,0,0,0,0,54,54,54,180.31402161000005,,,,,,,,,,,,,,,,,,180.30836572900444,181.13815594100015,None,181.13827037100418,,,,,181.13829361800163,None,,,181.1383621500063,181.13838484000007,180.31402161000005,180.50628545500513,180.50628545500513,181.14561543300078,181.14561543300078,181.14561543300078,,,1,001,2024-04-03_15h43.27.171,replicate_nsd,2023.2.3,59.67060774341229,2024-04-03 15h43.36.823529 -0400,
images/pair08 copy 3.jpg,0,55,0,0,0,0,55,55,55,181.14561543300078,,,,,,,,,,,,,,,,,,181.13855057000183,181.97741283200594,None,181.97752628000308,,,,,181.97754989399982,None,,,181.97761937700125,181.97764204800478,181.14561543300078,181.34553383900493,181.34553383900493,181.98322757300048,181.98322757300048,181.98322757300048,,,1,001,2024-04-03_15h43.27.171,replicate_nsd,2023.2.3,59.67060774341229,2024-04-03 15h43.36.823529 -0400,
images/17_40 copy 5.jpg,0,56,0,0,0,0,56,56,56,181.98322757300048,,,,,,,,,,,,,,,,,,181.97780711200176,182.822477532005,None,182.82267755000066,,,,,182.82272097399982,None,,,182.8228332580038,182.82287077300134,181.98322757300048,182.16908883900032,182.16908883900032,182.83022199400148,182.83022199400148,182.83022199400148,,,1,001,2024-04-03_15h43.27.171,replicate_nsd,2023.2.3,59.67060774341229,2024-04-03 15h43.36.823529 -0400,
images/24_0.jpg,0,57,0,0,0,0,57,57,57,182.83022199400148,,,,,,,,,,,,,,,,,,182.823131560006,183.73923888400168,None,183.73935188000178,,,,,183.7393749910043,None,,,183.7394463410019,183.739469705004,182.83022199400148,183.02773879600136,183.02773879600136,183.74581034800212,183.74581034800212,183.74581034800212,,,1,001,2024-04-03_15h43.27.171,replicate_nsd,2023.2.3,59.67060774341229,2024-04-03 15h43.36.823529 -0400,
images/10_28.jpg,0,58,0,0,0,0,58,58,58,183.74581034800212,,,,,,,,,,,,,,,,,,183.73974387800263,184.59775196300325,None,184.59791564400075,,,,,184.59794985700137,None,,,184.59805157500523,184.5980849550033,183.74581034800212,183.93222212399996,183.93222212399996,184.6047348120046,184.6047348120046,184.6047348120046,,,1,001,2024-04-03_15h43.27.171,replicate_nsd,2023.2.3,59.67060774341229,2024-04-03 15h43.36.823529 -0400,
images/14_28 copy 3.jpg,0,59,0,0,0,0,59,59,59,184.6047348120046,,,,,,,,,,,,,,,,,,184.59832443699997,185.51767897300306,None,185.51783751400217,,,,,185.51786554800492,None,,,185.51794871600578,185.5179747630027,184.6047348120046,184.79873586699978,184.79873586699978,185.52364602800662,185.52364602800662,185.52364602800662,,,1,001,2024-04-03_15h43.27.171,replicate_nsd,2023.2.3,59.67060774341229,2024-04-03 15h43.36.823529 -0400,
images/blank.jpg,0,60,1,0,0,0,60,60,60,185.52364602800662,,,,,,,,,,,,,,,,,,185.5181685150019,185.52001126700634,None,185.52010588600388,185.52364602800662,185.52364602800662,186.33603187700646,186.33603187700646,186.32919616500294,e,0.4974054830017849,None,186.32945185900462,186.32948144300462,,,,,,,,,1,001,2024-04-03_15h43.27.171,replicate_nsd,2023.2.3,59.67060774341229,2024-04-03 15h43.36.823529 -0400,
images/15_40 copy 5.jpg,0,61,0,0,0,0,61,61,61,186.33603187700646,,,,,,,,,,,,,,,,,,186.32967225200264,187.145359715003,None,187.14547266800218,,,,,187.1454968820035,None,,,187.1455683200038,187.1455914150065,186.33603187700646,186.5268421130022,186.5268421130022,187.15218776600523,187.15218776600523,187.15218776600523,,,1,001,2024-04-03_15h43.27.171,replicate_nsd,2023.2.3,59.67060774341229,2024-04-03 15h43.36.823529 -0400,
images/5_12 copy 3.jpg,0,62,0,0,0,0,62,62,62,187.15218776600523,,,,,,,,,,,,,,,,,,187.1457578050031,187.97499064300064,None,187.9751301360011,,,,,187.97515533400292,None,,,187.97522557800403,187.97524941600568,187.15218776600523,187.3416706470016,187.3416706470016,187.98336538500007,187.98336538500007,187.98336538500007,,,1,001,2024-04-03_15h43.27.171,replicate_nsd,2023.2.3,59.67060774341229,2024-04-03 15h43.36.823529 -0400,
images/pair08 copy 6.jpg,0,63,0,0,0,0,63,63,63,187.98336538500007,,,,,,,,,,,,,,,,,,187.97542989200156,188.7996151200059,None,188.79973164200055,,,,,188.79975544100307,None,,,188.7998246290008,188.79984729400167,187.98336538500007,188.1810505490066,188.1810505490066,188.8061552729996,188.8061552729996,188.8061552729996,,,1,001,2024-04-03_15h43.27.171,replicate_nsd,2023.2.3,59.67060774341229,2024-04-03 15h43.36.823529 -0400,
images/pair09.jpg,0,64,0,0,0,0,64,64,64,188.8061552729996,,,,,,,,,,,,,,,,,,188.8000127520063,189.6177245450017,None,189.6178399710043,,,,,189.6178635660035,None,,,189.61793366500206,189.61795693000022,188.8061552729996,188.99767232000158,188.99767232000158,189.62383626800147,189.62383626800147,189.62383626800147,,,1,001,2024-04-03_15h43.27.171,replicate_nsd,2023.2.3,59.67060774341229,2024-04-03 15h43.36.823529 -0400,
images/pair05 copy 7.jpg,0,65,0,0,0,0,65,65,65,189.62383626800147,,,,,,,,,,,,,,,,,,189.6181260490048,190.44515185800265,None,190.44527385100082,,,,,190.44529757800046,None,,,190.44537155800208,190.44539488900045,189.62383626800147,189.81384941500437,189.81384941500437,190.45136397900205,190.45136397900205,190.45136397900205,,,1,001,2024-04-03_15h43.27.171,replicate_nsd,2023.2.3,59.67060774341229,2024-04-03 15h43.36.823529 -0400,
images/10_0 copy 3.jpg,0,66,0,0,0,0,66,66,66,190.45136397900205,,,,,,,,,,,,,,,,,,190.4455645170019,191.26374215600663,None,191.26385473200207,,,,,191.26387783600512,None,,,191.26394565000373,191.26396831300372,190.45136397900205,190.64256731400383,190.64256731400383,191.2691770599995,191.2691770599995,191.2691770599995,,,1,001,2024-04-03_15h43.27.171,replicate_nsd,2023.2.3,59.67060774341229,2024-04-03 15h43.36.823529 -0400,
images/14_28 copy 6.jpg,0,67,0,0,0,0,67,67,67,191.2691770599995,,,,,,,,,,,,,,,,,,191.26413274300285,192.08188721600163,None,192.08199669600435,,,,,192.0820172540043,None,,,192.08207849800237,192.0820991770015,191.2691770599995,191.46842788000504,191.46842788000504,192.08769768300408,192.08769768300408,192.08769768300408,,,1,001,2024-04-03_15h43.27.171,replicate_nsd,2023.2.3,59.67060774341229,2024-04-03 15h43.36.823529 -0400,
images/16_12 copy 2.jpg,0,68,0,0,0,0,68,68,68,192.08769768300408,,,,,,,,,,,,,,,,,,192.08224736100237,192.90160999100044,None,192.90172619700024,,,,,192.90175006800564,None,,,192.90181880400633,192.90184175000468,192.08769768300408,192.2758653350029,192.2758653350029,192.909094886003,192.909094886003,192.909094886003,,,1,001,2024-04-03_15h43.27.171,replicate_nsd,2023.2.3,59.67060774341229,2024-04-03 15h43.36.823529 -0400,
images/9_0 copy 7.jpg,0,69,0,0,0,0,69,69,69,192.909094886003,,,,,,,,,,,,,,,,,,192.90201012400212,193.784664179002,None,193.7847788920044,,,,,193.78480305700214,None,,,193.78487300800043,193.78489609200187,192.909094886003,193.1334674460013,193.1334674460013,193.79159572299977,193.79159572299977,193.79159572299977,,,1,001,2024-04-03_15h43.27.171,replicate_nsd,2023.2.3,59.67060774341229,2024-04-03 15h43.36.823529 -0400,
images/21_0 copy 6.jpg,0,70,0,0,0,0,70,70,70,193.79159572299977,,,,,,,,,,,,,,,,,,193.78506478200143,194.65155077500094,None,194.65168743200047,,,,,194.65171128100337,None,,,194.65178171900334,194.65180519300338,193.79159572299977,193.9896733610003,193.9896733610003,194.65774719000183,194.65774719000183,194.65774719000183,,,1,001,2024-04-03_15h43.27.171,replicate_nsd,2023.2.3,59.67060774341229,2024-04-03 15h43.36.823529 -0400,
images/blank.jpg,0,71,1,0,0,0,71,71,71,194.65774719000183,,,,,,,,,,,,,,,,,,194.65197597500082,194.6539251330032,None,194.65403915200295,194.65774719000183,194.65774719000183,195.44388696600072,195.44388696600072,195.4386607300039,h,0.7352217980005662,None,195.43887772699964,195.43890366000414,,,,,,,,,1,001,2024-04-03_15h43.27.171,replicate_nsd,2023.2.3,59.67060774341229,2024-04-03 15h43.36.823529 -0400,
images/blank.jpg,0,72,1,0,0,0,72,72,72,195.44388696600072,,,,,,,,,,,,,,,,,,195.4390680409997,195.4405854450015,None,195.44067281600292,195.44388696600072,195.44388696600072,196.21078738800134,196.21078738800134,196.20527834400127,space,0.6330949870025506,None,196.20551994100242,196.2055475590023,,,,,,,,,1,001,2024-04-03_15h43.27.171,replicate_nsd,2023.2.3,59.67060774341229,2024-04-03 15h43.36.823529 -0400,
images/blank.jpg,0,73,1,0,0,0,73,73,73,196.21078738800134,,,,,,,,,,,,,,,,,,196.2057214209999,196.20724030800193,None,196.20732160000625,196.21078738800134,196.21078738800134,197.01888775400585,197.01888775400585,197.01372069300123,o,0.7662067010023748,None,197.01393604300392,197.0139613470019,,,,,,,,,1,001,2024-04-03_15h43.27.171,replicate_nsd,2023.2.3,59.67060774341229,2024-04-03 15h43.36.823529 -0400,
images/blank.jpg,0,74,1,1,0,0,74,74,74,197.01888775400585,,,,,,,,,,,,,,,,,,197.01412455000536,197.01564526800212,None,197.0157315910037,197.01888775400585,197.01888775400585,197.78194149000046,197.78194149000046,197.7763595830038,t,0.6540944389998913,None,197.77659015500103,197.77661664100015,,,,,,,,,1,001,2024-04-03_15h43.27.171,replicate_nsd,2023.2.3,59.67060774341229,2024-04-03 15h43.36.823529 -0400,
images/blank.jpg,0,0,1,0,1,0,75,75,75,197.78194149000046,,,,,,,,,,,,,,,,,,197.7767853309997,197.77838605700526,None,197.77848203400208,197.78194149000046,197.78194149000046,198.56448970800557,198.56448970800557,198.55970262200572,e,0.7190349899974535,None,198.55992005300504,199.6736876089999,,,,,,,198.56448970800557,199.6789203389999,1,001,2024-04-03_15h43.27.171,replicate_nsd,2023.2.3,59.67060774341229,2024-04-03 15h43.36.823529 -0400,
images/blank.jpg,0,1,1,0,1,0,76,76,76,199.6789203389999,,,,,,,,,,,,,,,,,,199.67390843900648,199.67542211399996,None,199.67552192300354,199.6789203389999,199.6789203389999,200.48930594000558,200.48930594000558,200.48363284700463,g,0.3782246090049739,None,200.48384995300148,200.48387579700648,,,,,,,,,1,001,2024-04-03_15h43.27.171,replicate_nsd,2023.2.3,59.67060774341229,2024-04-03 15h43.36.823529 -0400,
images/blank.jpg,0,2,1,0,1,0,77,77,77,200.48930594000558,,,,,,,,,,,,,,,,,,200.48403611400136,200.48572350800532,None,200.485805109005,200.48930594000558,200.48930594000558,201.31685533600103,201.31685533600103,201.3095347940034,None,,,201.30964438800584,201.30967083100404,,,,,,,,,1,001,2024-04-03_15h43.27.171,replicate_nsd,2023.2.3,59.67060774341229,2024-04-03 15h43.36.823529 -0400,
images/pair14.jpg,0,3,0,0,1,0,78,78,78,201.31685533600103,,,,,,,,,,,,,,,,,,201.30984655200155,202.11818580700492,None,202.1182998000004,,,,,202.1183247240042,None,,,202.1183975830063,202.11842062300275,201.31685533600103,201.50916739600507,201.50916739600507,202.12511636300042,202.12511636300042,202.12511636300042,,,1,001,2024-04-03_15h43.27.171,replicate_nsd,2023.2.3,59.67060774341229,2024-04-03 15h43.36.823529 -0400,
images/10_28 copy 7.jpg,0,4,0,0,1,0,79,79,79,202.12511636300042,,,,,,,,,,,,,,,,,,202.1185873600043,202.992649961001,None,202.99276454400388,,,,,202.99278832800337,None,,,202.99285935500666,202.99288186400372,202.12511636300042,202.3211617840061,202.3211617840061,202.99937297400174,202.99937297400174,202.99937297400174,,,1,001,2024-04-03_15h43.27.171,replicate_nsd,2023.2.3,59.67060774341229,2024-04-03 15h43.36.823529 -0400,
images/11_40 copy 6.jpg,0,5,0,0,1,0,80,80,80,202.99937297400174,,,,,,,,,,,,,,,,,,202.99304691800353,203.81321090200072,None,203.81334517100186,,,,,203.8133777280018,None,,,203.81347000900132,203.8134950060048,202.99937297400174,203.1908381070025,203.1908381070025,203.81966677400487,203.81966677400487,203.81966677400487,,,1,001,2024-04-03_15h43.27.171,replicate_nsd,2023.2.3,59.67060774341229,2024-04-03 15h43.36.823529 -0400,
images/23_40 copy 6.jpg,0,6,0,0,1,0,81,81,81,203.81966677400487,,,,,,,,,,,,,,,,,,203.81366693699965,204.62398719799967,None,204.6241023620023,,,,,204.62412535100157,None,,,204.62419590500213,204.62421910500416,203.81966677400487,204.0037697440057,204.0037697440057,204.62992599800054,204.62992599800054,204.62992599800054,,,1,001,2024-04-03_15h43.27.171,replicate_nsd,2023.2.3,59.67060774341229,2024-04-03 15h43.36.823529 -0400,
images/11_28 copy 4.jpg,0,7,0,0,1,0,82,82,82,204.62992599800054,,,,,,,,,,,,,,,,,,204.62438388300507,205.4326688190049,None,205.43278228599956,,,,,205.43280544600566,None,,,205.43287442000292,205.4328977730038,204.62992599800054,204.81711724000343,204.81711724000343,205.43889830900298,205.43889830900298,205.43889830900298,,,1,001,2024-04-03_15h43.27.171,replicate_nsd,2023.2.3,59.67060774341229,2024-04-03 15h43.36.823529 -0400,
images/15_12 copy 6.jpg,0,8,0,0,1,0,83,83,83,205.43889830900298,,,,,,,,,,,,,,,,,,205.4330627800009,206.27113598800497,None,206.27124786200147,,,,,206.27127158600342,None,,,206.27134074900096,206.27136357000563,205.43889830900298,205.62937777600018,205.62937777600018,206.27750361200015,206.27750361200015,206.27750361200015,,,1,001,2024-04-03_15h43.27.171,replicate_nsd,2023.2.3,59.67060774341229,2024-04-03 15h43.36.823529 -0400,
images/12_28 copy 4.jpg,0,9,0,0,1,0,84,84,84,206.27750361200015,,,,,,,,,,,,,,,,,,206.2715275390001,207.14273025100556,None,207.14295233800658,,,,,207.14302009100356,None,,,207.14311912600533,207.1431518870013,206.27750361200015,206.4601393740013,206.4601393740013,207.1508037970052,207.1508037970052,207.1508037970052,,,1,001,2024-04-03_15h43.27.171,replicate_nsd,2023.2.3,59.67060774341229,2024-04-03 15h43.36.823529 -0400,
images/blank.jpg,0,10,1,0,1,0,85,85,85,207.1508037970052,,,,,,,,,,,,,,,,,,207.14342731000215,207.14623133100395,None,207.1464122220059,207.1508037970052,207.1508037970052,207.991030752004,207.991030752004,207.9840731150034,None,,,207.9842111570033,207.98425367100572,,,,,,,,,1,001,2024-04-03_15h43.27.171,replicate_nsd,2023.2.3,59.67060774341229,2024-04-03 15h43.36.823529 -0400,
images/21_40 copy 5.jpg,0,11,0,0,1,0,86,86,86,207.991030752004,,,,,,,,,,,,,,,,,,207.98445601099957,208.8595454680035,None,208.85965599100018,,,,,208.85968011600198,None,,,208.859749371004,208.85977228100091,207.991030752004,208.2012095970058,208.2012095970058,208.86627921200125,208.86627921200125,208.86627921200125,,,1,001,2024-04-03_15h43.27.171,replicate_nsd,2023.2.3,59.67060774341229,2024-04-03 15h43.36.823529 -0400,
images/6_40 copy 6.jpg,0,12,0,0,1,0,87,87,87,208.86627921200125,,,,,,,,,,,,,,,,,,208.85994062800455,209.6612743930018,None,209.6613883720056,,,,,209.66141276700364,None,,,209.6614843110001,209.66150734000257,208.86627921200125,209.0517864680005,209.0517864680005,209.6673878080037,209.6673878080037,209.6673878080037,,,1,001,2024-04-03_15h43.27.171,replicate_nsd,2023.2.3,59.67060774341229,2024-04-03 15h43.36.823529 -0400,
images/20_28 copy 4.jpg,0,13,0,0,1,0,88,88,88,209.6673878080037,,,,,,,,,,,,,,,,,,209.66167653300363,210.48660318800103,None,210.48671374100377,,,,,210.48673691400472,None,,,210.48680611900636,210.48682880100387,209.6673878080037,209.86037094000494,209.86037094000494,210.4929149180025,210.4929149180025,210.4929149180025,,,1,001,2024-04-03_15h43.27.171,replicate_nsd,2023.2.3,59.67060774341229,2024-04-03 15h43.36.823529 -0400,
images/14_12 copy 6.jpg,0,14,0,0,1,0,89,89,89,210.4929149180025,,,,,,,,,,,,,,,,,,210.48699346899957,211.40431226800138,None,211.40444872600347,,,,,211.40447422800207,None,,,211.40454589900037,211.40457005800272,210.4929149180025,210.7085274120036,210.7085274120036,211.41151474300568,211.41151474300568,211.41151474300568,,,1,001,2024-04-03_15h43.27.171,replicate_nsd,2023.2.3,59.67060774341229,2024-04-03 15h43.36.823529 -0400,
images/19_12 copy 3.jpg,0,15,0,0,1,0,90,90,90,211.41151474300568,,,,,,,,,,,,,,,,,,211.40474503900623,212.24007338900265,None,212.24028846500005,,,,,212.24034487000608,None,,,212.2404798610005,212.2405259330044,211.41151474300568,211.60258048499963,211.60258048499963,212.24970798300637,212.24970798300637,212.24970798300637,,,1,001,2024-04-03_15h43.27.171,replicate_nsd,2023.2.3,59.67060774341229,2024-04-03 15h43.36.823529 -0400,
images/20_12 copy 5.jpg,0,16,0,0,1,0,91,91,91,212.24970798300637,,,,,,,,,,,,,,,,,,212.24086941800488,213.06909856100538,None,213.06921427300404,,,,,213.0692384550057,None,,,213.069309960003,213.0693331440052,212.24970798300637,212.43956398000591,212.43956398000591,213.07521230000566,213.07521230000566,213.07521230000566,,,1,001,2024-04-03_15h43.27.171,replicate_nsd,2023.2.3,59.67060774341229,2024-04-03 15h43.36.823529 -0400,
images/10_28 copy 5.jpg,0,17,0,0,1,0,92,92,92,213.07521230000566,,,,,,,,,,,,,,,,,,213.06950127200253,213.8797194860017,None,213.87984969100216,,,,,213.879873306003,None,,,213.87994203000562,213.8799652440066,213.07521230000566,213.26070329200593,213.26070329200593,213.8873446620055,213.8873446620055,213.8873446620055,,,1,001,2024-04-03_15h43.27.171,replicate_nsd,2023.2.3,59.67060774341229,2024-04-03 15h43.36.823529 -0400,
images/pair12 copy 5.jpg,0,18,0,0,1,0,93,93,93,213.8873446620055,,,,,,,,,,,,,,,,,,213.8801378670032,214.69854865200614,None,214.69869983700482,,,,,214.69872822300385,None,,,214.69880966799974,214.69883616600418,213.8873446620055,214.07551618000434,214.07551618000434,214.7077201120046,214.7077201120046,214.7077201120046,,,1,001,2024-04-03_15h43.27.171,replicate_nsd,2023.2.3,59.67060774341229,2024-04-03 15h43.36.823529 -0400,
images/5_0 copy 3.jpg,0,19,0,0,1,0,94,94,94,214.7077201120046,,,,,,,,,,,,,,,,,,214.69903106200218,215.51059293300204,None,215.51071360900096,,,,,215.51073820400052,None,,,215.51080811800057,215.5108309050047,214.7077201120046,214.90023942400148,214.90023942400148,215.5161086050066,215.5161086050066,215.5161086050066,,,1,001,2024-04-03_15h43.27.171,replicate_nsd,2023.2.3,59.67060774341229,2024-04-03 15h43.36.823529 -0400,
images/blank.jpg,0,20,1,0,1,0,95,95,95,215.5161086050066,,,,,,,,,,,,,,,,,,215.5110011620054,215.5126449140007,None,215.51272856099968,215.5161086050066,215.5161086050066,216.2757485320035,216.2757485320035,216.2704783070003,None,,,216.27058718300395,216.27061277600296,,,,,,,,,1,001,2024-04-03_15h43.27.171,replicate_nsd,2023.2.3,59.67060774341229,2024-04-03 15h43.36.823529 -0400,
images/15_40 copy 5.jpg,0,21,0,0,1,0,96,96,96,216.2757485320035,,,,,,,,,,,,,,,,,,216.27078522500233,217.07413975200325,None,217.0742522110013,,,,,217.07427639800153,None,,,217.07434679700236,217.0743700860039,216.2757485320035,216.46572509200632,216.46572509200632,217.08014906000608,217.08014906000608,217.08014906000608,,,1,001,2024-04-03_15h43.27.171,replicate_nsd,2023.2.3,59.67060774341229,2024-04-03 15h43.36.823529 -0400,
images/10_0.jpg,0,22,0,0,1,0,97,97,97,217.08014906000608,,,,,,,,,,,,,,,,,,217.074547987002,217.8843643930013,None,217.8844878910022,,,,,217.8845110790062,None,,,217.88457975600613,217.88460214400402,217.08014906000608,217.27515638100158,217.27515638100158,217.88987647400063,217.88987647400063,217.88987647400063,,,1,001,2024-04-03_15h43.27.171,replicate_nsd,2023.2.3,59.67060774341229,2024-04-03 15h43.36.823529 -0400,
images/10_28 copy 5.jpg,0,23,0,0,1,0,98,98,98,217.88987647400063,,,,,,,,,,,,,,,,,,217.8847677310041,218.68667940300656,None,218.68679733600584,,,,,218.68682156900468,None,,,218.68689418000577,218.68691830300668,217.88987647400063,218.07522772200173,218.07522772200173,218.69232148900483,218.69232148900483,218.69232148900483,,,1,001,2024-04-03_15h43.27.171,replicate_nsd,2023.2.3,59.67060774341229,2024-04-03 15h43.36.823529 -0400,
images/8_0 copy 6.jpg,0,24,0,0,1,0,99,99,99,218.69232148900483,,,,,,,,,,,,,,,,,,218.68709025100543,219.51269251300255,None,219.5128115700063,,,,,219.5128358660004,None,,,219.51290676000644,219.512929772005,218.69232148900483,218.8752224570053,218.8752224570053,219.52036675300042,219.52036675300042,219.52036675300042,,,1,001,2024-04-03_15h43.27.171,replicate_nsd,2023.2.3,59.67060774341229,2024-04-03 15h43.36.823529 -0400,
images/pair18 copy 4.jpg,0,25,0,0,1,0,100,100,100,219.52036675300042,,,,,,,,,,,,,,,,,,219.51309887300158,220.31204165900272,None,220.31216948100337,,,,,220.31219399600377,None,,,220.31226855900604,220.31229209100275,219.52036675300042,219.70580089200666,219.70580089200666,220.32748501400056,220.32748501400056,220.32748501400056,,,1,001,2024-04-03_15h43.27.171,replicate_nsd,2023.2.3,59.67060774341229,2024-04-03 15h43.36.823529 -0400,
images/12_28.jpg,0,26,0,0,1,0,101,101,101,220.32748501400056,,,,,,,,,,,,,,,,,,220.3124678880049,221.14077122000162,None,221.14086895299988,,,,,221.14088912599982,None,,,221.14094841600308,221.14097509100247,220.32748501400056,220.52044238100643,220.52044238100643,221.14629488700302,221.14629488700302,221.14629488700302,,,1,001,2024-04-03_15h43.27.171,replicate_nsd,2023.2.3,59.67060774341229,2024-04-03 15h43.36.823529 -0400,
images/10_0 copy.jpg,0,27,0,0,1,0,102,102,102,221.14629488700302,,,,,,,,,,,,,,,,,,221.1411698640004,221.95402876800654,None,221.95415639900602,,,,,221.95418342900666,None,,,221.954263394,221.95429018300638,221.14629488700302,221.331506817005,221.331506817005,221.96209965600428,221.96209965600428,221.96209965600428,,,1,001,2024-04-03_15h43.27.171,replicate_nsd,2023.2.3,59.67060774341229,2024-04-03 15h43.36.823529 -0400,
images/pair02 copy.jpg,0,28,0,0,1,0,103,103,103,221.96209965600428,,,,,,,,,,,,,,,,,,221.95448054500594,222.76757578800607,None,222.76768980300403,,,,,222.76771285300492,None,,,222.7677831280016,222.76780534400314,221.96209965600428,222.15844911600288,222.15844911600288,222.7736529850008,222.7736529850008,222.7736529850008,,,1,001,2024-04-03_15h43.27.171,replicate_nsd,2023.2.3,59.67060774341229,2024-04-03 15h43.36.823529 -0400,
images/pair08 copy.jpg,0,29,0,0,1,0,104,104,104,222.7736529850008,,,,,,,,,,,,,,,,,,222.76796830100648,223.56786490700324,None,223.56797879700025,,,,,223.5680025910042,None,,,223.5680716410061,223.56809449499997,222.7736529850008,222.9613836960052,222.9613836960052,223.5739040260014,223.5739040260014,223.5739040260014,,,1,001,2024-04-03_15h43.27.171,replicate_nsd,2023.2.3,59.67060774341229,2024-04-03 15h43.36.823529 -0400,
images/blank.jpg,0,30,1,0,1,0,105,105,105,223.5739040260014,,,,,,,,,,,,,,,,,,223.56828297200263,223.57021437799995,None,223.5703010770012,223.5739040260014,223.5739040260014,224.33168438200664,224.33168438200664,224.3255153670034,None,,,224.32562606300053,224.32565181000246,,,,,,,,,1,001,2024-04-03_15h43.27.171,replicate_nsd,2023.2.3,59.67060774341229,2024-04-03 15h43.36.823529 -0400,
images/16_28 copy 7.jpg,0,31,0,0,1,0,106,106,106,224.33168438200664,,,,,,,,,,,,,,,,,,224.32583222500398,225.12284529099998,None,225.12295883700426,,,,,225.12298311000632,None,,,225.1230535240029,225.12307705700368,224.33168438200664,224.51528977600537,224.51528977600537,225.12909472799947,225.12909472799947,225.12909472799947,,,1,001,2024-04-03_15h43.27.171,replicate_nsd,2023.2.3,59.67060774341229,2024-04-03 15h43.36.823529 -0400,
images/15_0 copy 2.jpg,0,32,0,0,1,0,107,107,107,225.12909472799947,,,,,,,,,,,,,,,,,,225.12324593100493,225.9440532600056,None,225.944155271005,,,,,225.94417537800473,None,,,225.94423415100027,225.94425362200127,225.12909472799947,225.31542757200077,225.31542757200077,225.95028340200224,225.95028340200224,225.95028340200224,,,1,001,2024-04-03_15h43.27.171,replicate_nsd,2023.2.3,59.67060774341229,2024-04-03 15h43.36.823529 -0400,
images/22_12.jpg,0,33,0,0,1,0,108,108,108,225.95028340200224,,,,,,,,,,,,,,,,,,225.94439698800124,226.7836421960019,None,226.78375369300193,,,,,226.7837776870001,None,,,226.78384997800458,226.78387327000382,225.95028340200224,226.1504877200059,226.1504877200059,226.789031584005,226.789031584005,226.789031584005,,,1,001,2024-04-03_15h43.27.171,replicate_nsd,2023.2.3,59.67060774341229,2024-04-03 15h43.36.823529 -0400,
images/10_28 copy 5.jpg,0,34,0,0,1,0,109,109,109,226.789031584005,,,,,,,,,,,,,,,,,,226.7840475300036,227.62344186200062,None,227.62357216100645,,,,,227.62359730500611,None,,,227.62366786500206,227.62369068700355,226.789031584005,226.97929835400282,226.97929835400282,227.62957033300336,227.62957033300336,227.62957033300336,,,1,001,2024-04-03_15h43.27.171,replicate_nsd,2023.2.3,59.67060774341229,2024-04-03 15h43.36.823529 -0400,
images/10_0 copy 7.jpg,0,35,0,0,1,0,110,110,110,227.62957033300336,,,,,,,,,,,,,,,,,,227.62385986500158,228.48976526500337,None,228.48987662100262,,,,,228.48989985400112,None,,,228.48996912700386,228.48999158000515,227.62957033300336,227.8226294890046,227.8226294890046,228.4949862920039,228.4949862920039,228.4949862920039,,,1,001,2024-04-03_15h43.27.171,replicate_nsd,2023.2.3,59.67060774341229,2024-04-03 15h43.36.823529 -0400,
images/10_0 copy.jpg,0,36,0,0,1,0,111,111,111,228.4949862920039,,,,,,,,,,,,,,,,,,228.4901545190005,229.333646305,None,229.3337620920065,,,,,229.33378557400283,None,,,229.33385585700307,229.33387924000272,228.4949862920039,228.67762097300147,228.67762097300147,229.34108777000074,229.34108777000074,229.34108777000074,,,1,001,2024-04-03_15h43.27.171,replicate_nsd,2023.2.3,59.67060774341229,2024-04-03 15h43.36.823529 -0400,
images/pair01 copy.jpg,0,37,0,0,1,0,112,112,112,229.34108777000074,,,,,,,,,,,,,,,,,,229.33404740300466,230.1887142110063,None,230.18889294200198,,,,,230.18892761700408,None,,,230.1890280200023,230.18906070500088,229.34108777000074,229.52861124600167,229.52861124600167,230.19743926500087,230.19743926500087,230.19743926500087,,,1,001,2024-04-03_15h43.27.171,replicate_nsd,2023.2.3,59.67060774341229,2024-04-03 15h43.36.823529 -0400,
images/20_40 copy 2.jpg,0,38,0,0,1,0,113,113,113,230.19743926500087,,,,,,,,,,,,,,,,,,230.18930046300375,231.0439765370029,None,231.0440960210035,,,,,231.04411937300029,None,,,231.04418990300474,231.04421327000455,230.19743926500087,230.39477538100618,230.39477538100618,231.04995802500343,231.04995802500343,231.04995802500343,,,1,001,2024-04-03_15h43.27.171,replicate_nsd,2023.2.3,59.67060774341229,2024-04-03 15h43.36.823529 -0400,
images/20_40 copy.jpg,0,39,0,0,1,0,114,114,114,231.04995802500343,,,,,,,,,,,,,,,,,,231.04438243200275,231.90592090300197,None,231.90610912100237,,,,,231.90615112300293,None,,,231.9062778840016,231.9063197620053,231.04995802500343,231.23773684700427,231.23773684700427,231.913340952,231.913340952,231.913340952,,,1,001,2024-04-03_15h43.27.171,replicate_nsd,2023.2.3,59.67060774341229,2024-04-03 15h43.36.823529 -0400,
images/blank.jpg,0,40,1,0,1,0,115,115,115,231.913340952,,,,,,,,,,,,,,,,,,231.90661469800398,231.90898903100606,None,231.90911397600576,231.913340952,231.913340952,232.67711380900437,232.67711380900437,232.6707993029995,None,,,232.67091888700088,232.67094517700025,,,,,,,,,1,001,2024-04-03_15h43.27.171,replicate_nsd,2023.2.3,59.67060774341229,2024-04-03 15h43.36.823529 -0400,
images/6_28 copy.jpg,0,41,0,0,1,0,116,116,116,232.67711380900437,,,,,,,,,,,,,,,,,,232.6711246690029,233.47416628100473,None,233.4743415060002,,,,,233.47437398400507,None,,,233.47446892800508,233.4744981610056,232.67711380900437,232.87229143500008,232.87229143500008,233.47993113800476,233.47993113800476,233.47993113800476,,,1,001,2024-04-03_15h43.27.171,replicate_nsd,2023.2.3,59.67060774341229,2024-04-03 15h43.36.823529 -0400,
images/21_40 copy 2.jpg,0,42,0,0,1,0,117,117,117,233.47993113800476,,,,,,,,,,,,,,,,,,233.47466999600147,234.29590296000242,None,234.29608995200397,,,,,234.29612867000105,None,,,234.29623912200623,234.29627473800065,233.47993113800476,233.67318242700276,233.67318242700276,234.30356102200312,234.30356102200312,234.30356102200312,,,1,001,2024-04-03_15h43.27.171,replicate_nsd,2023.2.3,59.67060774341229,2024-04-03 15h43.36.823529 -0400,
images/17_40 copy 5.jpg,0,43,0,0,1,0,118,118,118,234.30356102200312,,,,,,,,,,,,,,,,,,234.29652347700176,235.10534642600396,None,235.10546361300658,,,,,235.1054862020028,None,,,235.1055557830041,235.10557845500443,234.30356102200312,234.50441007600602,234.50441007600602,235.1115442040027,235.1115442040027,235.1115442040027,,,1,001,2024-04-03_15h43.27.171,replicate_nsd,2023.2.3,59.67060774341229,2024-04-03 15h43.36.823529 -0400,
images/21_12 copy 5.jpg,0,44,0,0,1,0,119,119,119,235.1115442040027,,,,,,,,,,,,,,,,,,235.1057447090061,235.91930684200634,None,235.91945942700113,,,,,235.91948732700257,None,,,235.91956868400302,235.91959571800544,235.1115442040027,235.30135604500538,235.30135604500538,235.92730164200475,235.92730164200475,235.92730164200475,,,1,001,2024-04-03_15h43.27.171,replicate_nsd,2023.2.3,59.67060774341229,2024-04-03 15h43.36.823529 -0400,
images/9_12 copy 7.jpg,0,45,0,0,1,0,120,120,120,235.92730164200475,,,,,,,,,,,,,,,,,,235.9199973970026,236.74709133200668,None,236.74720302700007,,,,,236.74722573300096,None,,,236.74729533400387,236.747318310001,235.92730164200475,236.1327554330055,236.1327554330055,236.7538321230022,236.7538321230022,236.7538321230022,,,1,001,2024-04-03_15h43.27.171,replicate_nsd,2023.2.3,59.67060774341229,2024-04-03 15h43.36.823529 -0400,
images/pair02 copy.jpg,0,46,0,0,1,0,121,121,121,236.7538321230022,,,,,,,,,,,,,,,,,,236.74748470900522,237.56585137200454,None,237.56597498600604,,,,,237.56599576000008,None,,,237.5660561190016,237.5660768710004,236.7538321230022,236.93723828700604,236.93723828700604,237.57395063800504,237.57395063800504,237.57395063800504,,,1,001,2024-04-03_15h43.27.171,replicate_nsd,2023.2.3,59.67060774341229,2024-04-03 15h43.36.823529 -0400,
images/20_0 copy 5.jpg,0,47,0,0,1,0,122,122,122,237.57395063800504,,,,,,,,,,,,,,,,,,237.56622358500317,238.38138587600406,None,238.38154056400526,,,,,238.38157375500305,None,,,238.38167400200473,238.38170652500412,237.57395063800504,237.76647260400205,237.76647260400205,238.38827846700588,238.38827846700588,238.38827846700588,,,1,001,2024-04-03_15h43.27.171,replicate_nsd,2023.2.3,59.67060774341229,2024-04-03 15h43.36.823529 -0400,
images/19_12 copy 3.jpg,0,48,0,0,1,0,123,123,123,238.38827846700588,,,,,,,,,,,,,,,,,,238.3819425410038,239.2025321120018,None,239.20265334800206,,,,,239.20267735900416,None,,,239.20274803700158,239.20277154200448,238.38827846700588,238.58067838900024,238.58067838900024,239.20872564700403,239.20872564700403,239.20872564700403,,,1,001,2024-04-03_15h43.27.171,replicate_nsd,2023.2.3,59.67060774341229,2024-04-03 15h43.36.823529 -0400,
images/22_12 copy 7.jpg,0,49,0,0,1,0,124,124,124,239.20872564700403,,,,,,,,,,,,,,,,,,239.20294047800417,240.01476432400523,None,240.01490360400203,,,,,240.0149284210056,None,,,240.01500004100672,240.01502308199997,239.20872564700403,239.39738005000254,239.39738005000254,240.0203104280008,240.0203104280008,240.0203104280008,,,1,001,2024-04-03_15h43.27.171,replicate_nsd,2023.2.3,59.67060774341229,2024-04-03 15h43.36.823529 -0400,
images/blank.jpg,0,50,1,0,1,0,125,125,125,240.0203104280008,,,,,,,,,,,,,,,,,,240.01519530000223,240.01688569399994,None,240.01697419600532,240.0203104280008,240.0203104280008,240.7937472220001,240.7937472220001,240.78672744200594,space,0.7607102890033275,None,240.78694607900252,240.7869714030021,,,,,,,,,1,001,2024-04-03_15h43.27.171,replicate_nsd,2023.2.3,59.67060774341229,2024-04-03 15h43.36.823529 -0400,
images/pair08 copy 7.jpg,0,51,0,0,1,0,126,126,126,240.7937472220001,,,,,,,,,,,,,,,,,,240.78713069800142,241.59859195000172,None,241.59870931500336,,,,,241.5987341870059,None,,,241.5988033169997,241.598826432004,240.7937472220001,240.98466149100568,240.98466149100568,241.60503177700593,241.60503177700593,241.60503177700593,,,1,001,2024-04-03_15h43.27.171,replicate_nsd,2023.2.3,59.67060774341229,2024-04-03 15h43.36.823529 -0400,
images/23_40 copy.jpg,0,52,0,0,1,0,127,127,127,241.60503177700593,,,,,,,,,,,,,,,,,,241.598993849002,242.43313540200324,None,242.43324933700205,,,,,242.43327238900383,None,,,242.43334174500342,242.43336429000192,241.60503177700593,241.79849797700444,241.79849797700444,242.43990694999957,242.43990694999957,242.43990694999957,,,1,001,2024-04-03_15h43.27.171,replicate_nsd,2023.2.3,59.67060774341229,2024-04-03 15h43.36.823529 -0400,
images/pair18 copy 4.jpg,0,53,0,0,1,0,128,128,128,242.43990694999957,,,,,,,,,,,,,,,,,,242.43353316700086,243.2678901170002,None,243.26806651600054,,,,,243.26810100800503,None,,,243.26820186100667,243.26823462700122,242.43990694999957,242.62966681200487,242.62966681200487,243.2757710750011,243.2757710750011,243.2757710750011,,,1,001,2024-04-03_15h43.27.171,replicate_nsd,2023.2.3,59.67060774341229,2024-04-03 15h43.36.823529 -0400,
images/13_0 copy 3.jpg,0,54,0,0,1,0,129,129,129,243.2757710750011,,,,,,,,,,,,,,,,,,243.26847324400296,244.08936442300183,None,244.0894817139997,,,,,244.08950434500002,None,,,244.08957288300007,244.0895955810047,243.2757710750011,243.47575863300153,243.47575863300153,244.09543785600545,244.09543785600545,244.09543785600545,,,1,001,2024-04-03_15h43.27.171,replicate_nsd,2023.2.3,59.67060774341229,2024-04-03 15h43.36.823529 -0400,
images/23_28.jpg,0,55,0,0,1,0,130,130,130,244.09543785600545,,,,,,,,,,,,,,,,,,244.0897607510051,244.89148756500072,None,244.8915858190012,,,,,244.8916056030066,None,,,244.89166341500095,244.89168259000144,244.09543785600545,244.2836204500054,244.2836204500054,244.89667385000212,244.89667385000212,244.89667385000212,,,1,001,2024-04-03_15h43.27.171,replicate_nsd,2023.2.3,59.67060774341229,2024-04-03 15h43.36.823529 -0400,
images/21_28.jpg,0,56,0,0,1,0,131,131,131,244.89667385000212,,,,,,,,,,,,,,,,,,244.89182606000395,245.7123729330051,None,245.71251002899953,,,,,245.71253374200023,None,,,245.71260182700644,245.71262453900272,244.89667385000212,245.09565428900532,245.09565428900532,245.7182448770036,245.7182448770036,245.7182448770036,,,1,001,2024-04-03_15h43.27.171,replicate_nsd,2023.2.3,59.67060774341229,2024-04-03 15h43.36.823529 -0400,
images/15_0 copy 2.jpg,0,57,0,0,1,0,132,132,132,245.7182448770036,,,,,,,,,,,,,,,,,,245.712791113001,246.54314494500431,None,246.54326312500052,,,,,246.54328652800177,None,,,246.543355849004,246.54337991100329,245.7182448770036,245.9257568890025,245.9257568890025,246.55005173100653,246.55005173100653,246.55005173100653,,,1,001,2024-04-03_15h43.27.171,replicate_nsd,2023.2.3,59.67060774341229,2024-04-03 15h43.36.823529 -0400,
images/7_12 copy 3.jpg,0,58,0,0,1,0,133,133,133,246.55005173100653,,,,,,,,,,,,,,,,,,246.5435495680067,247.3630728890057,None,247.36317381800473,,,,,247.36319401700166,None,,,247.36325290999957,247.36327269100002,246.55005173100653,246.73908261299948,246.73908261299948,247.36945242799993,247.36945242799993,247.36945242799993,,,1,001,2024-04-03_15h43.27.171,replicate_nsd,2023.2.3,59.67060774341229,2024-04-03 15h43.36.823529 -0400,
images/22_40 copy 7.jpg,0,59,0,0,1,0,134,134,134,247.36945242799993,,,,,,,,,,,,,,,,,,247.3634152280065,248.23570310200012,None,248.23582236900256,,,,,248.2358462120028,None,,,248.23591740400298,248.23594032900291,247.36945242799993,247.57921643200098,247.57921643200098,248.2420190020057,248.2420190020057,248.2420190020057,,,1,001,2024-04-03_15h43.27.171,replicate_nsd,2023.2.3,59.67060774341229,2024-04-03 15h43.36.823529 -0400,
images/10_12.jpg,0,60,0,0,1,0,135,135,135,248.2420190020057,,,,,,,,,,,,,,,,,,248.2361082320058,249.07230027300102,None,249.0724198759999,,,,,249.07244344000355,None,,,249.0725154460015,249.07253912000306,248.2420190020057,248.42835751700477,248.42835751700477,249.07779381900036,249.07779381900036,249.07779381900036,,,1,001,2024-04-03_15h43.27.171,replicate_nsd,2023.2.3,59.67060774341229,2024-04-03 15h43.36.823529 -0400,
images/24_28 copy 6.jpg,0,61,0,0,1,0,136,136,136,249.07779381900036,,,,,,,,,,,,,,,,,,249.07270997500018,249.87291703500523,None,249.87304624100216,,,,,249.87307127900567,None,,,249.8731454200024,249.87316853400262,249.07779381900036,249.26794645200425,249.26794645200425,249.87934887800657,249.87934887800657,249.87934887800657,,,1,001,2024-04-03_15h43.27.171,replicate_nsd,2023.2.3,59.67060774341229,2024-04-03 15h43.36.823529 -0400,
images/6_12 copy 3.jpg,0,62,0,0,1,0,137,137,137,249.87934887800657,,,,,,,,,,,,,,,,,,249.87334223600192,250.75984529900597,None,250.759984301003,,,,,250.76000793900312,None,,,250.76007795000623,250.76010109500203,249.87934887800657,250.08399966800062,250.08399966800062,250.76880331500433,250.76880331500433,250.76880331500433,,,1,001,2024-04-03_15h43.27.171,replicate_nsd,2023.2.3,59.67060774341229,2024-04-03 15h43.36.823529 -0400,
images/pair04 copy.jpg,0,63,0,0,1,0,138,138,138,250.76880331500433,,,,,,,,,,,,,,,,,,250.7602697290058,251.60781510400557,None,251.6079438050001,,,,,251.6079683640055,None,,,251.60803859800217,251.60806079400209,250.76880331500433,250.96648552700208,250.96648552700208,251.61397816700628,251.61397816700628,251.61397816700628,,,1,001,2024-04-03_15h43.27.171,replicate_nsd,2023.2.3,59.67060774341229,2024-04-03 15h43.36.823529 -0400,
images/18_0 copy.jpg,0,64,0,0,1,0,139,139,139,251.61397816700628,,,,,,,,,,,,,,,,,,251.60823134800012,252.4542095440047,None,252.45434200100135,,,,,252.45436647200404,None,,,252.45443634600088,252.45446006600105,251.61397816700628,251.81432455000322,251.81432455000322,252.45999247200234,252.45999247200234,252.45999247200234,,,1,001,2024-04-03_15h43.27.171,replicate_nsd,2023.2.3,59.67060774341229,2024-04-03 15h43.36.823529 -0400,
images/20_40 copy.jpg,0,65,0,0,1,0,140,140,140,252.45999247200234,,,,,,,,,,,,,,,,,,252.4546286160039,253.27392357400095,None,253.27404554100212,,,,,253.27406864500517,None,,,253.2741391640011,253.27416235200508,252.45999247200234,252.67208993900567,252.67208993900567,253.27965154000412,253.27965154000412,253.27965154000412,,,1,001,2024-04-03_15h43.27.171,replicate_nsd,2023.2.3,59.67060774341229,2024-04-03 15h43.36.823529 -0400,
images/17_40 copy 5.jpg,0,66,0,0,1,0,141,141,141,253.27965154000412,,,,,,,,,,,,,,,,,,253.2743618290042,254.09832616500353,None,254.09844193800382,,,,,254.0984654910062,None,,,254.0985362470019,254.09855973900267,253.27965154000412,253.46900382000604,253.46900382000604,254.1037468650029,254.1037468650029,254.1037468650029,,,1,001,2024-04-03_15h43.27.171,replicate_nsd,2023.2.3,59.67060774341229,2024-04-03 15h43.36.823529 -0400,
images/19_28 copy 5.jpg,0,67,0,0,1,0,142,142,142,254.1037468650029,,,,,,,,,,,,,,,,,,254.09872972900484,254.9400422960025,None,254.94015736500296,,,,,254.9401808160037,None,,,254.94024974000058,254.94027285600168,254.1037468650029,254.28835469500336,254.28835469500336,254.94641407000017,254.94641407000017,254.94641407000017,,,1,001,2024-04-03_15h43.27.171,replicate_nsd,2023.2.3,59.67060774341229,2024-04-03 15h43.36.823529 -0400,
images/22_28 copy.jpg,0,68,0,0,1,0,143,143,143,254.94641407000017,,,,,,,,,,,,,,,,,,254.9404402220025,255.7864308019998,None,255.7865429700032,,,,,255.7865663620032,None,,,255.78663570299977,255.78665873100545,254.94641407000017,255.14590095000312,255.14590095000312,255.79198253800132,255.79198253800132,255.79198253800132,,,1,001,2024-04-03_15h43.27.171,replicate_nsd,2023.2.3,59.67060774341229,2024-04-03 15h43.36.823529 -0400,
images/7_12 copy 3.jpg,0,69,0,0,1,0,144,144,144,255.79198253800132,,,,,,,,,,,,,,,,,,255.78682481700525,256.6249372570019,None,256.6250534070059,,,,,256.62507695800014,None,,,256.62514788500266,256.62517032000324,255.79198253800132,255.98714318700513,255.98714318700513,256.63242441600596,256.63242441600596,256.63242441600596,,,1,001,2024-04-03_15h43.27.171,replicate_nsd,2023.2.3,59.67060774341229,2024-04-03 15h43.36.823529 -0400,
images/pair08 copy 7.jpg,0,70,0,0,1,0,145,145,145,256.63242441600596,,,,,,,,,,,,,,,,,,256.6253400180067,257.42223461400135,None,257.4223466559997,,,,,257.42236902900186,None,,,257.42243737000535,257.42245980500593,256.63242441600596,256.8160699460059,256.8160699460059,257.42788116400334,257.42788116400334,257.42788116400334,,,1,001,2024-04-03_15h43.27.171,replicate_nsd,2023.2.3,59.67060774341229,2024-04-03 15h43.36.823529 -0400,
images/blank.jpg,0,71,1,0,1,0,146,146,146,257.42788116400334,,,,,,,,,,,,,,,,,,257.42262316000415,257.4244916690004,None,257.42457076300343,257.42788116400334,257.42788116400334,258.183095942004,258.183095942004,258.17787067800236,None,,,258.1779825430058,258.17800725100096,,,,,,,,,1,001,2024-04-03_15h43.27.171,replicate_nsd,2023.2.3,59.67060774341229,2024-04-03 15h43.36.823529 -0400,
images/blank.jpg,0,72,1,0,1,0,147,147,147,258.183095942004,,,,,,,,,,,,,,,,,,258.17818427800376,258.1797083030033,None,258.1797902430044,258.183095942004,258.183095942004,258.9432903220004,258.9432903220004,258.93847295800515,None,,,258.93857372500497,258.9385962440065,,,,,,,,,1,001,2024-04-03_15h43.27.171,replicate_nsd,2023.2.3,59.67060774341229,2024-04-03 15h43.36.823529 -0400,
images/blank.jpg,0,73,1,0,1,0,148,148,148,258.9432903220004,,,,,,,,,,,,,,,,,,258.93875016200036,258.94010817100207,None,258.9401788430041,258.9432903220004,258.9432903220004,259.6922402430064,259.6922402430064,259.6871408100051,None,,,259.6872550370026,259.68727974500507,,,,,,,,,1,001,2024-04-03_15h43.27.171,replicate_nsd,2023.2.3,59.67060774341229,2024-04-03 15h43.36.823529 -0400,
images/blank.jpg,0,74,1,1,1,0,149,149,149,259.6922402430064,,,,,,,,,,,,,,,,,,259.68745893700543,259.6889368320044,None,259.6890146200021,259.6922402430064,259.6922402430064,260.44658524800616,260.44658524800616,260.4415290540055,None,,,260.44163965600455,260.44166401400435,,,,,,,,,1,001,2024-04-03_15h43.27.171,replicate_nsd,2023.2.3,59.67060774341229,2024-04-03 15h43.36.823529 -0400,
images/blank.jpg,0,0,1,0,2,0,150,150,150,260.44658524800616,,,,,,,,,,,,,,,,,,260.4418417449997,260.44336316800036,None,260.4434486530008,260.44658524800616,260.44658524800616,261.1928969410001,261.1928969410001,261.18915997200384,None,,,261.18927033000364,262.34106332300144,,,,,,,261.1928969410001,262.3464351310031,1,001,2024-04-03_15h43.27.171,replicate_nsd,2023.2.3,59.67060774341229,2024-04-03 15h43.36.823529 -0400,
images/blank.jpg,0,1,1,0,2,0,151,151,151,262.3464351310031,,,,,,,,,,,,,,,,,,262.34130630500295,262.34298456300166,None,262.34308194600453,262.3464351310031,262.3464351310031,263.1093669440015,263.1093669440015,263.1039711560006,None,,,263.10408444600034,263.10411111700523,,,,,,,,,1,001,2024-04-03_15h43.27.171,replicate_nsd,2023.2.3,59.67060774341229,2024-04-03 15h43.36.823529 -0400,
images/blank.jpg,0,2,1,0,2,0,152,152,152,263.1093669440015,,,,,,,,,,,,,,,,,,263.10429054600536,263.1058542190003,None,263.1059378350037,263.1093669440015,263.1093669440015,263.8839968490065,263.8839968490065,263.8776462750029,None,,,263.8777928680065,263.8778223629997,,,,,,,,,1,001,2024-04-03_15h43.27.171,replicate_nsd,2023.2.3,59.67060774341229,2024-04-03 15h43.36.823529 -0400,
images/14_12 copy 6.jpg,0,3,0,0,2,0,153,153,153,263.8839968490065,,,,,,,,,,,,,,,,,,263.87802841600205,264.7292659130035,None,264.72939366400533,,,,,264.7294209660031,None,,,264.72950199400657,264.7295291890041,263.8839968490065,264.0739608940057,264.0739608940057,264.7374415650047,264.7374415650047,264.7374415650047,,,1,001,2024-04-03_15h43.27.171,replicate_nsd,2023.2.3,59.67060774341229,2024-04-03 15h43.36.823529 -0400,
images/12_0.jpg,0,4,0,0,2,0,154,154,154,264.7374415650047,,,,,,,,,,,,,,,,,,264.7297236680024,265.6854791970036,None,265.6856286750044,,,,,265.6856562030007,None,,,265.68573632100015,265.68576276200474,264.7374415650047,264.9489251420018,264.9489251420018,265.6929338059999,265.6929338059999,265.6929338059999,,,1,001,2024-04-03_15h43.27.171,replicate_nsd,2023.2.3,59.67060774341229,2024-04-03 15h43.36.823529 -0400,
images/pair05 copy 7.jpg,0,5,0,0,2,0,155,155,155,265.6929338059999,,,,,,,,,,,,,,,,,,265.68595563800045,266.6185799120067,None,266.61876245100575,,,,,266.61879789100203,None,,,266.61890136700094,266.6189337320029,265.6929338059999,265.90963334700064,265.90963334700064,266.6279710900053,266.6279710900053,266.6279710900053,,,1,001,2024-04-03_15h43.27.171,replicate_nsd,2023.2.3,59.67060774341229,2024-04-03 15h43.36.823529 -0400,
images/12_12 copy 3.jpg,0,6,0,0,2,0,156,156,156,266.6279710900053,,,,,,,,,,,,,,,,,,266.61917932399956,267.5771646590001,None,267.5772788530012,,,,,267.5773026990064,None,,,267.5773720790021,267.5773952350064,266.6279710900053,266.842399732006,266.842399732006,267.582827035003,267.582827035003,267.582827035003,,,1,001,2024-04-03_15h43.27.171,replicate_nsd,2023.2.3,59.67060774341229,2024-04-03 15h43.36.823529 -0400,
images/23_12 copy 5.jpg,0,7,0,0,2,0,157,157,157,267.582827035003,,,,,,,,,,,,,,,,,,267.5775611260033,268.5247625280026,None,268.52489691200026,,,,,268.5249209780013,None,,,268.5249958150016,268.5250188860009,267.582827035003,267.7903166000033,267.7903166000033,268.5316563590022,268.5316563590022,268.5316563590022,,,1,001,2024-04-03_15h43.27.171,replicate_nsd,2023.2.3,59.67060774341229,2024-04-03 15h43.36.823529 -0400,
images/17_28 copy.jpg,0,8,0,0,2,0,158,158,158,268.5316563590022,,,,,,,,,,,,,,,,,,268.52519427800144,269.4063109300041,None,269.4064340000041,,,,,269.40646083700267,None,,,269.4065416930025,269.4065679790001,268.5316563590022,268.72511950199987,268.72511950199987,269.4143525740001,269.4143525740001,269.4143525740001,,,1,001,2024-04-03_15h43.27.171,replicate_nsd,2023.2.3,59.67060774341229,2024-04-03 15h43.36.823529 -0400,
images/22_28 copy.jpg,0,9,0,0,2,0,159,159,159,269.4143525740001,,,,,,,,,,,,,,,,,,269.4067580320043,270.3155084050013,None,270.31568071900256,,,,,270.3157145820005,None,,,270.3158135490012,270.3158451390045,269.4143525740001,269.60722405500564,269.60722405500564,270.3218411900016,270.3218411900016,270.3218411900016,,,1,001,2024-04-03_15h43.27.171,replicate_nsd,2023.2.3,59.67060774341229,2024-04-03 15h43.36.823529 -0400,
images/blank.jpg,0,10,1,0,2,0,160,160,160,270.3218411900016,,,,,,,,,,,,,,,,,,270.31606661000114,270.3179040190007,None,270.31801106200146,270.3218411900016,270.3218411900016,271.08534943200357,271.08534943200357,271.0799188279998,None,,,271.0800274320063,271.08005235900055,,,,,,,,,1,001,2024-04-03_15h43.27.171,replicate_nsd,2023.2.3,59.67060774341229,2024-04-03 15h43.36.823529 -0400,
images/11_0 copy 6.jpg,0,11,0,0,2,0,161,161,161,271.08534943200357,,,,,,,,,,,,,,,,,,271.08022917500057,271.9603025710021,None,271.96041328300635,,,,,271.96043763900525,None,,,271.96050772200397,271.9605311830019,271.08534943200357,271.2898328070005,271.2898328070005,271.9667437300013,271.9667437300013,271.9667437300013,,,1,001,2024-04-03_15h43.27.171,replicate_nsd,2023.2.3,59.67060774341229,2024-04-03 15h43.36.823529 -0400,
images/11_40 copy 7.jpg,0,12,0,0,2,0,162,162,162,271.9667437300013,,,,,,,,,,,,,,,,,,271.96069941300084,272.86068139800045,None,272.8608610520023,,,,,272.860895980004,None,,,272.8609968900055,272.8610298390049,271.9667437300013,272.1502103460007,272.1502103460007,272.86866557600297,272.86866557600297,272.86866557600297,,,1,001,2024-04-03_15h43.27.171,replicate_nsd,2023.2.3,59.67060774341229,2024-04-03 15h43.36.823529 -0400,
images/pair01 copy.jpg,0,13,0,0,2,0,163,163,163,272.86866557600297,,,,,,,,,,,,,,,,,,272.8612732590045,273.72162099700654,None,273.72174025200366,,,,,273.7217642760006,None,,,273.7218365170047,273.72186063499976,272.86866557600297,273.0786102840066,273.0786102840066,273.7276287519999,273.7276287519999,273.7276287519999,,,1,001,2024-04-03_15h43.27.171,replicate_nsd,2023.2.3,59.67060774341229,2024-04-03 15h43.36.823529 -0400,
images/22_12 copy 7.jpg,0,14,0,0,2,0,164,164,164,273.7276287519999,,,,,,,,,,,,,,,,,,273.7220374870012,274.6119849110037,None,274.612106392,,,,,274.61213277700153,None,,,274.61220955400495,274.6122354130057,273.7276287519999,273.9149836370052,273.9149836370052,274.61837165900215,274.61837165900215,274.61837165900215,,,1,001,2024-04-03_15h43.27.171,replicate_nsd,2023.2.3,59.67060774341229,2024-04-03 15h43.36.823529 -0400,
images/20_0 copy 2.jpg,0,15,0,0,2,0,165,165,165,274.61837165900215,,,,,,,,,,,,,,,,,,274.61242109300656,275.5463055270011,None,275.54644650900445,,,,,275.5464719299998,None,,,275.5465428300013,275.546565855002,274.61837165900215,274.8279343470058,274.8279343470058,275.5531866920064,275.5531866920064,275.5531866920064,,,1,001,2024-04-03_15h43.27.171,replicate_nsd,2023.2.3,59.67060774341229,2024-04-03 15h43.36.823529 -0400,
images/19_28 copy 6.jpg,0,16,0,0,2,0,166,166,166,275.5531866920064,,,,,,,,,,,,,,,,,,275.54673795700364,276.4301754670014,None,276.4303051980023,,,,,276.430332928001,None,,,276.4304151300021,276.4304423240028,275.5531866920064,275.7492620530029,275.7492620530029,276.4365935790047,276.4365935790047,276.4365935790047,,,1,001,2024-04-03_15h43.27.171,replicate_nsd,2023.2.3,59.67060774341229,2024-04-03 15h43.36.823529 -0400,
images/16_12 copy 2.jpg,0,17,0,0,2,0,167,167,167,276.4365935790047,,,,,,,,,,,,,,,,,,276.4306359480033,277.2514858450013,None,277.25159924000036,,,,,277.2516227760061,None,,,277.25169185000414,277.25171438500547,276.4365935790047,276.62536098700366,276.62536098700366,277.25814333600283,277.25814333600283,277.25814333600283,,,1,001,2024-04-03_15h43.27.171,replicate_nsd,2023.2.3,59.67060774341229,2024-04-03 15h43.36.823529 -0400,
images/pair08 copy.jpg,0,18,0,0,2,0,168,168,168,277.25814333600283,,,,,,,,,,,,,,,,,,277.2518823210048,278.1329562070023,None,278.133268743004,,,,,278.1333342430007,None,,,278.13352940100594,278.1335690720007,277.25814333600283,277.45892624700355,277.45892624700355,278.144537690001,278.144537690001,278.144537690001,,,1,001,2024-04-03_15h43.27.171,replicate_nsd,2023.2.3,59.67060774341229,2024-04-03 15h43.36.823529 -0400,
images/9_40 copy.jpg,0,19,0,0,2,0,169,169,169,278.144537690001,,,,,,,,,,,,,,,,,,278.13386522300425,279.06989265700395,None,279.07002170900523,,,,,279.0700495380006,None,,,279.07013518400345,279.0701620300024,278.144537690001,278.3533688610041,278.3533688610041,279.07592309300526,279.07592309300526,279.07592309300526,,,1,001,2024-04-03_15h43.27.171,replicate_nsd,2023.2.3,59.67060774341229,2024-04-03 15h43.36.823529 -0400,
images/blank.jpg,0,20,1,0,2,0,170,170,170,279.07592309300526,,,,,,,,,,,,,,,,,,279.07035438900493,279.07217834800394,None,279.072273071004,279.07592309300526,279.07592309300526,279.86512024300464,279.86512024300464,279.85875834200124,None,,,279.8588781060025,279.85890619300335,,,,,,,,,1,001,2024-04-03_15h43.27.171,replicate_nsd,2023.2.3,59.67060774341229,2024-04-03 15h43.36.823529 -0400,
images/24_28 copy.jpg,0,21,0,0,2,0,171,171,171,279.86512024300464,,,,,,,,,,,,,,,,,,279.8591034570054,280.7966001640016,None,280.7967802860003,,,,,280.79681447900657,None,,,280.79691416100104,280.79694761700375,279.86512024300464,280.066159369002,280.066159369002,280.80352129800303,280.80352129800303,280.80352129800303,,,1,001,2024-04-03_15h43.27.171,replicate_nsd,2023.2.3,59.67060774341229,2024-04-03 15h43.36.823529 -0400,
images/20_12 copy 5.jpg,0,22,0,0,2,0,172,172,172,280.80352129800303,,,,,,,,,,,,,,,,,,280.797188235003,281.73819828200067,None,281.73841223100317,,,,,281.7384542610016,None,,,281.7385803720026,281.7386212260026,280.80352129800303,280.98958101500466,280.98958101500466,281.74799567100126,281.74799567100126,281.74799567100126,,,1,001,2024-04-03_15h43.27.171,replicate_nsd,2023.2.3,59.67060774341229,2024-04-03 15h43.36.823529 -0400,
images/16_12 copy 6.jpg,0,23,0,0,2,0,173,173,173,281.74799567100126,,,,,,,,,,,,,,,,,,281.7389205110012,282.6523012120015,None,282.65240946200356,,,,,282.65243235300295,None,,,282.65250060800463,282.6525228410028,281.74799567100126,281.9665154760005,281.9665154760005,282.6580287110046,282.6580287110046,282.6580287110046,,,1,001,2024-04-03_15h43.27.171,replicate_nsd,2023.2.3,59.67060774341229,2024-04-03 15h43.36.823529 -0400,
images/21_12 copy.jpg,0,24,0,0,2,0,174,174,174,282.6580287110046,,,,,,,,,,,,,,,,,,282.65268515000207,283.5537241140046,None,283.5538845560004,,,,,283.5539178390027,None,,,283.5540167900035,283.5540494700035,282.6580287110046,282.8536088990004,282.8536088990004,283.56007421400136,283.56007421400136,283.56007421400136,,,1,001,2024-04-03_15h43.27.171,replicate_nsd,2023.2.3,59.67060774341229,2024-04-03 15h43.36.823529 -0400,
images/5_40 copy 5.jpg,0,25,0,0,2,0,175,175,175,283.56007421400136,,,,,,,,,,,,,,,,,,283.55428834100167,284.4069411510063,None,284.40706780800247,,,,,284.4070952270049,None,,,284.40717557600146,284.40720234200126,283.56007421400136,283.7483276460043,283.7483276460043,284.4144758559996,284.4144758559996,284.4144758559996,,,1,001,2024-04-03_15h43.27.171,replicate_nsd,2023.2.3,59.67060774341229,2024-04-03 15h43.36.823529 -0400,
images/9_40 copy 7.jpg,0,26,0,0,2,0,176,176,176,284.4144758559996,,,,,,,,,,,,,,,,,,284.4074125400002,285.3565002950054,None,285.3566878290003,,,,,285.3567245170052,None,,,285.35683002300357,285.35686256900226,284.4144758559996,284.6216363260028,284.6216363260028,285.3675896019995,285.3675896019995,285.3675896019995,,,1,001,2024-04-03_15h43.27.171,replicate_nsd,2023.2.3,59.67060774341229,2024-04-03 15h43.36.823529 -0400,
images/pair13 copy.jpg,0,27,0,0,2,0,177,177,177,285.3675896019995,,,,,,,,,,,,,,,,,,285.357106069001,286.23724941000546,None,286.2373629310023,,,,,286.23738635200425,None,,,286.23745625500305,286.2374794560019,285.3675896019995,285.5557087470006,285.5557087470006,286.2443386590021,286.2443386590021,286.2443386590021,,,1,001,2024-04-03_15h43.27.171,replicate_nsd,2023.2.3,59.67060774341229,2024-04-03 15h43.36.823529 -0400,
images/19_0 copy 2.jpg,0,28,0,0,2,0,178,178,178,286.2443386590021,,,,,,,,,,,,,,,,,,286.2376452580065,287.0540938949998,None,287.05420317300013,,,,,287.05422551000083,None,,,287.05429368900514,287.0543160180023,286.2443386590021,286.4561503770019,286.4561503770019,287.0593657270001,287.0593657270001,287.0593657270001,,,1,001,2024-04-03_15h43.27.171,replicate_nsd,2023.2.3,59.67060774341229,2024-04-03 15h43.36.823529 -0400,
images/24_0.jpg,0,29,0,0,2,0,179,179,179,287.0593657270001,,,,,,,,,,,,,,,,,,287.0544786990067,287.9242343240039,None,287.9243617090033,,,,,287.92438823100383,None,,,287.92447081400314,287.9244966180049,287.0593657270001,287.2476396530037,287.2476396530037,287.9303517030057,287.9303517030057,287.9303517030057,,,1,001,2024-04-03_15h43.27.171,replicate_nsd,2023.2.3,59.67060774341229,2024-04-03 15h43.36.823529 -0400,
images/blank.jpg,0,30,1,0,2,0,180,180,180,287.9303517030057,,,,,,,,,,,,,,,,,,287.92469008199987,287.926651587004,None,287.9267707130057,287.9303517030057,287.9303517030057,288.7226797140029,288.7226797140029,288.71573180999985,None,,,288.71590207600093,288.7159382220052,,,,,,,,,1,001,2024-04-03_15h43.27.171,replicate_nsd,2023.2.3,59.67060774341229,2024-04-03 15h43.36.823529 -0400,
images/15_28 copy 3.jpg,0,31,0,0,2,0,181,181,181,288.7226797140029,,,,,,,,,,,,,,,,,,288.71618636300263,289.55259599400597,None,289.5527236199996,,,,,289.5527512740009,None,,,289.55283054699976,289.5528560770035,288.7226797140029,288.9225379710042,288.9225379710042,289.5583965140031,289.5583965140031,289.5583965140031,,,1,001,2024-04-03_15h43.27.171,replicate_nsd,2023.2.3,59.67060774341229,2024-04-03 15h43.36.823529 -0400,
images/10_0 copy 7.jpg,0,32,0,0,2,0,182,182,182,289.5583965140031,,,,,,,,,,,,,,,,,,289.5530457970017,290.3876194360055,None,290.38777079099964,,,,,290.3877985430008,None,,,290.3878798650039,290.3879070690018,289.5583965140031,289.7471573280054,289.7471573280054,290.39417784300167,290.39417784300167,290.39417784300167,,,1,001,2024-04-03_15h43.27.171,replicate_nsd,2023.2.3,59.67060774341229,2024-04-03 15h43.36.823529 -0400,
images/12_40 copy 3.jpg,0,33,0,0,2,0,183,183,183,290.39417784300167,,,,,,,,,,,,,,,,,,290.3881031350029,291.2714584510031,None,291.2715868220039,,,,,291.2716138830001,None,,,291.2716929350063,291.27171985000314,290.39417784300167,290.5910394340026,290.5910394340026,291.27829925300466,291.27829925300466,291.27829925300466,,,1,001,2024-04-03_15h43.27.171,replicate_nsd,2023.2.3,59.67060774341229,2024-04-03 15h43.36.823529 -0400,
images/21_12 copy.jpg,0,34,0,0,2,0,184,184,184,291.27829925300466,,,,,,,,,,,,,,,,,,291.27191331600625,292.1797727830053,None,292.1798865450037,,,,,292.1799102090008,None,,,292.1799794720064,292.18000234600186,291.27829925300466,291.4777661000044,291.4777661000044,292.18531784300285,292.18531784300285,292.18531784300285,,,1,001,2024-04-03_15h43.27.171,replicate_nsd,2023.2.3,59.67060774341229,2024-04-03 15h43.36.823529 -0400,
images/11_0 copy 6.jpg,0,35,0,0,2,0,185,185,185,292.18531784300285,,,,,,,,,,,,,,,,,,292.1801688340056,293.0011203180038,None,293.00126181700034,,,,,293.00128896400565,None,,,293.0013737200061,293.0014187890047,292.18531784300285,292.3783330840015,292.3783330840015,293.0065842030017,293.0065842030017,293.0065842030017,,,1,001,2024-04-03_15h43.27.171,replicate_nsd,2023.2.3,59.67060774341229,2024-04-03 15h43.36.823529 -0400,
images/22_28 copy.jpg,0,36,0,0,2,0,186,186,186,293.0065842030017,,,,,,,,,,,,,,,,,,293.0015871210053,293.91285303500626,None,293.9130671439998,,,,,293.9131090610026,None,,,293.91323058499984,293.91327098700276,293.0065842030017,293.19839453200257,293.19839453200257,293.92007260200626,293.92007260200626,293.92007260200626,,,1,001,2024-04-03_15h43.27.171,replicate_nsd,2023.2.3,59.67060774341229,2024-04-03 15h43.36.823529 -0400,
images/23_12 copy 5.jpg,0,37,0,0,2,0,187,187,187,293.92007260200626,,,,,,,,,,,,,,,,,,293.9135687470043,294.8476796660034,None,294.8478943480004,,,,,294.847937604005,None,,,294.84806420300447,294.8481065100059,293.92007260200626,294.12401409800077,294.12401409800077,294.8557343020002,294.8557343020002,294.8557343020002,,,1,001,2024-04-03_15h43.27.171,replicate_nsd,2023.2.3,59.67060774341229,2024-04-03 15h43.36.823529 -0400,
images/12_12 copy 3.jpg,0,38,0,0,2,0,188,188,188,294.8557343020002,,,,,,,,,,,,,,,,,,294.8484145980037,295.79349741000624,None,295.79367574200296,,,,,295.7937095810048,None,,,295.79380873500486,295.79384201799985,294.8557343020002,295.0711216530035,295.0711216530035,295.80114919000334,295.80114919000334,295.80114919000334,,,1,001,2024-04-03_15h43.27.171,replicate_nsd,2023.2.3,59.67060774341229,2024-04-03 15h43.36.823529 -0400,
images/18_12 copy 3.jpg,0,39,0,0,2,0,189,189,189,295.80114919000334,,,,,,,,,,,,,,,,,,295.7940801310033,296.7125501890041,None,296.7127927860056,,,,,296.71284761500283,None,,,296.7130135510015,296.7130629950043,295.80114919000334,296.0169756470059,296.0169756470059,296.720728969005,296.720728969005,296.720728969005,,,1,001,2024-04-03_15h43.27.171,replicate_nsd,2023.2.3,59.67060774341229,2024-04-03 15h43.36.823529 -0400,
images/blank.jpg,0,40,1,0,2,0,190,190,190,296.720728969005,,,,,,,,,,,,,,,,,,296.7133852790066,296.71575414700055,None,296.7158798630044,296.720728969005,296.720728969005,297.5252019470063,297.5252019470063,297.5185928400024,None,,,297.51872238500073,297.51875964500505,,,,,,,,,1,001,2024-04-03_15h43.27.171,replicate_nsd,2023.2.3,59.67060774341229,2024-04-03 15h43.36.823529 -0400,
images/17_12 copy 3.jpg,0,41,0,0,2,0,191,191,191,297.5252019470063,,,,,,,,,,,,,,,,,,297.5189512420038,298.4250761690055,None,298.4252306680064,,,,,298.4252652060022,None,,,298.42536645100336,298.4253994480023,297.5252019470063,297.7211351030055,297.7211351030055,298.43425492100505,298.43425492100505,298.43425492100505,,,1,001,2024-04-03_15h43.27.171,replicate_nsd,2023.2.3,59.67060774341229,2024-04-03 15h43.36.823529 -0400,
images/pair02 copy 3.jpg,0,42,0,0,2,0,192,192,192,298.43425492100505,,,,,,,,,,,,,,,,,,298.4256406550048,299.2845608870048,None,299.2847000840047,,,,,299.2847429600006,None,,,299.284826092,299.2848528780014,298.43425492100505,298.639521779005,298.639521779005,299.29128655500244,299.29128655500244,299.29128655500244,,,1,001,2024-04-03_15h43.27.171,replicate_nsd,2023.2.3,59.67060774341229,2024-04-03 15h43.36.823529 -0400,
images/pair02 copy 3.jpg,0,43,0,0,2,0,193,193,193,299.29128655500244,,,,,,,,,,,,,,,,,,299.2850462130009,300.0920591640024,None,300.0921694120043,,,,,300.092191982003,None,,,300.0922609680056,300.092283212005,299.29128655500244,299.4865445920004,299.4865445920004,300.09790479200456,300.09790479200456,300.09790479200456,,,1,001,2024-04-03_15h43.27.171,replicate_nsd,2023.2.3,59.67060774341229,2024-04-03 15h43.36.823529 -0400,
images/10_28 copy 7.jpg,0,44,0,0,2,0,194,194,194,300.09790479200456,,,,,,,,,,,,,,,,,,300.09260798900505,300.9205138850011,None,300.92062641500524,,,,,300.9206494990067,None,,,300.9207191200039,300.9207419980012,300.09790479200456,300.2804872880006,300.2804872880006,300.9263981660042,300.9263981660042,300.9263981660042,,,1,001,2024-04-03_15h43.27.171,replicate_nsd,2023.2.3,59.67060774341229,2024-04-03 15h43.36.823529 -0400,
images/18_0.jpg,0,45,0,0,2,0,195,195,195,300.9263981660042,,,,,,,,,,,,,,,,,,300.92090625800483,301.7355075650048,None,301.73561995400087,,,,,301.73564268500195,None,,,301.73571171400545,301.7357341790048,300.9263981660042,301.12402755900257,301.12402755900257,301.74086561900185,301.74086561900185,301.74086561900185,,,1,001,2024-04-03_15h43.27.171,replicate_nsd,2023.2.3,59.67060774341229,2024-04-03 15h43.36.823529 -0400,
images/11_0 copy 6.jpg,0,46,0,0,2,0,196,196,196,301.74086561900185,,,,,,,,,,,,,,,,,,301.73589736800204,302.54711625799973,None,302.5473304020052,,,,,302.54737233100604,None,,,302.5474984740067,302.5475391430009,301.74086561900185,301.9259034160059,301.9259034160059,302.5545500380031,302.5545500380031,302.5545500380031,,,1,001,2024-04-03_15h43.27.171,replicate_nsd,2023.2.3,59.67060774341229,2024-04-03 15h43.36.823529 -0400,
images/22_12.jpg,0,47,0,0,2,0,197,197,197,302.5545500380031,,,,,,,,,,,,,,,,,,302.54783520900673,303.46709315000044,None,303.46720300200104,,,,,303.4672260600055,None,,,303.4672956670038,303.46731819800334,302.5545500380031,302.76299244000256,302.76299244000256,,,,,,1,001,2024-04-03_15h43.27.171,replicate_nsd,2023.2.3,59.67060774341229,2024-04-03 15h43.36.823529 -0400,
,,,,,,,,,,,,,,,,,,,,,,,,,,,,303.46748451500025,,,,,,,,,,,,,,,,,,,,,,,,,,,,,
