current_image,is_repeat,trial_index,is_blank_trial,is_new_run,run_num,all_blanks_list,loop_all_images.thisRepN,loop_all_images.thisTrialN,loop_all_images.thisN,loop_all_images.thisIndex,thisRow.t,notes,set_up.started,set_up.stopped,waiting_fmri.started,key_resp_2.started,text_3.started,waiting_fmri.stopped,key_resp_2.keys,key_resp_2.rt,key_resp_2.duration,trial.started,polygon.started,image.started,press_if_repeat.started,image.stopped,press_if_repeat.stopped,polygon.stopped,trial.stopped,press_if_repeat.keys,blank_trial.started,key_resp_3.started,polygon_2.started,key_resp_3.stopped,polygon_2.stopped,blank_trial.stopped,key_resp_3.keys,run_wait2.started,key_resp_5.started,text_5.started,run_wait2.stopped,key_resp_5.keys,key_resp_5.rt,key_resp_5.duration,waiting_fmri_2.started,waiting_fmri_2.stopped,key_resp_4.keys,key_resp_4.started,text_4.started,participant,session,starting_run,,date,expName,psychopyVersion,frameRate,expStart,
,,,,,,,,,,,,,0.04369264401611872,0.04390735400374979,0.04392669000662863,0.05570054400595836,0.05570054400595836,4.180008458002703,5,4.123716698988574,None,,,,,,,,,,,,,,,,,,,,,,,,,,,,,1,001,0,,2024-04-09_12h30.56.435,replicate_nsd,2023.2.3,59.960717567579536,2024-04-09 12h31.08.208087 -0400,
images/6_28 copy 2.jpg,0,0,0,0,0,"[9, 19, 29, 39, 49, 59, 68, 69, 70, 71]",0,0,0,0,4.292672956013121,,,,,,,,,,,4.252940817998024,4.292672956013121,5.2799402300152,5.2799402300152,8.279637165018357,8.279637165018357,8.279637165018357,8.263294992997544,None,8.264282970019849,8.279637165018357,8.279637165018357,12.279847783007426,12.279847783007426,12.263453059014864,None,12.264404282002943,12.279847783007426,12.279847783007426,16.430145532998722,space,4.135577357985312,None,16.43210900001577,16.432150916021783,None,,,1,001,0,,2024-04-09_12h30.56.435,replicate_nsd,2023.2.3,59.960717567579536,2024-04-09 12h31.08.208087 -0400,
images/10_40 copy 4.jpg,0,1,0,0,0,"[9, 19, 29, 39, 49, 59, 68, 69, 70, 71]",0,1,1,1,16.446012129017618,,,,,,,,,,,16.433070974017028,16.446012129017618,17.446644577023108,17.446644577023108,20.445928880013525,20.445928880013525,20.445928880013525,20.429469980997965,None,20.429608339996776,,,,,20.429632832005154,None,20.429703521018382,,,20.429728518007323,None,,,20.429792541021015,20.429813329013996,None,,,1,001,0,,2024-04-09_12h30.56.435,replicate_nsd,2023.2.3,59.960717567579536,2024-04-09 12h31.08.208087 -0400,
images/5_40 copy 5.jpg,0,2,0,0,0,"[9, 19, 29, 39, 49, 59, 68, 69, 70, 71]",0,2,2,2,20.445928880013525,,,,,,,,,,,20.430030329996953,20.445928880013525,21.44678303101682,21.44678303101682,24.446696607017657,24.446696607017657,24.446696607017657,24.430038915015757,None,24.430218369001523,,,,,24.430257781001274,None,24.430376616015565,,,24.430416169023374,None,,,24.43052594602341,24.43055999101489,None,,,1,001,0,,2024-04-09_12h30.56.435,replicate_nsd,2023.2.3,59.960717567579536,2024-04-09 12h31.08.208087 -0400,
images/10_0 copy 6.jpg,0,3,0,0,0,"[9, 19, 29, 39, 49, 59, 68, 69, 70, 71]",0,3,3,3,24.446696607017657,,,,,,,,,,,24.430922527011717,24.446696607017657,25.4463131930097,25.4463131930097,28.445906786015257,28.445906786015257,28.445906786015257,28.42929289501626,None,28.4294369740237,,,,,28.429460250015836,None,28.42952952501946,,,28.429553952009883,None,,,28.42961845701211,28.42963843201869,None,,,1,001,0,,2024-04-09_12h30.56.435,replicate_nsd,2023.2.3,59.960717567579536,2024-04-09 12h31.08.208087 -0400,
images/10_0 copy 3.jpg,0,4,0,0,0,"[9, 19, 29, 39, 49, 59, 68, 69, 70, 71]",0,4,4,4,28.445906786015257,,,,,,,,,,,28.42985241502174,28.445906786015257,29.446666924020974,29.446666924020974,32.446361278998666,32.446361278998666,32.446361278998666,32.42967395999585,None,32.429853701003594,,,,,32.42989299100009,None,32.43001010201988,,,32.43004908200237,None,,,32.430158772011055,32.43019279500004,None,,,1,001,0,,2024-04-09_12h30.56.435,replicate_nsd,2023.2.3,59.960717567579536,2024-04-09 12h31.08.208087 -0400,
images/5_28 copy 3.jpg,0,5,0,0,0,"[9, 19, 29, 39, 49, 59, 68, 69, 70, 71]",0,5,5,5,32.446361278998666,,,,,,,,,,,32.43055580300279,32.446361278998666,33.446665030001896,33.446665030001896,36.49636591001763,36.49636591001763,36.49636591001763,36.47983298602048,None,36.48001487599686,,,,,36.48005420801928,None,36.48017389900633,,,36.480213368020486,None,,,36.48032564599998,36.48035952402279,None,,,1,001,0,,2024-04-09_12h30.56.435,replicate_nsd,2023.2.3,59.960717567579536,2024-04-09 12h31.08.208087 -0400,
images/22_0.jpg,0,6,0,0,0,"[9, 19, 29, 39, 49, 59, 68, 69, 70, 71]",0,6,6,6,36.49636591001763,,,,,,,,,,,36.480721148021985,36.49636591001763,37.49857512500603,37.49857512500603,40.49633349801297,40.49633349801297,40.49633349801297,40.47973094700137,None,40.47991043300135,,,,,40.47994953900343,None,40.48006867102231,,,40.480107542010956,None,,,40.480217825999716,40.480252031004056,None,,,1,001,0,,2024-04-09_12h30.56.435,replicate_nsd,2023.2.3,59.960717567579536,2024-04-09 12h31.08.208087 -0400,
images/10_12 copy 2.jpg,0,7,0,0,0,"[9, 19, 29, 39, 49, 59, 68, 69, 70, 71]",0,7,7,7,40.49633349801297,,,,,,,,,,,40.480615664011566,40.49633349801297,41.49847940102336,41.49847940102336,44.49879858302302,44.49879858302302,44.49879858302302,44.48174948201631,None,44.48187869600952,,,,,44.481902433006326,None,44.48197179302224,,,44.4819959460001,None,,,44.4820606240246,44.482080488000065,None,,,1,001,0,,2024-04-09_12h30.56.435,replicate_nsd,2023.2.3,59.960717567579536,2024-04-09 12h31.08.208087 -0400,
images/5_40 copy 7.jpg,0,8,0,0,0,"[9, 19, 29, 39, 49, 59, 68, 69, 70, 71]",0,8,8,8,44.49879858302302,,,,,,,,,,,44.482299596013036,44.49879858302302,45.498749545018654,45.498749545018654,48.49851891500293,48.49851891500293,48.49851891500293,48.48196562100202,None,48.48214623701642,,,,,48.482185668020975,None,48.48230347200297,,,48.48234288801905,None,,,48.48245180500089,48.48248589099967,None,,,1,001,0,,2024-04-09_12h30.56.435,replicate_nsd,2023.2.3,59.960717567579536,2024-04-09 12h31.08.208087 -0400,
images/blank.jpg,0,9,1,0,0,"[9, 19, 29, 39, 49, 59, 68, 69, 70, 71]",0,9,9,9,48.49851891500293,,,,,,,,,,,48.48284698300995,48.49851891500293,49.51376386501943,49.51376386501943,50.30154779800796,50.30154779800796,50.30154779800796,50.29334540999844,None,50.29349836401525,,,,,50.293531333009014,None,50.29362793802284,,,50.29366163900704,None,,,50.29375099900062,50.29377909601317,None,,,1,001,0,,2024-04-09_12h30.56.435,replicate_nsd,2023.2.3,59.960717567579536,2024-04-09 12h31.08.208087 -0400,
images/13_28 copy 4.jpg,0,10,0,0,0,"[9, 19, 29, 39, 49, 59, 68, 69, 70, 71]",0,10,10,10,50.30154779800796,,,,,,,,,,,50.294073791010305,,,,,,,50.297958176000975,None,50.29806686801021,50.30154779800796,50.30154779800796,51.04687674701563,51.04687674701563,51.040154799004085,None,51.04025870101759,,,51.040284518996486,None,,,51.04035609101993,51.04037724900991,None,,,1,001,0,,2024-04-09_12h30.56.435,replicate_nsd,2023.2.3,59.960717567579536,2024-04-09 12h31.08.208087 -0400,
images/17_12 copy 3.jpg,0,11,0,0,0,"[9, 19, 29, 39, 49, 59, 68, 69, 70, 71]",0,11,11,11,51.04687674701563,,,,,,,,,,,51.04059746200801,51.04687674701563,51.22944252702291,51.22944252702291,51.94358317600563,51.94358317600563,51.94358317600563,51.935570547997486,None,51.93572154501453,,,,,51.93575477800914,None,51.93585222601541,,,51.9358853000158,None,,,51.93597650600714,51.93600486801006,None,,,1,001,0,,2024-04-09_12h30.56.435,replicate_nsd,2023.2.3,59.960717567579536,2024-04-09 12h31.08.208087 -0400,
images/6_40 copy.jpg,0,12,0,0,0,"[9, 19, 29, 39, 49, 59, 68, 69, 70, 71]",0,12,12,12,51.94358317600563,,,,,,,,,,,51.93630344202393,51.94358317600563,52.13065923799877,52.13065923799877,52.867825156019535,52.867825156019535,52.867825156019535,52.859896320005646,None,52.860045561013976,,,,,52.860078079014784,None,52.86017608002294,,,52.86020839502453,None,,,52.860300480999285,52.86032865001471,None,,,1,001,0,,2024-04-09_12h30.56.435,replicate_nsd,2023.2.3,59.960717567579536,2024-04-09 12h31.08.208087 -0400,
images/21_12 copy 3.jpg,0,13,0,0,0,"[9, 19, 29, 39, 49, 59, 68, 69, 70, 71]",0,13,13,13,52.867825156019535,,,,,,,,,,,52.86062878501252,52.867825156019535,53.07067403302062,53.07067403302062,53.79791186301736,53.79791186301736,53.79791186301736,53.78948125001625,None,53.789658073015744,,,,,53.78969831200084,None,53.78981661400758,,,53.7898566640215,None,,,53.789967217016965,53.79000141500728,None,,,1,001,0,,2024-04-09_12h30.56.435,replicate_nsd,2023.2.3,59.960717567579536,2024-04-09 12h31.08.208087 -0400,
images/7_0 copy.jpg,0,14,0,0,0,"[9, 19, 29, 39, 49, 59, 68, 69, 70, 71]",0,14,14,14,53.79791186301736,,,,,,,,,,,53.79036091800663,53.79791186301736,53.98399231702206,53.98399231702206,54.74297603301238,54.74297603301238,54.74297603301238,54.73484786800691,None,54.7349993410171,,,,,54.73503231201903,None,54.73513134900713,,,54.735168940009316,None,,,54.735261652007466,54.735289900010685,None,,,1,001,0,,2024-04-09_12h30.56.435,replicate_nsd,2023.2.3,59.960717567579536,2024-04-09 12h31.08.208087 -0400,
images/19_0.jpg,0,15,0,0,0,"[9, 19, 29, 39, 49, 59, 68, 69, 70, 71]",0,15,15,15,54.74297603301238,,,,,,,,,,,54.73559271299746,54.74297603301238,54.929331747000106,54.929331747000106,55.603986629022984,55.603986629022984,55.603986629022984,55.59713989999727,None,55.597272184008034,,,,,55.59729915502248,None,55.59738182800356,,,55.597408949019155,None,,,55.597484245023225,55.59750715701375,None,,,1,001,0,,2024-04-09_12h30.56.435,replicate_nsd,2023.2.3,59.960717567579536,2024-04-09 12h31.08.208087 -0400,
images/24_12 copy 2.jpg,0,16,0,0,0,"[9, 19, 29, 39, 49, 59, 68, 69, 70, 71]",0,16,16,16,55.603986629022984,,,,,,,,,,,55.59775850101141,55.603986629022984,55.78669905901188,55.78669905901188,56.46488659500028,56.46488659500028,56.46488659500028,56.45804924299591,None,56.45818696200149,,,,,56.45821457100101,None,56.45829715701984,,,56.458324436011026,None,,,56.45839970500674,56.458423215022776,None,,,1,001,0,,2024-04-09_12h30.56.435,replicate_nsd,2023.2.3,59.960717567579536,2024-04-09 12h31.08.208087 -0400,
images/24_0 copy 5.jpg,0,17,0,0,0,"[9, 19, 29, 39, 49, 59, 68, 69, 70, 71]",0,17,17,17,56.46488659500028,,,,,,,,,,,56.45867084802012,56.46488659500028,56.65110426401952,56.65110426401952,57.33845033199759,57.33845033199759,57.33845033199759,57.33115310501307,None,57.33127966101165,,,,,57.3313059930224,None,57.331385577010224,,,57.331412035011454,None,,,57.33148573501967,57.33150813000975,None,,,1,001,0,,2024-04-09_12h30.56.435,replicate_nsd,2023.2.3,59.960717567579536,2024-04-09 12h31.08.208087 -0400,
images/13_12 copy 2.jpg,0,18,0,0,0,"[9, 19, 29, 39, 49, 59, 68, 69, 70, 71]",0,18,18,18,57.33845033199759,,,,,,,,,,,57.33175109702279,57.33845033199759,57.52212534099817,57.52212534099817,58.20291221901425,58.20291221901425,58.20291221901425,58.19618980601081,None,58.19634848702117,,,,,58.19638413199573,None,58.19649633200606,,,58.19653337501222,None,,,58.19663613900775,58.19666890602093,None,,,1,001,0,,2024-04-09_12h30.56.435,replicate_nsd,2023.2.3,59.960717567579536,2024-04-09 12h31.08.208087 -0400,
images/blank.jpg,0,19,1,0,0,"[9, 19, 29, 39, 49, 59, 68, 69, 70, 71]",0,19,19,19,58.20291221901425,,,,,,,,,,,58.197017111000605,58.20291221901425,58.388110858009895,58.388110858009895,59.109300531010376,59.109300531010376,59.109300531010376,59.10162746801507,None,59.101783525024075,,,,,59.101817222021054,None,59.10191510501318,,,59.101948169001844,None,,,59.102038364013424,59.102066149003804,None,,,1,001,0,,2024-04-09_12h30.56.435,replicate_nsd,2023.2.3,59.960717567579536,2024-04-09 12h31.08.208087 -0400,
images/11_28 copy 7.jpg,0,20,0,0,0,"[9, 19, 29, 39, 49, 59, 68, 69, 70, 71]",0,20,20,20,59.109300531010376,,,,,,,,,,,59.102362061006716,,,,,,,59.10557659601909,None,59.10567782999715,59.109300531010376,59.109300531010376,59.859985058021266,59.859985058021266,59.85287507402245,None,59.85299608801142,,,59.853022802009946,None,,,59.85311879002256,59.853141116996994,None,,,1,001,0,,2024-04-09_12h30.56.435,replicate_nsd,2023.2.3,59.960717567579536,2024-04-09 12h31.08.208087 -0400,
images/5_0.jpg,0,21,0,0,0,"[9, 19, 29, 39, 49, 59, 68, 69, 70, 71]",0,21,21,21,59.859985058021266,,,,,,,,,,,59.8533730560157,59.859985058021266,60.043758885003626,60.043758885003626,60.795876435004175,60.795876435004175,60.795876435004175,60.787942638009554,None,60.78812022402417,,,,,60.78815934600425,None,60.78827812700183,,,60.788317515020026,None,,,60.788427271996625,60.7884610890178,None,,,1,001,0,,2024-04-09_12h30.56.435,replicate_nsd,2023.2.3,59.960717567579536,2024-04-09 12h31.08.208087 -0400,
images/21_12 copy 4.jpg,0,22,0,0,0,"[9, 19, 29, 39, 49, 59, 68, 69, 70, 71]",0,22,22,22,60.795876435004175,,,,,,,,,,,60.78882139699999,60.795876435004175,60.98143191501731,60.98143191501731,61.74556398901041,61.74556398901041,61.74556398901041,61.738290510023944,None,61.73844339000061,,,,,61.738476090016775,None,61.73857540800236,,,61.73860842900467,None,,,61.738699680019636,61.73872855701484,None,,,1,001,0,,2024-04-09_12h30.56.435,replicate_nsd,2023.2.3,59.960717567579536,2024-04-09 12h31.08.208087 -0400,
images/10_12 copy 4.jpg,0,23,0,0,0,"[9, 19, 29, 39, 49, 59, 68, 69, 70, 71]",0,23,23,23,61.74556398901041,,,,,,,,,,,61.73902774302405,61.74556398901041,61.93679026002064,61.93679026002064,62.693779317021836,62.693779317021836,62.693779317021836,62.68531941101537,None,62.68549829701078,,,,,62.68553831600002,None,62.68565530801425,,,62.68569432201912,None,,,62.68580323201604,62.6858370359987,None,,,1,001,0,,2024-04-09_12h30.56.435,replicate_nsd,2023.2.3,59.960717567579536,2024-04-09 12h31.08.208087 -0400,
images/7_12 copy 3.jpg,0,24,0,0,0,"[9, 19, 29, 39, 49, 59, 68, 69, 70, 71]",0,24,24,24,62.693779317021836,,,,,,,,,,,62.68619874000433,62.693779317021836,62.886402767006075,62.886402767006075,63.633157938020304,63.633157938020304,63.633157938020304,63.61839482601499,None,63.61857530401903,,,,,63.61861512399628,None,63.6187348140229,,,63.618774316011695,None,,,63.61888578700018,63.618920080014504,None,,,1,001,0,,2024-04-09_12h30.56.435,replicate_nsd,2023.2.3,59.960717567579536,2024-04-09 12h31.08.208087 -0400,
images/pair02 copy.jpg,0,25,0,0,0,"[9, 19, 29, 39, 49, 59, 68, 69, 70, 71]",0,25,25,25,63.633157938020304,,,,,,,,,,,63.61954217401217,63.633157938020304,63.81681109001511,63.81681109001511,64.56001367399585,64.56001367399585,64.56001367399585,64.55139114600024,None,64.551518096996,,,,,64.55154450100963,None,64.55162493299576,,,64.55165201201453,None,,,64.55172653202317,64.55174985900521,None,,,1,001,0,,2024-04-09_12h30.56.435,replicate_nsd,2023.2.3,59.960717567579536,2024-04-09 12h31.08.208087 -0400,
images/23_12 copy 3.jpg,0,26,0,0,0,"[9, 19, 29, 39, 49, 59, 68, 69, 70, 71]",0,26,26,26,64.56001367399585,,,,,,,,,,,64.55199458100833,64.56001367399585,64.74478167900816,64.74478167900816,65.50198085000739,65.50198085000739,65.50198085000739,65.49349538201932,None,65.49366275101784,,,,,65.49369874500553,None,65.49380303200451,,,65.49383540000417,None,,,65.49412127700634,65.49415035202401,None,,,1,001,0,,2024-04-09_12h30.56.435,replicate_nsd,2023.2.3,59.960717567579536,2024-04-09 12h31.08.208087 -0400,
images/14_12.jpg,0,27,0,0,0,"[9, 19, 29, 39, 49, 59, 68, 69, 70, 71]",0,27,27,27,65.50198085000739,,,,,,,,,,,65.4944548830099,65.50198085000739,65.6902616910229,65.6902616910229,66.37836131901713,66.37836131901713,66.37836131901713,66.37103180101258,None,66.37115790101234,,,,,66.37118413401186,None,66.37126659302157,,,66.37129275201005,None,,,66.37136701200507,66.37139012801345,None,,,1,001,0,,2024-04-09_12h30.56.435,replicate_nsd,2023.2.3,59.960717567579536,2024-04-09 12h31.08.208087 -0400,
images/18_0 copy 3.jpg,0,28,0,0,0,"[9, 19, 29, 39, 49, 59, 68, 69, 70, 71]",0,28,28,28,66.37836131901713,,,,,,,,,,,66.37164015701273,66.37836131901713,66.56089124499704,66.56089124499704,67.29176863201428,67.29176863201428,67.29176863201428,67.28524163400289,None,67.28543381101917,,,,,67.28546681199805,None,67.28556721602217,,,67.28559978000703,None,,,67.2856913029973,67.28571951302001,None,,,1,001,0,,2024-04-09_12h30.56.435,replicate_nsd,2023.2.3,59.960717567579536,2024-04-09 12h31.08.208087 -0400,
images/blank.jpg,0,29,1,0,0,"[9, 19, 29, 39, 49, 59, 68, 69, 70, 71]",0,29,29,29,67.29176863201428,,,,,,,,,,,67.28602014502394,67.29176863201428,67.47469266501139,67.47469266501139,68.20640225202078,68.20640225202078,68.20640225202078,68.19747999100946,None,68.19765883800574,,,,,68.19770111900289,None,68.19782103502075,,,68.197861845023,None,,,68.19797353501781,68.19800885900622,None,,,1,001,0,,2024-04-09_12h30.56.435,replicate_nsd,2023.2.3,59.960717567579536,2024-04-09 12h31.08.208087 -0400,
images/16_0 copy 7.jpg,0,30,0,0,0,"[9, 19, 29, 39, 49, 59, 68, 69, 70, 71]",0,30,30,30,68.20640225202078,,,,,,,,,,,68.19840046099853,,,,,,,68.20237717000418,None,68.20249410602264,68.20640225202078,68.20640225202078,68.96664653799962,68.96664653799962,68.95902035501786,None,68.95916335302172,,,68.95919981901534,None,,,68.95930175701506,68.95933135400992,None,,,1,001,0,,2024-04-09_12h30.56.435,replicate_nsd,2023.2.3,59.960717567579536,2024-04-09 12h31.08.208087 -0400,
images/19_0 copy 2.jpg,0,31,0,0,0,"[9, 19, 29, 39, 49, 59, 68, 69, 70, 71]",0,31,31,31,68.96664653799962,,,,,,,,,,,68.95963863900397,68.96664653799962,69.1462232299964,69.1462232299964,69.89245331200073,69.89245331200073,69.89245331200073,69.8848950190004,None,69.88504599401494,,,,,69.88507985099568,None,69.88517773599597,,,69.8852103940153,None,,,69.8853013960179,69.88532915801625,None,,,1,001,0,,2024-04-09_12h30.56.435,replicate_nsd,2023.2.3,59.960717567579536,2024-04-09 12h31.08.208087 -0400,
images/13_28 copy 7.jpg,0,32,0,0,0,"[9, 19, 29, 39, 49, 59, 68, 69, 70, 71]",0,32,32,32,69.89245331200073,,,,,,,,,,,69.88563075801358,69.89245331200073,70.07576603701455,70.07576603701455,70.77462084000581,70.77462084000581,70.77462084000581,70.76781334000407,None,70.76796175699565,,,,,70.76799426900106,None,70.7680906500027,,,70.76812290001544,None,,,70.76821349101374,70.76824135301285,None,,,1,001,0,,2024-04-09_12h30.56.435,replicate_nsd,2023.2.3,59.960717567579536,2024-04-09 12h31.08.208087 -0400,
images/14_12.jpg,0,33,0,0,0,"[9, 19, 29, 39, 49, 59, 68, 69, 70, 71]",0,33,33,33,70.77462084000581,,,,,,,,,,,70.76854008302325,70.77462084000581,70.9573246500222,70.9573246500222,71.66515455199988,71.66515455199988,71.66515455199988,71.65816764501506,None,71.6582747049979,,,,,71.6582947820134,None,71.6583552910015,,,71.65837615600321,None,,,71.65843010900426,71.65844685200136,None,,,1,001,0,,2024-04-09_12h30.56.435,replicate_nsd,2023.2.3,59.960717567579536,2024-04-09 12h31.08.208087 -0400,
images/23_28 copy.jpg,0,34,0,0,0,"[9, 19, 29, 39, 49, 59, 68, 69, 70, 71]",0,34,34,34,71.66515455199988,,,,,,,,,,,71.65863751701545,71.66515455199988,71.85625323001295,71.85625323001295,72.54227311001159,72.54227311001159,72.54227311001159,72.53420841600746,None,72.53436280501774,,,,,72.53439513902413,None,72.53449538300629,,,72.53452952500083,None,,,72.53462225201656,72.53465125799994,None,,,1,001,0,,2024-04-09_12h30.56.435,replicate_nsd,2023.2.3,59.960717567579536,2024-04-09 12h31.08.208087 -0400,
images/6_12 copy 4.jpg,0,35,0,0,0,"[9, 19, 29, 39, 49, 59, 68, 69, 70, 71]",0,35,35,35,72.54227311001159,,,,,,,,,,,72.5349555349967,72.54227311001159,72.72304937301669,72.72304937301669,73.47604774901993,73.47604774901993,73.47604774901993,73.4679597740178,None,73.46813925501192,,,,,73.468179522024,None,73.46829774801154,,,73.46833706300822,None,,,73.46844712202437,73.46848117001355,None,,,1,001,0,,2024-04-09_12h30.56.435,replicate_nsd,2023.2.3,59.960717567579536,2024-04-09 12h31.08.208087 -0400,
images/10_0 copy 4.jpg,0,36,0,0,0,"[9, 19, 29, 39, 49, 59, 68, 69, 70, 71]",0,36,36,36,73.47604774901993,,,,,,,,,,,73.46884422001312,73.47604774901993,73.66258130900678,73.66258130900678,74.34668007001164,74.34668007001164,74.34668007001164,74.33926622700528,None,74.33940410200739,,,,,74.33943196100881,None,74.3395140299981,,,74.33954159001587,None,,,74.33961717999773,74.3396407260152,None,,,1,001,0,,2024-04-09_12h30.56.435,replicate_nsd,2023.2.3,59.960717567579536,2024-04-09 12h31.08.208087 -0400,
images/19_40 copy.jpg,0,37,0,0,0,"[9, 19, 29, 39, 49, 59, 68, 69, 70, 71]",0,37,37,37,74.34668007001164,,,,,,,,,,,74.33989295302308,74.34668007001164,74.52706700601266,74.52706700601266,75.22638465100317,75.22638465100317,75.22638465100317,75.21921952301636,None,75.21939685501275,,,,,75.21943633799674,None,75.21955528500257,,,75.21959408101975,None,,,75.2197041970212,75.21973780699773,None,,,1,001,0,,2024-04-09_12h30.56.435,replicate_nsd,2023.2.3,59.960717567579536,2024-04-09 12h31.08.208087 -0400,
images/23_12 copy 3.jpg,0,38,0,0,0,"[9, 19, 29, 39, 49, 59, 68, 69, 70, 71]",0,38,38,38,75.22638465100317,,,,,,,,,,,75.22009778500069,75.22638465100317,75.40994316601427,75.40994316601427,76.12591235199943,76.12591235199943,76.12591235199943,76.11930503501208,None,76.11948294300237,,,,,76.11952249900787,None,76.11964072301635,,,76.11968016100582,None,,,76.11978976402315,76.11982340100803,None,,,1,001,0,,2024-04-09_12h30.56.435,replicate_nsd,2023.2.3,59.960717567579536,2024-04-09 12h31.08.208087 -0400,
images/blank.jpg,0,39,1,0,0,"[9, 19, 29, 39, 49, 59, 68, 69, 70, 71]",0,39,39,39,76.12591235199943,,,,,,,,,,,76.12018223199993,76.12591235199943,76.31511197701911,76.31511197701911,77.04477448100806,77.04477448100806,77.04477448100806,77.036865675007,None,77.03704342601122,,,,,77.03708366100909,None,77.03720301401336,,,77.03724269202212,None,,,77.0373523660237,77.03738622899982,None,,,1,001,0,,2024-04-09_12h30.56.435,replicate_nsd,2023.2.3,59.960717567579536,2024-04-09 12h31.08.208087 -0400,
images/23_12 copy 7.jpg,0,40,0,0,0,"[9, 19, 29, 39, 49, 59, 68, 69, 70, 71]",0,40,40,40,77.04477448100806,,,,,,,,,,,77.03775046701776,,,,,,,77.04103515102179,None,77.0411518040055,77.04477448100806,77.04477448100806,77.84816469400539,77.84816469400539,77.83925793200615,None,77.83940320901456,,,77.83943969500251,None,,,77.83953956200276,77.8395690570178,None,,,1,001,0,,2024-04-09_12h30.56.435,replicate_nsd,2023.2.3,59.960717567579536,2024-04-09 12h31.08.208087 -0400,
images/pair06 copy 6.jpg,0,41,0,0,0,"[9, 19, 29, 39, 49, 59, 68, 69, 70, 71]",0,41,41,41,77.84816469400539,,,,,,,,,,,77.83987283101305,77.84816469400539,78.04013642002246,78.04013642002246,78.77895685500698,78.77895685500698,78.77895685500698,78.77173173800111,None,78.77184535801644,,,,,78.7718692610215,None,78.77193945701583,,,78.77196317000198,None,,,78.77202808801667,78.77204796799924,None,,,1,001,0,,2024-04-09_12h30.56.435,replicate_nsd,2023.2.3,59.960717567579536,2024-04-09 12h31.08.208087 -0400,
images/15_0 copy 3.jpg,0,42,0,0,0,"[9, 19, 29, 39, 49, 59, 68, 69, 70, 71]",0,42,42,42,78.77895685500698,,,,,,,,,,,78.77226492701448,78.77895685500698,78.9636644590064,78.9636644590064,79.70663015902392,79.70663015902392,79.70663015902392,79.70029793202411,None,79.70041246400797,,,,,79.7004353130178,None,79.70050523799728,,,79.70052942601615,None,,,79.70059559601941,79.7006159160228,None,,,1,001,0,,2024-04-09_12h30.56.435,replicate_nsd,2023.2.3,59.960717567579536,2024-04-09 12h31.08.208087 -0400,
images/19_0 copy 4.jpg,0,43,0,0,0,"[9, 19, 29, 39, 49, 59, 68, 69, 70, 71]",0,43,43,43,79.70663015902392,,,,,,,,,,,79.70083195401821,79.70663015902392,79.89514114701888,79.89514114701888,80.54298707301496,80.54298707301496,80.54298707301496,80.5365554720047,None,80.53666639100993,,,,,80.5366879570065,None,80.53675215502153,,,80.53677398501895,None,,,80.53683330002241,80.53685137801222,None,,,1,001,0,,2024-04-09_12h30.56.435,replicate_nsd,2023.2.3,59.960717567579536,2024-04-09 12h31.08.208087 -0400,
images/22_0 copy 5.jpg,0,44,0,0,0,"[9, 19, 29, 39, 49, 59, 68, 69, 70, 71]",0,44,44,44,80.54298707301496,,,,,,,,,,,80.53706881101243,80.54298707301496,80.72804721799912,80.72804721799912,81.40159185801167,81.40159185801167,81.40159185801167,81.39312668101047,None,81.39327800102183,,,,,81.39330977300415,None,81.39340911700856,,,81.39344161900226,None,,,81.39353334301268,81.39356170900282,None,,,1,001,0,,2024-04-09_12h30.56.435,replicate_nsd,2023.2.3,59.960717567579536,2024-04-09 12h31.08.208087 -0400,
images/20_0.jpg,0,45,0,0,0,"[9, 19, 29, 39, 49, 59, 68, 69, 70, 71]",0,45,45,45,81.40159185801167,,,,,,,,,,,81.39386024500709,81.40159185801167,81.58823768800357,81.58823768800357,82.33408971401514,82.33408971401514,82.33408971401514,82.32382585000596,None,82.32400427301764,,,,,82.32404370701988,None,82.32416239401209,,,82.32420155502041,None,,,82.32431200001156,82.32434710100642,None,,,1,001,0,,2024-04-09_12h30.56.435,replicate_nsd,2023.2.3,59.960717567579536,2024-04-09 12h31.08.208087 -0400,
images/pair03 copy 3.jpg,0,46,0,0,0,"[9, 19, 29, 39, 49, 59, 68, 69, 70, 71]",0,46,46,46,82.33408971401514,,,,,,,,,,,82.3247357380169,82.33408971401514,82.54618466601823,82.54618466601823,83.23943911600509,83.23943911600509,83.23943911600509,83.23089743801393,None,83.23107723001158,,,,,83.23111745301867,None,83.23123581599793,,,83.23127475200454,None,,,83.23138566801208,83.2314201540139,None,,,1,001,0,,2024-04-09_12h30.56.435,replicate_nsd,2023.2.3,59.960717567579536,2024-04-09 12h31.08.208087 -0400,
images/6_12 copy 3.jpg,0,47,0,0,0,"[9, 19, 29, 39, 49, 59, 68, 69, 70, 71]",0,47,47,47,83.23943911600509,,,,,,,,,,,83.23178100399673,83.23943911600509,83.43449079501443,83.43449079501443,84.13764169599744,84.13764169599744,84.13764169599744,84.12927400600165,None,84.12942430202384,,,,,84.12945707200561,None,84.12955549600883,,,84.12958878400968,None,,,84.12968195800204,84.12971041401033,None,,,1,001,0,,2024-04-09_12h30.56.435,replicate_nsd,2023.2.3,59.960717567579536,2024-04-09 12h31.08.208087 -0400,
images/9_0 copy 3.jpg,0,48,0,0,0,"[9, 19, 29, 39, 49, 59, 68, 69, 70, 71]",0,48,48,48,84.13764169599744,,,,,,,,,,,84.13001261200407,84.13764169599744,84.34615536301862,84.34615536301862,85.06443899401347,85.06443899401347,85.06443899401347,85.05722107700421,None,85.05739786301274,,,,,85.05743670801166,None,85.057556269021,,,85.05759610401583,None,,,85.05794378899736,85.05799194000429,None,,,1,001,0,,2024-04-09_12h30.56.435,replicate_nsd,2023.2.3,59.960717567579536,2024-04-09 12h31.08.208087 -0400,
images/blank.jpg,0,49,1,0,0,"[9, 19, 29, 39, 49, 59, 68, 69, 70, 71]",0,49,49,49,85.06443899401347,,,,,,,,,,,85.05836325700511,85.06443899401347,85.25049677302013,85.25049677302013,85.98613796601421,85.98613796601421,85.98613796601421,85.97754133801209,None,85.97771971701877,,,,,85.97776050001266,None,85.97788174901507,,,85.97792115699849,None,,,85.97803377200034,85.97806772301556,None,,,1,001,0,,2024-04-09_12h30.56.435,replicate_nsd,2023.2.3,59.960717567579536,2024-04-09 12h31.08.208087 -0400,
images/20_40 copy 4.jpg,0,50,0,0,0,"[9, 19, 29, 39, 49, 59, 68, 69, 70, 71]",0,50,50,50,85.98613796601421,,,,,,,,,,,85.9784290670068,,,,,,,85.98238732799655,None,85.98250527502387,85.98613796601421,85.98613796601421,86.75955265300581,86.75955265300581,86.75343392600189,None,86.75354216300184,,,86.75356809800724,None,,,86.75363902101526,86.75365970400162,None,,,1,001,0,,2024-04-09_12h30.56.435,replicate_nsd,2023.2.3,59.960717567579536,2024-04-09 12h31.08.208087 -0400,
images/24_12 copy.jpg,0,51,0,0,0,"[9, 19, 29, 39, 49, 59, 68, 69, 70, 71]",0,51,51,51,86.75955265300581,,,,,,,,,,,86.7538789990067,86.75955265300581,86.9447298310115,86.9447298310115,87.6753357440175,87.6753357440175,87.6753357440175,87.66809922701214,None,87.66823032600223,,,,,87.668258057005,None,87.66834014101187,,,87.66836726802285,None,,,87.6684447209991,87.66846807900583,None,,,1,001,0,,2024-04-09_12h30.56.435,replicate_nsd,2023.2.3,59.960717567579536,2024-04-09 12h31.08.208087 -0400,
images/14_40 copy 5.jpg,0,52,0,0,0,"[9, 19, 29, 39, 49, 59, 68, 69, 70, 71]",0,52,52,52,87.6753357440175,,,,,,,,,,,87.66871660301695,87.6753357440175,87.87251934001688,87.87251934001688,88.59561003002455,88.59561003002455,88.59561003002455,88.58613404800417,None,88.58628743499867,,,,,88.58632045102422,None,88.58642145901104,,,88.58645475501544,None,,,88.58654703901266,88.58657568701892,None,,,1,001,0,,2024-04-09_12h30.56.435,replicate_nsd,2023.2.3,59.960717567579536,2024-04-09 12h31.08.208087 -0400,
images/pair14 copy 7.jpg,0,53,0,0,0,"[9, 19, 29, 39, 49, 59, 68, 69, 70, 71]",0,53,53,53,88.59561003002455,,,,,,,,,,,88.58687826100504,88.59561003002455,88.78627659499762,88.78627659499762,89.5280004000233,89.5280004000233,89.5280004000233,89.51943074099836,None,89.51960914500523,,,,,89.51964912199765,None,89.5197688479966,,,89.51980800600722,None,,,89.51991959800944,89.51995400802116,None,,,1,001,0,,2024-04-09_12h30.56.435,replicate_nsd,2023.2.3,59.960717567579536,2024-04-09 12h31.08.208087 -0400,
images/14_40 copy 7.jpg,0,54,0,0,0,"[9, 19, 29, 39, 49, 59, 68, 69, 70, 71]",0,54,54,54,89.5280004000233,,,,,,,,,,,89.52031555501162,89.5280004000233,89.72079536202364,89.72079536202364,90.46588410201366,90.46588410201366,90.46588410201366,90.4558177489962,None,90.45599611199577,,,,,90.45603485801257,None,90.4561543080199,,,90.45619379801792,None,,,90.45630403101677,90.45633767801337,None,,,1,001,0,,2024-04-09_12h30.56.435,replicate_nsd,2023.2.3,59.960717567579536,2024-04-09 12h31.08.208087 -0400,
images/pair01 copy.jpg,0,55,0,0,0,"[9, 19, 29, 39, 49, 59, 68, 69, 70, 71]",0,55,55,55,90.46588410201366,,,,,,,,,,,90.45669850101694,90.46588410201366,90.6663951149967,90.6663951149967,91.38167737799813,91.38167737799813,91.38167737799813,91.37318305199733,None,91.3733630310162,,,,,91.37340220500482,None,91.37352274201112,,,91.373561867018,None,,,91.37367436999921,91.37370860300143,None,,,1,001,0,,2024-04-09_12h30.56.435,replicate_nsd,2023.2.3,59.960717567579536,2024-04-09 12h31.08.208087 -0400,
images/18_0 copy 2.jpg,0,56,0,0,0,"[9, 19, 29, 39, 49, 59, 68, 69, 70, 71]",0,56,56,56,91.38167737799813,,,,,,,,,,,91.37408333501662,91.38167737799813,91.58880335601862,91.58880335601862,92.3058245050197,92.3058245050197,92.3058245050197,92.29741297801957,None,92.29759363501216,,,,,92.29763339101919,None,92.29775595100364,,,92.29779550500098,None,,,92.29790685800253,92.29794027202297,None,,,1,001,0,,2024-04-09_12h30.56.435,replicate_nsd,2023.2.3,59.960717567579536,2024-04-09 12h31.08.208087 -0400,
images/19_28 copy 5.jpg,0,57,0,0,0,"[9, 19, 29, 39, 49, 59, 68, 69, 70, 71]",0,57,57,57,92.3058245050197,,,,,,,,,,,92.29830345200025,92.3058245050197,92.50213120999979,92.50213120999979,93.23502912500408,93.23502912500408,93.23502912500408,93.22638817402185,None,93.22654150100425,,,,,93.22657416001312,None,93.22667399499915,,,93.22670697802096,None,,,93.22679869501735,93.22682651600917,None,,,1,001,0,,2024-04-09_12h30.56.435,replicate_nsd,2023.2.3,59.960717567579536,2024-04-09 12h31.08.208087 -0400,
images/pair02 copy 5.jpg,0,58,0,0,0,"[9, 19, 29, 39, 49, 59, 68, 69, 70, 71]",0,58,58,58,93.23502912500408,,,,,,,,,,,93.22712816300918,93.23502912500408,93.43322264801827,93.43322264801827,94.15050946900737,94.15050946900737,94.15050946900737,94.14463534401148,None,94.14474525401602,,,,,94.14476768599707,None,94.14483646402368,,,94.14485888401396,None,,,94.14492144001997,94.14494104601908,None,,,1,001,0,,2024-04-09_12h30.56.435,replicate_nsd,2023.2.3,59.960717567579536,2024-04-09 12h31.08.208087 -0400,
images/blank.jpg,0,59,1,0,0,"[9, 19, 29, 39, 49, 59, 68, 69, 70, 71]",0,59,59,59,94.15050946900737,,,,,,,,,,,94.14515065102023,94.15050946900737,94.33342281999649,94.33342281999649,95.08762287799618,95.08762287799618,95.08762287799618,95.07968779999646,None,95.07984005002072,,,,,95.07987280702218,None,95.07996994201676,,,95.08000228900346,None,,,95.08009297499666,95.08012081802008,None,,,1,001,0,,2024-04-09_12h30.56.435,replicate_nsd,2023.2.3,59.960717567579536,2024-04-09 12h31.08.208087 -0400,
images/16_28 copy 3.jpg,0,60,0,0,0,"[9, 19, 29, 39, 49, 59, 68, 69, 70, 71]",0,60,60,60,95.08762287799618,,,,,,,,,,,95.08041747001698,,,,,,,95.0837775330001,None,95.08389457501471,95.08762287799618,95.08762287799618,95.86940847701044,95.86940847701044,95.86208265001187,None,95.8622519710043,,,95.86229888102389,None,,,95.86241937300656,95.86245569502353,None,,,1,001,0,,2024-04-09_12h30.56.435,replicate_nsd,2023.2.3,59.960717567579536,2024-04-09 12h31.08.208087 -0400,
images/24_0.jpg,0,61,0,0,0,"[9, 19, 29, 39, 49, 59, 68, 69, 70, 71]",0,61,61,61,95.86940847701044,,,,,,,,,,,95.86282475999906,95.86940847701044,96.05695495099644,96.05695495099644,96.7953446879983,96.7953446879983,96.7953446879983,96.78705269799684,None,96.78720475401497,,,,,96.78723823901964,None,96.78733599200496,,,96.78736944700358,None,,,96.7874621200026,96.78749080302077,None,,,1,001,0,,2024-04-09_12h30.56.435,replicate_nsd,2023.2.3,59.960717567579536,2024-04-09 12h31.08.208087 -0400,
images/5_12 copy 7.jpg,0,62,0,0,0,"[9, 19, 29, 39, 49, 59, 68, 69, 70, 71]",0,62,62,62,96.7953446879983,,,,,,,,,,,96.7877976350137,96.7953446879983,96.99838581000222,96.99838581000222,97.72978456501733,97.72978456501733,97.72978456501733,97.72134596901014,None,97.72152449999703,,,,,97.72156367401476,None,97.72168273001444,,,97.72172286800924,None,,,97.72183381201467,97.7218684280233,None,,,1,001,0,,2024-04-09_12h30.56.435,replicate_nsd,2023.2.3,59.960717567579536,2024-04-09 12h31.08.208087 -0400,
images/8_12 copy 3.jpg,0,63,0,0,0,"[9, 19, 29, 39, 49, 59, 68, 69, 70, 71]",0,63,63,63,97.72978456501733,,,,,,,,,,,97.72222813800909,97.72978456501733,97.93299822500558,97.93299822500558,98.64764510601526,98.64764510601526,98.64764510601526,98.63984782900661,None,98.63998508499935,,,,,98.64000873101759,None,98.64007996002329,,,98.64010422801948,None,,,98.64016950500081,98.6401900560013,None,,,1,001,0,,2024-04-09_12h30.56.435,replicate_nsd,2023.2.3,59.960717567579536,2024-04-09 12h31.08.208087 -0400,
images/pair16 copy 4.jpg,0,64,0,0,0,"[9, 19, 29, 39, 49, 59, 68, 69, 70, 71]",0,64,64,64,98.64764510601526,,,,,,,,,,,98.6404066850082,98.64764510601526,98.84256327399635,98.84256327399635,99.59309631201904,99.59309631201904,99.59309631201904,99.58437957201386,None,99.58455628700904,,,,,99.58459518500604,None,99.5847134780197,,,99.58475271202042,None,,,99.58486264900421,99.58489659402403,None,,,1,001,0,,2024-04-09_12h30.56.435,replicate_nsd,2023.2.3,59.960717567579536,2024-04-09 12h31.08.208087 -0400,
images/19_28 copy 4.jpg,0,65,0,0,0,"[9, 19, 29, 39, 49, 59, 68, 69, 70, 71]",0,65,65,65,99.59309631201904,,,,,,,,,,,99.58525569800986,99.59309631201904,99.7859559780045,99.7859559780045,100.51597782500903,100.51597782500903,100.51597782500903,100.50831045099767,None,100.50848872601637,,,,,100.508528706996,None,100.50864823302254,,,100.5086872690008,None,,,100.50879803401767,100.50883208602318,None,,,1,001,0,,2024-04-09_12h30.56.435,replicate_nsd,2023.2.3,59.960717567579536,2024-04-09 12h31.08.208087 -0400,
images/23_28 copy 5.jpg,0,66,0,0,0,"[9, 19, 29, 39, 49, 59, 68, 69, 70, 71]",0,66,66,66,100.51597782500903,,,,,,,,,,,100.50919504501508,100.51597782500903,100.71375931802322,100.71375931802322,101.4385305600008,101.4385305600008,101.4385305600008,101.43029680801556,None,101.43047450302402,,,,,101.43051411400666,None,101.4306343680073,,,101.43067343102302,None,,,101.43078333200538,101.43081755100866,None,,,1,001,0,,2024-04-09_12h30.56.435,replicate_nsd,2023.2.3,59.960717567579536,2024-04-09 12h31.08.208087 -0400,
images/10_28 copy 7.jpg,0,67,0,0,0,"[9, 19, 29, 39, 49, 59, 68, 69, 70, 71]",0,67,67,67,101.4385305600008,,,,,,,,,,,101.4311771360226,101.4385305600008,101.62241053101025,101.62241053101025,102.36609560900251,102.36609560900251,102.36609560900251,102.35929574701004,None,102.35947197501082,,,,,102.35951068601571,None,102.35963002601056,,,102.35966947500128,None,,,102.35977951300447,102.35981322999578,None,,,1,001,0,,2024-04-09_12h30.56.435,replicate_nsd,2023.2.3,59.960717567579536,2024-04-09 12h31.08.208087 -0400,
images/blank.jpg,0,68,1,0,0,"[9, 19, 29, 39, 49, 59, 68, 69, 70, 71]",0,68,68,68,102.36609560900251,,,,,,,,,,,102.3601743990148,102.36609560900251,102.5727732660016,102.5727732660016,103.2757630100241,103.2757630100241,103.2757630100241,103.26878586501698,None,103.26896579802269,,,,,103.26900665400899,None,103.26912573899608,,,103.2691643150174,None,,,103.26927350301412,103.26930776200606,None,,,1,001,0,,2024-04-09_12h30.56.435,replicate_nsd,2023.2.3,59.960717567579536,2024-04-09 12h31.08.208087 -0400,
images/blank.jpg,0,69,1,0,0,"[9, 19, 29, 39, 49, 59, 68, 69, 70, 71]",0,69,69,69,103.2757630100241,,,,,,,,,,,103.26966694401926,,,,,,,103.2719738809974,None,103.27209132700227,103.2757630100241,103.2757630100241,104.03973265000968,104.03973265000968,104.03421172100934,None,104.03431854699738,,,104.03434484801255,None,,,104.03441540300264,104.0344361840107,None,,,1,001,0,,2024-04-09_12h30.56.435,replicate_nsd,2023.2.3,59.960717567579536,2024-04-09 12h31.08.208087 -0400,
images/blank.jpg,0,70,1,0,0,"[9, 19, 29, 39, 49, 59, 68, 69, 70, 71]",0,70,70,70,104.03973265000968,,,,,,,,,,,104.0346518040169,,,,,,,104.036371307011,None,104.03645224901265,104.03973265000968,104.03973265000968,104.80330056900857,104.80330056900857,104.79745325702243,None,104.7975604350213,,,104.79758675201447,None,,,104.79765845500515,104.79767931101378,None,,,1,001,0,,2024-04-09_12h30.56.435,replicate_nsd,2023.2.3,59.960717567579536,2024-04-09 12h31.08.208087 -0400,
,,,,,,,,,,,104.80330056900857,,,,,,,,,,,104.79789757801336,,,,,,,104.79967310201027,None,104.7997559090145,104.80330056900857,104.80330056900857,105.59308282402344,105.59308282402344,105.5879745670245,None,105.58811479900032,,,105.58815103399684,None,,,105.58825035500922,,,105.59308282402344,105.59308282402344,,,,,,,,,,
