current_image,is_repeat,trial_index,is_blank_trial,is_new_run,run_num,all_blanks_list,practice.thisRepN,practice.thisTrialN,practice.thisN,practice.thisIndex,loop_all_images.thisRepN,loop_all_images.thisTrialN,loop_all_images.thisN,loop_all_images.thisIndex,thisRow.t,notes,set_up.started,set_up.stopped,practice_continue.started,key_resp_6.started,text_6.started,practice_continue.stopped,key_resp_6.keys,key_resp_6.rt,key_resp_6.duration,testing_continue.started,key_resp_7.started,text_7.started,testing_continue.stopped,key_resp_7.keys,key_resp_7.rt,key_resp_7.duration,waiting_fmri.started,key_resp_2.started,text_3.started,waiting_fmri.stopped,key_resp_2.keys,key_resp_2.rt,key_resp_2.duration,set_skips_and_correct_key.started,set_skips_and_correct_key.stopped,trial.started,polygon.started,all_keys_pressed.started,image.started,press_if_repeat.started,image.stopped,press_if_repeat.stopped,polygon.stopped,all_keys_pressed.stopped,trial.stopped,press_if_repeat.keys,press_if_repeat.corr,all_keys_pressed.keys,blank_trial.started,blank_trial.stopped,blank_trial_testing_keys.keys,run_wait2_2.started,run_wait2_2.stopped,key_resp_5.keys,waiting_fmri_2.started,waiting_fmri_2.stopped,key_resp_4.keys,blank_trial_testing_keys.started,polygon_2.started,blank_trial_testing_keys.stopped,polygon_2.stopped,press_if_repeat.rt,press_if_repeat.duration,all_keys_pressed.rt,all_keys_pressed.duration,blank_trial_testing_keys.rt,blank_trial_testing_keys.duration,key_resp_5.started,text_5.started,key_resp_5.rt,key_resp_5.duration,key_resp_4.started,text_4.started,key_resp_4.rt,key_resp_4.duration,participant,session,starting_run,,date,expName,psychopyVersion,frameRate,expStart,
,,,,,,,,,,,,,,,,,0.02864832200066303,0.028844602000390296,0.02885943799992674,0.04937270600021293,0.04937270600021293,7.183791596000447,1,7.122286869000163,None,,,,,,,,,,,,,,,,,,,,,,,,,,,,,,,,,,,,,,,,,,,,,,,,,,,,,,,,,1,001,0,,2024-04-12_17h23.54.323,replicate_nsd,2023.2.3,60.06888387221713,2024-04-12 17h24.04.386596 -0400,
,,,,,,,,,,,,,,,,,,,,,,,,,,7.193331308000779,7.209655955000926,7.209655955000926,13.333634678001545,1,6.1163768989990785,None,,,,,,,,,,,,,,,,,,,,,,,,,,,,,,,,,,,,,,,,,,,,,,,,,,1,001,0,,2024-04-12_17h23.54.323,replicate_nsd,2023.2.3,60.06888387221713,2024-04-12 17h24.04.386596 -0400,
,,,,,,,,,,,,,,,,,,,,,,,,,,,,,,,,,13.333656471000722,13.350792177001495,13.350792177001495,17.500197860001208,equal,4.144212852999772,None,,,,,,,,,,,,,,,,,,,,,,,,,,,,,,,,,,,,,,,,,,,1,001,0,,2024-04-12_17h23.54.323,replicate_nsd,2023.2.3,60.06888387221713,2024-04-12 17h24.04.386596 -0400,
images/image_585_seed_1.png,0,0,0,0,0,"[9, 19, 29, 39, 49, 59, 68, 69, 70, 71]",,,,,0,0,0,0,17.62978911600112,,,,,,,,,,,,,,,,,,,,,,,,,17.577367774001686,17.57742694800072,17.57743331200072,17.62978911600112,17.62978911600112,18.617373324001164,18.617373324001164,21.6193538360003,21.6193538360003,21.6193538360003,21.6193538360003,21.600768238000455,None,0,None,21.60299201700036,21.603032172000894,None,21.60373443300159,21.603822514000058,None,21.604509350001535,21.60454523700173,None,,,,,,,,,,,,,,,,,,,1,001,0,,2024-04-12_17h23.54.323,replicate_nsd,2023.2.3,60.06888387221713,2024-04-12 17h24.04.386596 -0400,
images/image_252_seed_1.png,0,1,0,0,0,"[9, 19, 29, 39, 49, 59, 68, 69, 70, 71]",,,,,0,1,1,1,21.6193538360003,,,,,,,,,,,,,,,,,,,,,,,,,21.605466601000444,21.605545520000305,21.6055558930002,21.6193538360003,21.6193538360003,22.617144842000926,22.617144842000926,25.622974013000203,25.622974013000203,25.622974013000203,25.622974013000203,25.600952785000118,None,0,None,25.601465716001258,25.601510701000734,None,25.60162536000098,25.61098286500055,None,25.61108075700031,25.611106334001306,None,,,,,,,,,,,,,,,,,,,1,001,0,,2024-04-12_17h23.54.323,replicate_nsd,2023.2.3,60.06888387221713,2024-04-12 17h24.04.386596 -0400,
images/image_118_seed_1.png,0,2,0,0,0,"[9, 19, 29, 39, 49, 59, 68, 69, 70, 71]",,,,,0,2,2,2,25.622974013000203,,,,,,,,,,,,,,,,,,,,,,,,,25.61136929300119,25.611434644000838,25.61144307200084,25.622974013000203,25.622974013000203,26.617637240000477,26.617637240000477,29.61659409800086,29.61659409800086,29.61659409800086,29.61659409800086,29.601128925000012,None,0,None,29.601640261000284,29.601686349000374,None,29.601802464001594,29.601894398001605,None,29.602011801000117,29.602047317001052,None,,,,,,,,,,,,,,,,,,,1,001,0,,2024-04-12_17h23.54.323,replicate_nsd,2023.2.3,60.06888387221713,2024-04-12 17h24.04.386596 -0400,
images/image_196_seed_1.png,0,3,0,0,0,"[9, 19, 29, 39, 49, 59, 68, 69, 70, 71]",,,,,0,3,3,3,29.61659409800086,,,,,,,,,,,,,,,,,,,,,,,,,29.60243340100169,29.60252983800092,29.60254220800016,29.61659409800086,29.61659409800086,30.617470773000605,30.617470773000605,33.61929288400097,33.61929288400097,33.61929288400097,33.61929288400097,33.60091571800149,None,0,None,33.60142513200117,33.60147066200079,None,33.601585497001,33.601676919000965,None,33.60179482900094,33.60183115900145,None,,,,,,,,,,,,,,,,,,,1,001,0,,2024-04-12_17h23.54.323,replicate_nsd,2023.2.3,60.06888387221713,2024-04-12 17h24.04.386596 -0400,
images/image_10_seed_1.png,0,4,0,0,0,"[9, 19, 29, 39, 49, 59, 68, 69, 70, 71]",,,,,0,4,4,4,33.61929288400097,,,,,,,,,,,,,,,,,,,,,,,,,33.60221111000101,33.60230634800064,33.602318930001275,33.61929288400097,33.61929288400097,34.617657691000204,34.617657691000204,37.616697045001274,37.616697045001274,37.616697045001274,37.616697045001274,37.601101526001,None,0,None,37.60161344400149,37.60165925000001,None,37.60177440700136,37.60186752300069,None,37.601985965000495,37.6020220040009,None,,,,,,,,,,,,,,,,,,,1,001,0,,2024-04-12_17h23.54.323,replicate_nsd,2023.2.3,60.06888387221713,2024-04-12 17h24.04.386596 -0400,
images/image_318_seed_1.png,0,5,0,0,0,"[9, 19, 29, 39, 49, 59, 68, 69, 70, 71]",,,,,0,5,5,5,37.616697045001274,,,,,,,,,,,,,,,,,,,,,,,,,37.60239981600171,37.60249693900005,37.60250964200168,37.616697045001274,37.616697045001274,38.61764976300037,38.61764976300037,41.66953809700135,41.66953809700135,41.66953809700135,41.66953809700135,41.650566838001396,None,0,None,41.65128399200148,41.6513311860017,None,41.65144677900025,41.651539270000285,None,41.6516576110007,41.651693663001424,None,,,,,,,,,,,,,,,,,,,1,001,0,,2024-04-12_17h23.54.323,replicate_nsd,2023.2.3,60.06888387221713,2024-04-12 17h24.04.386596 -0400,
images/image_719_seed_1.png,0,6,0,0,0,"[9, 19, 29, 39, 49, 59, 68, 69, 70, 71]",,,,,0,6,6,6,41.66953809700135,,,,,,,,,,,,,,,,,,,,,,,,,41.65207400300096,41.65217076200133,41.652183241001694,41.66953809700135,41.66953809700135,42.66757937900002,42.66757937900002,45.667877207000856,45.667877207000856,45.667877207000856,45.667877207000856,45.65115194700047,None,0,None,45.651665064000554,45.65171084500071,None,45.651826378001715,45.651919255000394,None,45.652038550000725,45.65207431900126,None,,,,,,,,,,,,,,,,,,,1,001,0,,2024-04-12_17h23.54.323,replicate_nsd,2023.2.3,60.06888387221713,2024-04-12 17h24.04.386596 -0400,
images/image_253_seed_1.png,0,7,0,0,0,"[9, 19, 29, 39, 49, 59, 68, 69, 70, 71]",,,,,0,7,7,7,45.667877207000856,,,,,,,,,,,,,,,,,,,,,,,,,45.65245010900071,45.65254537600049,45.652557634000914,45.667877207000856,45.667877207000856,46.66749895400062,46.66749895400062,49.66674939500081,49.66674939500081,49.66674939500081,49.66674939500081,49.6512642480011,None,0,None,49.651778278001075,49.651824841001144,None,49.65194056600012,49.65203290000136,None,49.65215040100156,49.65218590299992,None,,,,,,,,,,,,,,,,,,,1,001,0,,2024-04-12_17h23.54.323,replicate_nsd,2023.2.3,60.06888387221713,2024-04-12 17h24.04.386596 -0400,
images/image_458_seed_1.png,0,8,0,0,0,"[9, 19, 29, 39, 49, 59, 68, 69, 70, 71]",,,,,0,8,8,8,49.66674939500081,,,,,,,,,,,,,,,,,,,,,,,,,49.65256363700064,49.65265913700023,49.652671495001414,49.66674939500081,49.66674939500081,50.667672683001,50.667672683001,53.66752528000143,53.66752528000143,53.66752528000143,53.66752528000143,53.651063676001286,None,0,None,53.65161964700019,53.651664295000955,None,53.651998308001566,53.65209209100067,None,53.65221331700013,53.652251127001364,None,,,,,,,,,,,,,,,,,,,1,001,0,,2024-04-12_17h23.54.323,replicate_nsd,2023.2.3,60.06888387221713,2024-04-12 17h24.04.386596 -0400,
images/blank.jpg,0,9,1,0,0,"[9, 19, 29, 39, 49, 59, 68, 69, 70, 71]",,,,,0,9,9,9,53.66752528000143,,,,,,,,,,,,,,,,,,,,,,,,,53.65262998600156,53.65272714400089,53.65273966800123,,,,,,,,,53.65941096000097,None,0,None,53.65979133300061,57.65085095900031,None,57.65116585100077,57.651317018000555,None,57.65145245200074,57.65149077500064,None,53.66752528000143,53.66752528000143,57.666663664000225,57.666663664000225,,,,,,,,,,,,,,,1,001,0,,2024-04-12_17h23.54.323,replicate_nsd,2023.2.3,60.06888387221713,2024-04-12 17h24.04.386596 -0400,
images/image_545_seed_1.png,0,10,0,0,0,"[9, 19, 29, 39, 49, 59, 68, 69, 70, 71]",,,,,0,10,10,10,57.666663664000225,,,,,,,,,,,,,,,,,,,,,,,,,57.651883252001426,57.65197967900167,57.651992387000064,57.666663664000225,57.666663664000225,58.667786239000634,58.667786239000634,61.66680127700056,61.66680127700056,61.66680127700056,61.66680127700056,61.65109359500093,None,0,None,61.65158909100137,61.65163457900053,None,61.65174810500139,61.65184078200036,None,61.65195882900116,61.65199412900074,None,,,,,,,,,,,,,,,,,,,1,001,0,,2024-04-12_17h23.54.323,replicate_nsd,2023.2.3,60.06888387221713,2024-04-12 17h24.04.386596 -0400,
images/image_571_seed_1.png,0,11,0,0,0,"[9, 19, 29, 39, 49, 59, 68, 69, 70, 71]",,,,,0,11,11,11,61.66680127700056,,,,,,,,,,,,,,,,,,,,,,,,,61.65237108800102,61.65246656800082,61.652479315000164,61.66680127700056,61.66680127700056,62.667733009000585,62.667733009000585,65.66723296800046,65.66723296800046,65.66723296800046,65.66723296800046,65.65107289300067,None,0,None,65.65156672400008,65.6516132910001,None,65.65172904000065,65.65181969800142,None,65.65193726899997,65.65197265999996,None,,,,,,,,,,,,,,,,,,,1,001,0,,2024-04-12_17h23.54.323,replicate_nsd,2023.2.3,60.06888387221713,2024-04-12 17h24.04.386596 -0400,
images/image_687_seed_1.png,0,12,0,0,0,"[9, 19, 29, 39, 49, 59, 68, 69, 70, 71]",,,,,0,12,12,12,65.66723296800046,,,,,,,,,,,,,,,,,,,,,,,,,65.65258647400151,65.65268650700091,65.65269911700125,65.66723296800046,65.66723296800046,66.66737414700037,66.66737414700037,69.66675604500051,69.66675604500051,69.66675604500051,69.66675604500051,69.65069157700054,None,0,None,69.65120596600173,69.65125158000046,None,69.65136611600064,69.651457295,None,69.65157579300103,69.65161141099998,None,,,,,,,,,,,,,,,,,,,1,001,0,,2024-04-12_17h23.54.323,replicate_nsd,2023.2.3,60.06888387221713,2024-04-12 17h24.04.386596 -0400,
images/image_276_seed_1.png,0,13,0,0,0,"[9, 19, 29, 39, 49, 59, 68, 69, 70, 71]",,,,,0,13,13,13,69.66675604500051,,,,,,,,,,,,,,,,,,,,,,,,,69.65199083400148,69.65208744600022,69.65209982600027,69.66675604500051,69.66675604500051,70.66764082700138,70.66764082700138,73.6666656740017,73.6666656740017,73.6666656740017,73.6666656740017,73.65070330900016,None,0,None,73.65121589200135,73.65126197300015,None,73.65137753100134,73.65147109600002,None,73.65158833000169,73.65162391600097,None,,,,,,,,,,,,,,,,,,,1,001,0,,2024-04-12_17h23.54.323,replicate_nsd,2023.2.3,60.06888387221713,2024-04-12 17h24.04.386596 -0400,
images/image_438_seed_1.png,0,14,0,0,0,"[9, 19, 29, 39, 49, 59, 68, 69, 70, 71]",,,,,0,14,14,14,73.6666656740017,,,,,,,,,,,,,,,,,,,,,,,,,73.65200315500078,73.65210027300054,73.65211271600128,73.6666656740017,73.6666656740017,74.66760520500065,74.66760520500065,77.66676940300022,77.66676940300022,77.66676940300022,77.66676940300022,77.6507895090017,2,0,None,77.65240427800018,77.65245349700126,None,77.65257117500005,77.65266366000105,None,77.65278163300172,77.65281761500046,None,,,,,2.8438596739997593,None,,,,,,,,,,,,,1,001,0,,2024-04-12_17h23.54.323,replicate_nsd,2023.2.3,60.06888387221713,2024-04-12 17h24.04.386596 -0400,
images/image_611_seed_1.png,0,15,0,0,0,"[9, 19, 29, 39, 49, 59, 68, 69, 70, 71]",,,,,0,15,15,15,77.66676940300022,,,,,,,,,,,,,,,,,,,,,,,,,77.65315163600098,77.65322879800078,77.65323905900004,77.66676940300022,77.66676940300022,78.66759418100082,78.66759418100082,81.66854802500166,81.66854802500166,81.66854802500166,81.66854802500166,81.65073118800137,2,0,"['2', '1', '2', '1', '2', '1']",81.65307319000021,81.6531137130005,None,81.65321498100093,81.65329303900035,None,81.65339111800131,81.65342071600026,None,,,,,2.823070150001513,None,"[0.1407306540004356, 0.28576945399981923, 0.4378932920008083, 0.5990230370007339, 0.7230341360009334, 0.8735629510010767]","[None, None, None, None, None, None]",,,,,,,,,,,1,001,0,,2024-04-12_17h23.54.323,replicate_nsd,2023.2.3,60.06888387221713,2024-04-12 17h24.04.386596 -0400,
images/image_615_seed_1.png,0,16,0,0,0,"[9, 19, 29, 39, 49, 59, 68, 69, 70, 71]",,,,,0,16,16,16,81.66854802500166,,,,,,,,,,,,,,,,,,,,,,,,,81.65372410500095,81.65380086700134,81.65381117900142,81.66854802500166,81.66854802500166,82.66766999300125,82.66766999300125,85.66719016500065,85.66719016500065,85.66719016500065,85.66719016500065,85.65027365900096,2,0,"['2', '1', '2', '1', '2', '1', '2']",85.65088161200038,85.65091245200165,None,85.65098749800018,85.65105015300105,None,85.65112777700051,85.65115268699992,None,,,,,2.8398893949997728,None,"[0.09556399200118904, 0.22902490500018757, 0.35319737999998324, 0.5068456669996522, 0.6228857269998116, 0.8045643340010429, 0.9565741330006858]","[None, None, None, None, None, None, None]",,,,,,,,,,,1,001,0,,2024-04-12_17h23.54.323,replicate_nsd,2023.2.3,60.06888387221713,2024-04-12 17h24.04.386596 -0400,
images/image_256_seed_1.png,0,17,0,0,0,"[9, 19, 29, 39, 49, 59, 68, 69, 70, 71]",,,,,0,17,17,17,85.66719016500065,,,,,,,,,,,,,,,,,,,,,,,,,85.651409307,85.65147291800167,85.65148145400053,85.66719016500065,85.66719016500065,86.66774200000145,86.66774200000145,89.66622501300117,89.66622501300117,89.66622501300117,89.66622501300117,89.65075427600095,1,1,"['1', '2', '1', '2', '1', '2', '1', '2']",89.65192044500145,89.65196762400046,None,89.65207891200043,89.65217711900004,None,89.65229494400046,89.65233142000034,None,,,,,2.865711458000078,None,"[0.001146222999523161, 0.11698383099974308, 0.3125017389993445, 0.396441111999593, 0.5742832190007903, 0.6980992930002685, 0.8822022749991447, 0.9783376359991962]","[None, None, None, None, None, None, None, None]",,,,,,,,,,,1,001,0,,2024-04-12_17h23.54.323,replicate_nsd,2023.2.3,60.06888387221713,2024-04-12 17h24.04.386596 -0400,
images/image_210_seed_1.png,0,18,0,0,0,"[9, 19, 29, 39, 49, 59, 68, 69, 70, 71]",,,,,0,18,18,18,89.66622501300117,,,,,,,,,,,,,,,,,,,,,,,,,89.65270104500087,89.65279676000137,89.6528114190005,89.66622501300117,89.66622501300117,90.66716467200058,90.66716467200058,93.6706783210011,93.6706783210011,93.6706783210011,93.6706783210011,93.65026797500104,1,1,"['1', '2', '1', '2']",93.65095853999992,93.65099424800064,None,93.65108162800061,93.6622514260016,None,93.66233800900045,93.66235985999992,None,,,,,2.87653615400086,None,"[0.29903650900087086, 0.5510753310009022, 0.73949671200171, 0.8634622850004234]","[None, None, None, None]",,,,,,,,,,,1,001,0,,2024-04-12_17h23.54.323,replicate_nsd,2023.2.3,60.06888387221713,2024-04-12 17h24.04.386596 -0400,
images/blank.jpg,0,19,1,0,0,"[9, 19, 29, 39, 49, 59, 68, 69, 70, 71]",,,,,0,19,19,19,93.6706783210011,,,,,,,,,,,,,,,,,,,,,,,,,93.66258266000114,93.66264036600114,93.66264750500159,,,,,,,,,93.66597166800057,None,0,None,93.66616908600008,97.65062458800094,"['2', '1', '2', '1', '2', '1', '2', '1', '2', '1', '2', '1', '2', '1', '2', '1', '2', '1', '2', '1', '2', '1', '2', '1', '2', '1']",97.65256983200015,97.65964731700114,None,97.65974138400088,97.65976654900078,None,93.6706783210011,93.6706783210011,97.67088710700045,97.67088710700045,,,,,"[0.025214090001099976, 0.21023126900036004, 0.3018201210015832, 0.4664632200001506, 0.5945489520017873, 0.7542943400003423, 0.8703039670017461, 1.0271640260016284, 1.1831136840010004, 1.37234012800036, 1.4963499690002209, 1.6909595460001583, 1.8276465060007467, 1.9818151770014083, 2.113845420000871, 2.274154571001418, 2.4270594990011887, 2.5576717130006728, 2.7018431530013913, 2.919397015000868, 3.023498650001784, 3.180123057001765, 3.3609581360015, 3.553597414000251, 3.7095579720007663, 3.9212912710008823]","[None, None, None, None, None, None, None, None, None, None, None, None, None, None, None, None, None, None, None, None, None, None, None, None, None, None]",,,,,,,,,1,001,0,,2024-04-12_17h23.54.323,replicate_nsd,2023.2.3,60.06888387221713,2024-04-12 17h24.04.386596 -0400,
images/image_372_seed_1.png,0,20,0,0,0,"[9, 19, 29, 39, 49, 59, 68, 69, 70, 71]",,,,,0,20,20,20,97.67088710700045,,,,,,,,,,,,,,,,,,,,,,,,,97.6600199580007,97.66008275000058,97.66009072000088,97.67088710700045,97.67088710700045,98.66721233099997,98.66721233099997,101.66688822800097,101.66688822800097,101.66688822800097,101.66688822800097,101.65078816200003,2,0,"['1', '2', '1', '2', '1']",101.65174265500173,101.65180032000171,None,101.65191253700141,101.65200880800148,None,101.65212802800124,101.65216524100106,None,,,,,2.829028002999621,None,"[0.1874136759997782, 0.33125562600071135, 0.5092615089997707, 0.632191378999778, 0.9210759029992914]","[None, None, None, None, None]",,,,,,,,,,,1,001,0,,2024-04-12_17h23.54.323,replicate_nsd,2023.2.3,60.06888387221713,2024-04-12 17h24.04.386596 -0400,
images/image_444_seed_1.png,0,21,0,0,0,"[9, 19, 29, 39, 49, 59, 68, 69, 70, 71]",,,,,0,21,21,21,101.66688822800097,,,,,,,,,,,,,,,,,,,,,,,,,101.65254310100136,101.65261997800008,101.65263016900099,101.66688822800097,101.66688822800097,102.66750547100128,102.66750547100128,105.67322090400012,105.67322090400012,105.67322090400012,105.67322090400012,105.65077872600159,2,0,"['2', '1', '2', '1', '2', '1', '2']",105.651730081001,105.65177716100152,None,105.65188923900132,105.65911798900015,None,105.65921301900016,105.65923887900135,None,,,,,2.848249667998971,None,"[0.08316789700074878, 0.2965892169995641, 0.3685483019999083, 0.6074438289997488, 0.6432751709999138, 0.9145413349997398, 0.9627766970006633]","[None, None, None, None, None, None, None]",,,,,,,,,,,1,001,0,,2024-04-12_17h23.54.323,replicate_nsd,2023.2.3,60.06888387221713,2024-04-12 17h24.04.386596 -0400,
images/image_564_seed_1.png,0,22,0,0,0,"[9, 19, 29, 39, 49, 59, 68, 69, 70, 71]",,,,,0,22,22,22,105.67322090400012,,,,,,,,,,,,,,,,,,,,,,,,,105.65949223999996,105.65955433900126,105.65956244700101,105.67322090400012,105.67322090400012,106.66745910700047,106.66745910700047,109.67196584700105,109.67196584700105,109.67196584700105,109.67196584700105,109.650737381,2,0,"['2', '1', '2', '2', '1', '1']",109.65165591700134,109.65170262600077,None,109.65181622599994,109.65802331600025,None,109.65812215200094,109.65814786600095,None,,,,,2.6796694790009497,None,"[0.10387059400090948, 0.3082634330003202, 0.45324297600018326, 0.6618401770010678, 0.7340198550009518, 3.694039669000631]","[None, None, None, None, None, None]",,,,,,,,,,,1,001,0,,2024-04-12_17h23.54.323,replicate_nsd,2023.2.3,60.06888387221713,2024-04-12 17h24.04.386596 -0400,
images/image_105_seed_1.png,0,23,0,0,0,"[9, 19, 29, 39, 49, 59, 68, 69, 70, 71]",,,,,0,23,23,23,109.67196584700105,,,,,,,,,,,,,,,,,,,,,,,,,109.6584089220014,109.65847430400026,109.6584826490016,109.67196584700105,109.67196584700105,110.66747689500153,110.66747689500153,113.67136346000007,113.67136346000007,113.67136346000007,113.67136346000007,113.65110858700064,2,0,"['2', '1', '2', '1', '2']",113.6520640000017,113.65211144300156,None,113.65222466900013,113.65965069100093,None,113.65974659700078,113.65977170900078,None,,,,,2.888755455000137,None,"[0.05379092099974514, 0.33215545900020516, 0.607607468000424, 0.7889645439991, 0.9328556719992775]","[None, None, None, None, None]",,,,,,,,,,,1,001,0,,2024-04-12_17h23.54.323,replicate_nsd,2023.2.3,60.06888387221713,2024-04-12 17h24.04.386596 -0400,
images/image_422_seed_1.png,0,24,0,0,0,"[9, 19, 29, 39, 49, 59, 68, 69, 70, 71]",,,,,0,24,24,24,113.67136346000007,,,,,,,,,,,,,,,,,,,,,,,,,113.66002500600007,113.66008734100069,113.66009539400147,113.67136346000007,113.67136346000007,114.66784339400147,114.66784339400147,117.67360922700027,117.67360922700027,117.67360922700027,117.67360922700027,117.65106894100063,1,1,"['2', '1', '1', '2', '1', '2']",117.65199430900066,117.65204062000157,None,117.65215338500093,117.65909623400148,None,117.65919188299995,117.65921744400111,None,,,,,2.949949957001081,None,"[0.10562360599942622, 0.2095147239997459, 0.5026570040008664, 0.5304543689999264, 0.7588529220010969, 0.9172253699998691]","[None, None, None, None, None, None]",,,,,,,,,,,1,001,0,,2024-04-12_17h23.54.323,replicate_nsd,2023.2.3,60.06888387221713,2024-04-12 17h24.04.386596 -0400,
images/image_3_seed_1.png,0,25,0,0,0,"[9, 19, 29, 39, 49, 59, 68, 69, 70, 71]",,,,,0,25,25,25,117.67360922700027,,,,,,,,,,,,,,,,,,,,,,,,,117.65947233900079,117.65953518900096,117.65954334100024,117.67360922700027,117.67360922700027,118.66771280300054,118.66771280300054,121.67039624800054,121.67039624800054,121.67039624800054,121.67039624800054,121.65037385000142,2,0,"['2', '1', '2', '1', '2']",121.65097115900062,121.65100182700007,None,121.65107504400112,121.65725344800012,None,121.6573457450013,121.65737011400051,None,,,,,2.9617962109987275,None,"[0.13226693800061184, 0.35608547999981965, 0.5440456710002763, 0.7343550400000822, 0.8463900670012663]","[None, None, None, None, None]",,,,,,,,,,,1,001,0,,2024-04-12_17h23.54.323,replicate_nsd,2023.2.3,60.06888387221713,2024-04-12 17h24.04.386596 -0400,
images/image_608_seed_1.png,0,26,0,0,0,"[9, 19, 29, 39, 49, 59, 68, 69, 70, 71]",,,,,0,26,26,26,121.67039624800054,,,,,,,,,,,,,,,,,,,,,,,,,121.65761833100078,121.65767903100095,121.65768695600127,121.67039624800054,121.67039624800054,122.66782828300165,122.66782828300165,125.67150953800046,125.67150953800046,125.67150953800046,125.67150953800046,125.65109118500004,1,1,"['1', '2', '1', '2', '1', '2', '2']",125.65202112200132,125.65206734800086,None,125.6521798870017,125.65927072400154,None,125.65937590800058,125.65940202900128,None,,,,,2.8685241259991017,None,"[0.14059487499980605, 0.2686459590004233, 0.44997990999945614, 0.5818839940002363, 0.7668622059991321, 0.8668255640004645, 3.697442888000296]","[None, None, None, None, None, None, None]",,,,,,,,,,,1,001,0,,2024-04-12_17h23.54.323,replicate_nsd,2023.2.3,60.06888387221713,2024-04-12 17h24.04.386596 -0400,
images/image_326_seed_1.png,0,27,0,0,0,"[9, 19, 29, 39, 49, 59, 68, 69, 70, 71]",,,,,0,27,27,27,125.67150953800046,,,,,,,,,,,,,,,,,,,,,,,,,125.6596650850006,125.65976874400076,125.65977762700095,125.67150953800046,125.67150953800046,126.66783463499996,126.66783463499996,129.67247233300077,129.67247233300077,129.67247233300077,129.67247233300077,129.65075670600163,2,0,"['2', '1', '2', '1', '2', '1', '2']",129.65165547900142,129.65170336600022,None,129.65181628700157,129.65906210100002,None,129.6591606660004,129.65918691300067,None,,,,,2.7848944170000323,None,"[0.002272804998938227, 0.18570410099891888, 0.2897864939986903, 0.5052276789992902, 0.5852575539993268, 0.7610453300003428, 0.8650170900000376]","[None, None, None, None, None, None, None]",,,,,,,,,,,1,001,0,,2024-04-12_17h23.54.323,replicate_nsd,2023.2.3,60.06888387221713,2024-04-12 17h24.04.386596 -0400,
images/image_514_seed_1.png,0,28,0,0,0,"[9, 19, 29, 39, 49, 59, 68, 69, 70, 71]",,,,,0,28,28,28,129.67247233300077,,,,,,,,,,,,,,,,,,,,,,,,,129.65945387500142,129.65951629900155,129.65952436500083,129.67247233300077,129.67247233300077,130.66746650900131,130.66746650900131,133.68478184500054,133.68478184500054,133.68478184500054,133.68478184500054,133.6507516370002,2,0,"['2', '1', '2', '1', '2', '1']",133.65165041300133,133.65169701000013,None,133.6518090180016,133.65895085800003,None,133.6590617790007,133.65908760800085,None,,,,,2.952313335001236,None,"[0.15867061899916735, 0.33495878299981996, 0.42705254499924195, 0.634688082998764, 0.7145911770003295, 0.8781623759987269]","[None, None, None, None, None, None]",,,,,,,,,,,1,001,0,,2024-04-12_17h23.54.323,replicate_nsd,2023.2.3,60.06888387221713,2024-04-12 17h24.04.386596 -0400,
images/blank.jpg,0,29,1,0,0,"[9, 19, 29, 39, 49, 59, 68, 69, 70, 71]",,,,,0,29,29,29,133.68478184500054,,,,,,,,,,,,,,,,,,,,,,,,,133.6593431930014,133.6594057530001,133.65941362000012,,,,,,,,,133.662038243001,None,0,None,133.66230001700023,137.66807124300067,"['1', '1', '1']",137.66852452500098,137.67594361400006,None,137.67604181800016,137.67606778200025,None,133.68478184500054,133.68478184500054,137.68797715200162,137.68797715200162,,,,,"[0.09875949100023718, 0.5397181940006703, 0.7989681310009473]","[None, None, None]",,,,,,,,,1,001,0,,2024-04-12_17h23.54.323,replicate_nsd,2023.2.3,60.06888387221713,2024-04-12 17h24.04.386596 -0400,
images/image_519_seed_1.png,0,30,0,0,0,"[9, 19, 29, 39, 49, 59, 68, 69, 70, 71]",,,,,0,30,30,30,137.68797715200162,,,,,,,,,,,,,,,,,,,,,,,,,137.67633188800028,137.67639663299997,137.67640518500048,137.68797715200162,137.68797715200162,138.68419680200168,138.68419680200168,141.68342105600095,141.68342105600095,141.68342105600095,141.68342105600095,141.6678091950016,1,1,None,141.66850613800125,141.66855653400125,None,141.66866931100049,141.6687655980004,None,141.66888029000074,141.66891698900145,None,,,,,2.2536126550003246,None,,,,,,,,,,,,,1,001,0,,2024-04-12_17h23.54.323,replicate_nsd,2023.2.3,60.06888387221713,2024-04-12 17h24.04.386596 -0400,
images/image_63_seed_1.png,0,31,0,0,0,"[9, 19, 29, 39, 49, 59, 68, 69, 70, 71]",,,,,0,31,31,31,141.68342105600095,,,,,,,,,,,,,,,,,,,,,,,,,141.669294628,141.66938995800047,141.66940243000136,141.68342105600095,141.68342105600095,142.68433639600153,142.68433639600153,145.68898851300037,145.68898851300037,145.68898851300037,145.68898851300037,145.66767961000005,2,0,"['2', '1', '2']",145.6682851430014,145.66831781100154,None,145.66839487200014,145.67466633600088,None,145.67476284300028,145.67478803000085,None,,,,,2.8207385650002834,None,"[0.6526824000011402, 0.828664550999747, 0.9526714519997768]","[None, None, None]",,,,,,,,,,,1,001,0,,2024-04-12_17h23.54.323,replicate_nsd,2023.2.3,60.06888387221713,2024-04-12 17h24.04.386596 -0400,
images/image_310_seed_1.png,0,32,0,0,0,"[9, 19, 29, 39, 49, 59, 68, 69, 70, 71]",,,,,0,32,32,32,145.68898851300037,,,,,,,,,,,,,,,,,,,,,,,,,145.67504283400012,145.67510543200115,145.6751136540006,145.68898851300037,145.68898851300037,146.68391570099993,146.68391570099993,149.6884531100004,149.6884531100004,149.6884531100004,149.6884531100004,149.66794511700027,2,0,"['2', '1', '2', '1', '2', '1', '2']",149.66885172500042,149.66889799300043,None,149.66901006100125,149.67640298700098,None,149.67650144000072,149.67652874300074,None,,,,,2.769948522998675,None,"[0.09746293999887712, 0.30171287299890537, 0.3897134899998491, 0.5914383790004649, 0.6515390429995023, 0.905392167998798, 0.9693848930000968]","[None, None, None, None, None, None, None]",,,,,,,,,,,1,001,0,,2024-04-12_17h23.54.323,replicate_nsd,2023.2.3,60.06888387221713,2024-04-12 17h24.04.386596 -0400,
images/image_326_seed_1.png,1,33,0,0,0,"[9, 19, 29, 39, 49, 59, 68, 69, 70, 71]",,,,,0,33,33,33,149.6884531100004,,,,,,,,,,,,,,,,,,,,,,,,,149.6767910510007,149.67685692600026,149.6768655620017,149.6884531100004,149.6884531100004,150.68411580000065,150.68411580000065,153.68881636900005,153.68881636900005,153.68881636900005,153.68881636900005,153.66782490600053,2,1,"['2', '2', '1', '2', '1', '2']",153.6687636380011,153.66881051700148,None,153.66892921399995,153.67612048800038,None,153.6762203570015,153.67624735200116,None,,,,,1.9602221669993014,None,"[0.029270125000039116, 0.3491557979996287, 0.4808444980008062, 0.6128091770005994, 0.854216441999597, 0.9262349689997791]","[None, None, None, None, None, None]",,,,,,,,,,,1,001,0,,2024-04-12_17h23.54.323,replicate_nsd,2023.2.3,60.06888387221713,2024-04-12 17h24.04.386596 -0400,
images/image_96_seed_1.png,0,34,0,0,0,"[9, 19, 29, 39, 49, 59, 68, 69, 70, 71]",,,,,0,34,34,34,153.68881636900005,,,,,,,,,,,,,,,,,,,,,,,,,153.67651149199992,153.67657647800115,153.6765848720006,153.68881636900005,153.68881636900005,154.68417503300043,154.68417503300043,157.68826224800068,157.68826224800068,157.68826224800068,157.68826224800068,157.66810019700097,1,1,None,157.66880344700076,157.66885016200104,None,157.668963944001,157.67639540800155,None,157.67649242000152,157.6765187100009,None,,,,,0.9144523440008925,None,,,,,,,,,,,,,1,001,0,,2024-04-12_17h23.54.323,replicate_nsd,2023.2.3,60.06888387221713,2024-04-12 17h24.04.386596 -0400,
images/image_471_seed_1.png,0,35,0,0,0,"[9, 19, 29, 39, 49, 59, 68, 69, 70, 71]",,,,,0,35,35,35,157.68826224800068,,,,,,,,,,,,,,,,,,,,,,,,,157.67678194600012,157.67684692000148,157.67685548200097,157.68826224800068,157.68826224800068,158.68393888600076,158.68393888600076,161.68831091100037,161.68831091100037,161.68831091100037,161.68831091100037,161.66790121800113,None,0,None,161.66841976600153,161.66846590500063,None,161.66858243800016,161.6754229220005,None,161.6755215530011,161.67554719700092,None,,,,,,,,,,,,,,,,,,,1,001,0,,2024-04-12_17h23.54.323,replicate_nsd,2023.2.3,60.06888387221713,2024-04-12 17h24.04.386596 -0400,
images/image_264_seed_1.png,0,36,0,0,0,"[9, 19, 29, 39, 49, 59, 68, 69, 70, 71]",,,,,0,36,36,36,161.68831091100037,,,,,,,,,,,,,,,,,,,,,,,,,161.67580911000005,161.67587516599997,161.67588391900063,161.68831091100037,161.68831091100037,162.68382041800032,162.68382041800032,165.6900304030005,165.6900304030005,165.6900304030005,165.6900304030005,165.667855392001,2,0,None,165.66852845500034,165.66857460700157,None,165.66868565200093,165.67624891200103,None,165.67634327100131,165.67636812300043,None,,,,,2.9278211790006026,None,,,,,,,,,,,,,1,001,0,,2024-04-12_17h23.54.323,replicate_nsd,2023.2.3,60.06888387221713,2024-04-12 17h24.04.386596 -0400,
images/image_413_seed_1.png,0,37,0,0,0,"[9, 19, 29, 39, 49, 59, 68, 69, 70, 71]",,,,,0,37,37,37,165.6900304030005,,,,,,,,,,,,,,,,,,,,,,,,,165.67662296900016,165.6766854640009,165.67669339000167,165.6900304030005,165.6900304030005,166.6837108360014,166.6837108360014,169.68653958800132,169.68653958800132,169.68653958800132,169.68653958800132,169.66772461200162,2,0,"['1', '2', '1', '2', '1', '2']",169.6686472830006,169.6686937980012,None,169.66880587800006,169.67598270000053,None,169.6760805290014,169.67610725000122,None,,,,,2.9304438959989056,None,"[0.06617659399853437, 0.17409509399840317, 0.2975579759986431, 0.433544178999, 0.5807867889998306, 0.7897022979996109]","[None, None, None, None, None, None]",,,,,,,,,,,1,001,0,,2024-04-12_17h23.54.323,replicate_nsd,2023.2.3,60.06888387221713,2024-04-12 17h24.04.386596 -0400,
images/image_608_seed_1.png,1,38,0,0,0,"[9, 19, 29, 39, 49, 59, 68, 69, 70, 71]",,,,,0,38,38,38,169.68653958800132,,,,,,,,,,,,,,,,,,,,,,,,,169.67636903200037,169.6764336920005,169.67644222400122,169.68653958800132,169.68653958800132,170.6844171870016,170.6844171870016,173.68473519500003,173.68473519500003,173.68473519500003,173.68473519500003,173.6678501030001,1,0,"['1', '2', '1', '2', '1']",173.66875024100045,173.66879607400006,None,173.66890750099992,173.6755782650016,None,173.67567691100157,173.67570344500018,None,,,,,2.2219617599985213,None,"[0.12794730300083756, 0.19199262400070438, 0.24396692200025427, 0.6362144080012513, 0.6523086390006938]","[None, None, None, None, None]",,,,,,,,,,,1,001,0,,2024-04-12_17h23.54.323,replicate_nsd,2023.2.3,60.06888387221713,2024-04-12 17h24.04.386596 -0400,
images/blank.jpg,0,39,1,0,0,"[9, 19, 29, 39, 49, 59, 68, 69, 70, 71]",,,,,0,39,39,39,173.68473519500003,,,,,,,,,,,,,,,,,,,,,,,,,173.6759652610017,173.6760303660012,173.67603879600028,,,,,,,,,173.67856107400075,None,0,None,173.67895519600097,177.66781477299992,"['2', '1', '2', '1', '2', '1', '2', '2', '1', '2', '1', '2', '1', '2', '1', '2', '1', '2', '1']",177.6683268400011,177.67602453200016,None,177.67612546300006,177.67615160200148,None,173.68473519500003,173.68473519500003,177.68891150900163,177.68891150900163,,,,,"[0.31824391900045157, 0.3542844459989283, 0.6632308669995837, 0.7073681269994267, 1.0019683949994942, 1.3378453690002061, 1.3415655749995494, 1.5900035790000402, 1.7917128930002946, 1.9116306289997738, 2.086675622000257, 2.16650134199881, 2.383699041, 2.440566241999477, 2.7169369799994456, 3.0240967230001843, 3.299471996999273, 3.4115621939999983, 3.742692095000166]","[None, None, None, None, None, None, None, None, None, None, None, None, None, None, None, None, None, None, None]",,,,,,,,,1,001,0,,2024-04-12_17h23.54.323,replicate_nsd,2023.2.3,60.06888387221713,2024-04-12 17h24.04.386596 -0400,
images/image_363_seed_1.png,0,40,0,0,0,"[9, 19, 29, 39, 49, 59, 68, 69, 70, 71]",,,,,0,40,40,40,177.68891150900163,,,,,,,,,,,,,,,,,,,,,,,,,177.67641643200113,177.67648305500006,177.67649162599992,177.68891150900163,177.68891150900163,178.68453050900098,178.68453050900098,181.68306960200061,181.68306960200061,181.68306960200061,181.68306960200061,181.66788707700107,2,0,"['2', '1']",181.66880302900063,181.66885937200095,None,181.6689748230001,181.66907351900045,None,181.66919347400108,181.66923091600074,None,,,,,2.7771711240002332,None,"[0.09085350499844935, 0.258811051999146]","[None, None]",,,,,,,,,,,1,001,0,,2024-04-12_17h23.54.323,replicate_nsd,2023.2.3,60.06888387221713,2024-04-12 17h24.04.386596 -0400,
images/image_267_seed_1.png,0,41,0,0,0,"[9, 19, 29, 39, 49, 59, 68, 69, 70, 71]",,,,,0,41,41,41,181.68306960200061,,,,,,,,,,,,,,,,,,,,,,,,,181.66960760500115,181.66970911200042,181.66973696100104,181.68306960200061,181.68306960200061,182.6843374050004,182.6843374050004,185.68878791300085,185.68878791300085,185.68878791300085,185.68878791300085,185.667722315,1,1,"['2', '1', '2', '2']",185.66867548400114,185.66872235200026,None,185.66883316500025,185.67589441900054,None,185.6759934040001,185.6760199600012,None,,,,,2.927652222000688,None,"[0.3333284950003872, 0.5803922940012853, 0.5803922940012853, 0.8991581790014607]","[None, None, None, None]",,,,,,,,,,,1,001,0,,2024-04-12_17h23.54.323,replicate_nsd,2023.2.3,60.06888387221713,2024-04-12 17h24.04.386596 -0400,
images/image_278_seed_1.png,0,42,0,0,0,"[9, 19, 29, 39, 49, 59, 68, 69, 70, 71]",,,,,0,42,42,42,185.68878791300085,,,,,,,,,,,,,,,,,,,,,,,,,185.67628040100135,185.67639235500064,185.6764255500002,185.68878791300085,185.68878791300085,186.68380431100013,186.68380431100013,189.6890691890003,189.6890691890003,189.6890691890003,189.6890691890003,189.66788509700018,1,1,"['1', '1', '2', '1']",189.66883844100084,189.66888646400002,None,189.66899864400148,189.67611969800055,None,189.67621578500075,189.6762410120009,None,,,,,2.6954755679998925,None,"[0.20714326899906155, 0.60709180899903, 0.8168425779986137, 0.9289548339984322]","[None, None, None, None]",,,,,,,,,,,1,001,0,,2024-04-12_17h23.54.323,replicate_nsd,2023.2.3,60.06888387221713,2024-04-12 17h24.04.386596 -0400,
images/image_633_seed_1.png,0,43,0,0,0,"[9, 19, 29, 39, 49, 59, 68, 69, 70, 71]",,,,,0,43,43,43,189.6890691890003,,,,,,,,,,,,,,,,,,,,,,,,,189.6764967980016,189.6765588160015,189.6765669230008,189.6890691890003,189.6890691890003,190.68428056300036,190.68428056300036,193.6876999340002,193.6876999340002,193.6876999340002,193.6876999340002,193.66790428900094,2,0,"['1', '2', '2']",193.66885386500144,193.66890053099996,None,193.6690129540002,193.6761694550005,None,193.67626762300097,193.6762937850017,None,,,,,2.909799294999175,None,"[0.20206036899980973, 0.7856186019998859, 3.278633412999625]","[None, None, None]",,,,,,,,,,,1,001,0,,2024-04-12_17h23.54.323,replicate_nsd,2023.2.3,60.06888387221713,2024-04-12 17h24.04.386596 -0400,
images/image_609_seed_1.png,0,44,0,0,0,"[9, 19, 29, 39, 49, 59, 68, 69, 70, 71]",,,,,0,44,44,44,193.6876999340002,,,,,,,,,,,,,,,,,,,,,,,,,193.67655628400098,193.67662135800128,193.67662949500118,193.6876999340002,193.6876999340002,194.68406632700135,194.68406632700135,197.68763764100004,197.68763764100004,197.68763764100004,197.68763764100004,197.66788702100166,1,1,"['1', '2', '1', '2', '1', '2', '1']",197.66883121000137,197.66888051700153,None,197.6689944640002,197.67556890800006,None,197.67566878900107,197.67569492800067,None,,,,,2.8425092229990696,None,"[0.0985076350007148, 0.24577196199970786, 0.43353964800007816, 0.4734555930008355, 0.6513745060001384, 0.8320828129999427, 0.9090093850008998]","[None, None, None, None, None, None, None]",,,,,,,,,,,1,001,0,,2024-04-12_17h23.54.323,replicate_nsd,2023.2.3,60.06888387221713,2024-04-12 17h24.04.386596 -0400,
images/image_403_seed_1.png,0,45,0,0,0,"[9, 19, 29, 39, 49, 59, 68, 69, 70, 71]",,,,,0,45,45,45,197.68763764100004,,,,,,,,,,,,,,,,,,,,,,,,,197.67595795300076,197.6760256130001,197.67603399900145,197.68763764100004,197.68763764100004,198.68412761400032,198.68412761400032,201.68811632800134,201.68811632800134,201.68811632800134,201.68811632800134,201.66764325300028,1,1,"['1', '2', '2', '1', '1', '2']",201.66860533200088,201.66865171000063,None,201.66876701100045,201.67598981500123,None,201.67608887700044,201.6761148530004,None,,,,,2.881311117000223,None,"[0.08903510199888842, 0.18901426699994772, 0.41882519899991166, 0.4864469049989566, 0.6439098849987204, 0.7959951369994087]","[None, None, None, None, None, None]",,,,,,,,,,,1,001,0,,2024-04-12_17h23.54.323,replicate_nsd,2023.2.3,60.06888387221713,2024-04-12 17h24.04.386596 -0400,
images/image_566_seed_1.png,0,46,0,0,0,"[9, 19, 29, 39, 49, 59, 68, 69, 70, 71]",,,,,0,46,46,46,201.68811632800134,,,,,,,,,,,,,,,,,,,,,,,,,201.67637856800138,201.67644417000156,201.67645268200067,201.68811632800134,201.68811632800134,202.68389532200126,202.68389532200126,205.68835058400145,205.68835058400145,205.68835058400145,205.68835058400145,205.6679363580006,1,1,"['2', '1', '2', '2', '1', '2']",205.66889520299992,205.66894169400075,None,205.6690545600013,205.67623268800162,None,205.6763352900016,205.67636243000015,None,,,,,2.872961839999334,None,"[0.04527432699978817, 0.33327619999909075, 0.4012329609995504, 0.6920402739997371, 0.7683146999988821, 0.9560226129997318]","[None, None, None, None, None, None]",,,,,,,,,,,1,001,0,,2024-04-12_17h23.54.323,replicate_nsd,2023.2.3,60.06888387221713,2024-04-12 17h24.04.386596 -0400,
images/image_679_seed_1.png,0,47,0,0,0,"[9, 19, 29, 39, 49, 59, 68, 69, 70, 71]",,,,,0,47,47,47,205.68835058400145,,,,,,,,,,,,,,,,,,,,,,,,,205.6766330010014,205.67669999700047,205.67670875600015,205.68835058400145,205.68835058400145,206.68428357800076,206.68428357800076,209.68865906700012,209.68865906700012,209.68865906700012,209.68865906700012,209.66792545200042,2,0,"['2', '1', '1', '2', '2', '1']",209.66884321600082,209.66888992900022,None,209.6690019530015,209.67633284300064,None,209.67643153000063,209.67645755600097,None,,,,,2.801704798999708,None,"[0.22476302699942607, 0.28074937900055374, 0.4649951859992143, 0.5621844230008719, 0.8483325199995306, 0.8525136150001345]","[None, None, None, None, None, None]",,,,,,,,,,,1,001,0,,2024-04-12_17h23.54.323,replicate_nsd,2023.2.3,60.06888387221713,2024-04-12 17h24.04.386596 -0400,
images/image_29_seed_1.png,0,48,0,0,0,"[9, 19, 29, 39, 49, 59, 68, 69, 70, 71]",,,,,0,48,48,48,209.68865906700012,,,,,,,,,,,,,,,,,,,,,,,,,209.67672236100043,209.67678723500103,209.67679581200173,209.68865906700012,209.68865906700012,210.68391052100014,210.68391052100014,213.68458986100086,213.68458986100086,213.68458986100086,213.68458986100086,213.66775758600124,2,0,"['1', '2', '1', '2']",213.66871203900155,213.668758283,None,213.6688731810009,213.67595386100038,None,213.67605261600147,213.67607912400126,None,,,,,2.772625978999713,None,"[0.18699410800036276, 0.2266665639999701, 0.6146829860008438, 0.7706658620008966]","[None, None, None, None]",,,,,,,,,,,1,001,0,,2024-04-12_17h23.54.323,replicate_nsd,2023.2.3,60.06888387221713,2024-04-12 17h24.04.386596 -0400,
images/blank.jpg,0,49,1,0,0,"[9, 19, 29, 39, 49, 59, 68, 69, 70, 71]",,,,,0,49,49,49,213.68458986100086,,,,,,,,,,,,,,,,,,,,,,,,,213.67634099000134,213.67640662100166,213.67641516799995,,,,,,,,,213.67885716199999,None,0,None,213.67914200900123,217.66796896900087,"['1', '2', '1', '2', '1', '2', '1', '2', '1', '2', '1', '2', '1', '2', '1', '2', '1', '1', '2']",217.6684808860009,217.67582998500075,None,217.6759278770005,217.67595400600112,None,213.68458986100086,213.68458986100086,217.68862544900003,217.68862544900003,,,,,"[0.009078688999579754, 0.12531773999944562, 0.5238714329989307, 0.6386477719988761, 0.8774874029986677, 0.9934880199998588, 1.2452747989991622, 1.5124418809991766, 1.5525670560000435, 1.9177423829987674, 2.1354489599998487, 2.243482521998885, 2.4285936409996793, 2.5945263729990984, 2.830549397998766, 3.203985180000018, 3.3439711009996245, 3.626803679999284, 3.746670340999117]","[None, None, None, None, None, None, None, None, None, None, None, None, None, None, None, None, None, None, None]",,,,,,,,,1,001,0,,2024-04-12_17h23.54.323,replicate_nsd,2023.2.3,60.06888387221713,2024-04-12 17h24.04.386596 -0400,
images/image_7_seed_1.png,0,50,0,0,0,"[9, 19, 29, 39, 49, 59, 68, 69, 70, 71]",,,,,0,50,50,50,217.68862544900003,,,,,,,,,,,,,,,,,,,,,,,,,217.67621844400128,217.67634874300165,217.6763570610001,217.68862544900003,217.68862544900003,218.6839417480005,218.6839417480005,221.68334433900054,221.68334433900054,221.68334433900054,221.68334433900054,221.66754450400003,2,0,"['2', '1', '2', '2', '1']",221.66849183900013,221.66854607999994,None,221.66865871700065,221.66875553400132,None,221.66887285800112,221.66890997600058,None,,,,,2.7575161270015087,None,"[0.007529971999247209, 0.18330596699888702, 0.31909996299873455, 0.7665965919986775, 0.7826400789999752]","[None, None, None, None, None]",,,,,,,,,,,1,001,0,,2024-04-12_17h23.54.323,replicate_nsd,2023.2.3,60.06888387221713,2024-04-12 17h24.04.386596 -0400,
images/image_357_seed_1.png,0,51,0,0,0,"[9, 19, 29, 39, 49, 59, 68, 69, 70, 71]",,,,,0,51,51,51,221.68334433900054,,,,,,,,,,,,,,,,,,,,,,,,,221.66928158200062,221.66937704800148,221.66938970400042,221.68334433900054,221.68334433900054,222.68438635100028,222.68438635100028,225.68908420900152,225.68908420900152,225.68908420900152,225.68908420900152,225.66788589800126,1,1,None,225.66868411500036,225.66873220800153,None,225.6688553590011,225.67503599800148,None,225.67513332100134,225.67515897500016,None,,,,,2.774374999000429,None,,,,,,,,,,,,,1,001,0,,2024-04-12_17h23.54.323,replicate_nsd,2023.2.3,60.06888387221713,2024-04-12 17h24.04.386596 -0400,
images/image_202_seed_1.png,0,52,0,0,0,"[9, 19, 29, 39, 49, 59, 68, 69, 70, 71]",,,,,0,52,52,52,225.68908420900152,,,,,,,,,,,,,,,,,,,,,,,,,225.67542199300078,225.67552965800132,225.6755386190016,225.68908420900152,225.68908420900152,226.68405529600022,226.68405529600022,229.68839922200095,229.68839922200095,229.68839922200095,229.68839922200095,229.66800745300134,1,1,"['1', '2', '2', '1', '2', '1']",229.6689676700007,229.66901433800012,None,229.66912496100122,229.67680647600173,None,229.67690345600022,229.67692969600103,None,,,,,2.9561758269992424,None,"[0.2511331240002619, 0.31515658399985114, 0.544712625000102, 0.5529722930004937, 0.8598769279997214, 0.9274399540008744]","[None, None, None, None, None, None]",,,,,,,,,,,1,001,0,,2024-04-12_17h23.54.323,replicate_nsd,2023.2.3,60.06888387221713,2024-04-12 17h24.04.386596 -0400,
images/image_653_seed_1.png,0,53,0,0,0,"[9, 19, 29, 39, 49, 59, 68, 69, 70, 71]",,,,,0,53,53,53,229.68839922200095,,,,,,,,,,,,,,,,,,,,,,,,,229.67719026600025,229.67725611700007,229.6772644320008,229.68839922200095,229.68839922200095,230.68452546500157,230.68452546500157,233.6883070310014,233.6883070310014,233.6883070310014,233.6883070310014,233.66794407700036,1,1,"['2', '1', '2', '1', '2', '1', '2']",233.66886710200015,233.66891456700068,None,233.66902646600101,233.6762926420015,None,233.6763925970008,233.67641856900082,None,,,,,2.9175477369990404,None,"[0.01582276999943133, 0.3012153029994806, 0.33320587599882856, 0.6351232879987947, 0.6469169470001361, 0.9079315759991005, 0.9399140719997376]","[None, None, None, None, None, None, None]",,,,,,,,,,,1,001,0,,2024-04-12_17h23.54.323,replicate_nsd,2023.2.3,60.06888387221713,2024-04-12 17h24.04.386596 -0400,
images/image_56_seed_1.png,0,54,0,0,0,"[9, 19, 29, 39, 49, 59, 68, 69, 70, 71]",,,,,0,54,54,54,233.6883070310014,,,,,,,,,,,,,,,,,,,,,,,,,233.67668183700152,233.67674832500052,233.67675683500056,233.6883070310014,233.6883070310014,234.68379024300157,234.68379024300157,237.68953111000155,237.68953111000155,237.68953111000155,237.68953111000155,237.66775114100165,1,1,"['2', '1', '2']",237.6686904620001,237.6687382020009,None,237.66884823800137,237.67544694700155,None,237.67554492599993,237.67557079000107,None,,,,,2.5841787300014403,None,"[0.27660740800092753, 0.6453181330016378, 0.7618020890004118]","[None, None, None]",,,,,,,,,,,1,001,0,,2024-04-12_17h23.54.323,replicate_nsd,2023.2.3,60.06888387221713,2024-04-12 17h24.04.386596 -0400,
images/image_95_seed_1.png,0,55,0,0,0,"[9, 19, 29, 39, 49, 59, 68, 69, 70, 71]",,,,,0,55,55,55,237.68953111000155,,,,,,,,,,,,,,,,,,,,,,,,,237.6758296650005,237.6759291010003,237.67593800400027,237.68953111000155,237.68953111000155,238.68445509200137,238.68445509200137,241.68766497400065,241.68766497400065,241.68766497400065,241.68766497400065,241.66797256000063,2,0,"['1', '1', '1', '2', '1']",241.6688935400016,241.66894120300094,None,241.6690553920016,241.675631772001,None,241.67573108000033,241.67575753300116,None,,,,,2.778099689001465,None,"[0.0036716649992740713, 0.3562670020000951, 0.6214245989995106, 0.7016106930004753, 0.9256901270000526]","[None, None, None, None, None]",,,,,,,,,,,1,001,0,,2024-04-12_17h23.54.323,replicate_nsd,2023.2.3,60.06888387221713,2024-04-12 17h24.04.386596 -0400,
images/image_614_seed_1.png,0,56,0,0,0,"[9, 19, 29, 39, 49, 59, 68, 69, 70, 71]",,,,,0,56,56,56,241.68766497400065,,,,,,,,,,,,,,,,,,,,,,,,,241.67602135000016,241.67608652500166,241.6760950200005,241.68766497400065,241.68766497400065,242.68418119800117,242.68418119800117,245.6869397010014,245.6869397010014,245.6869397010014,245.6869397010014,245.66764875300032,2,0,"['2', '2', '1', '2']",245.66855737200058,245.66860389300018,None,245.6687159000012,245.67572242200004,None,245.67582075600149,245.67584736000026,None,,,,,2.9055983500002185,None,"[0.024631356000099913, 0.24331594900104392, 0.37251397900035954, 0.5793289570010529]","[None, None, None, None]",,,,,,,,,,,1,001,0,,2024-04-12_17h23.54.323,replicate_nsd,2023.2.3,60.06888387221713,2024-04-12 17h24.04.386596 -0400,
images/image_42_seed_1.png,0,57,0,0,0,"[9, 19, 29, 39, 49, 59, 68, 69, 70, 71]",,,,,0,57,57,57,245.6869397010014,,,,,,,,,,,,,,,,,,,,,,,,,245.67611171200042,245.6761768920005,245.67618513100024,245.6869397010014,245.6869397010014,246.68442273200162,246.68442273200162,249.68756497800132,249.68756497800132,249.68756497800132,249.68756497800132,249.66798111200114,2,0,"['1', '2', '2', '1', '2', '1']",249.66890935000083,249.6689566490004,None,249.6690693820001,249.67646485100158,None,249.676565492,249.67659202700088,None,,,,,2.678648400999009,None,"[0.13973135100059153, 0.2515883380001469, 0.501612299000044, 0.5335967800001526, 0.756353234000926, 0.8317935690010927]","[None, None, None, None, None, None]",,,,,,,,,,,1,001,0,,2024-04-12_17h23.54.323,replicate_nsd,2023.2.3,60.06888387221713,2024-04-12 17h24.04.386596 -0400,
images/image_299_seed_1.png,0,58,0,0,0,"[9, 19, 29, 39, 49, 59, 68, 69, 70, 71]",,,,,0,58,58,58,249.68756497800132,,,,,,,,,,,,,,,,,,,,,,,,,249.67685467400042,249.67691803800153,249.67692614500083,249.68756497800132,249.68756497800132,250.68417081700136,250.68417081700136,253.68493381600092,253.68493381600092,253.68493381600092,253.68493381600092,253.66777539800023,2,0,"['1', '2', '1', '2', '1', '2']",253.66867025200008,253.66871421500036,None,253.6688240930016,253.67610053000135,None,253.67619652800022,253.67622203300016,None,,,,,2.8716316310001275,None,"[0.027219278001211933, 0.1674813190002169, 0.43056014600006165, 0.4907435450004414, 0.7806798320016242, 0.8368191070003377]","[None, None, None, None, None, None]",,,,,,,,,,,1,001,0,,2024-04-12_17h23.54.323,replicate_nsd,2023.2.3,60.06888387221713,2024-04-12 17h24.04.386596 -0400,
images/blank.jpg,0,59,1,0,0,"[9, 19, 29, 39, 49, 59, 68, 69, 70, 71]",,,,,0,59,59,59,253.68493381600092,,,,,,,,,,,,,,,,,,,,,,,,,253.67647896400013,253.6765426260008,253.67655072700109,,,,,,,,,253.67964038800164,None,0,None,253.67991473800066,257.66798035100146,"['2', '1', '1', '2', '2', '1']",257.6684396110013,257.67571858500014,None,257.6758199490014,257.6758466620013,None,253.68493381600092,253.68493381600092,257.68798550300016,257.68798550300016,,,,,"[0.16666221100058465, 0.40435993100072665, 0.696313567001198, 0.7810616260012466, 1.08664833200055, 1.1266729290000512]","[None, None, None, None, None, None]",,,,,,,,,1,001,0,,2024-04-12_17h23.54.323,replicate_nsd,2023.2.3,60.06888387221713,2024-04-12 17h24.04.386596 -0400,
images/image_91_seed_1.png,0,60,0,0,0,"[9, 19, 29, 39, 49, 59, 68, 69, 70, 71]",,,,,0,60,60,60,257.68798550300016,,,,,,,,,,,,,,,,,,,,,,,,,257.676128309,257.6761940810011,257.67620257400085,257.68798550300016,257.68798550300016,258.6843594540005,258.6843594540005,261.6832921000005,261.6832921000005,261.6832921000005,261.6832921000005,261.6679603550001,2,0,None,261.6686587540007,261.6687095690013,None,261.6688231320004,261.6689197580017,None,261.6690344100007,261.6690701350017,None,,,,,2.1233889650011406,None,,,,,,,,,,,,,1,001,0,,2024-04-12_17h23.54.323,replicate_nsd,2023.2.3,60.06888387221713,2024-04-12 17h24.04.386596 -0400,
images/image_623_seed_1.png,0,61,0,0,0,"[9, 19, 29, 39, 49, 59, 68, 69, 70, 71]",,,,,0,61,61,61,261.6832921000005,,,,,,,,,,,,,,,,,,,,,,,,,261.6694459190003,261.6695430280015,261.6695556170016,261.6832921000005,261.6832921000005,262.6841450060001,262.6841450060001,265.68800419500076,265.68800419500076,265.68800419500076,265.68800419500076,265.6676751410014,None,0,None,265.66822564500035,265.6682720480003,None,265.6683876820007,265.6755310590015,None,265.67562723300034,265.6756531300016,None,,,,,,,,,,,,,,,,,,,1,001,0,,2024-04-12_17h23.54.323,replicate_nsd,2023.2.3,60.06888387221713,2024-04-12 17h24.04.386596 -0400,
images/image_268_seed_1.png,0,62,0,0,0,"[9, 19, 29, 39, 49, 59, 68, 69, 70, 71]",,,,,0,62,62,62,265.68800419500076,,,,,,,,,,,,,,,,,,,,,,,,,265.67591488400103,265.6759803270015,265.67598883200117,265.68800419500076,265.68800419500076,266.6838046590001,266.6838046590001,269.688202501,269.688202501,269.688202501,269.688202501,269.6680974480005,2,0,['2'],269.669005795,269.66905444700024,None,269.669167045,269.6765242240017,None,269.67662245500105,269.67664889200023,None,,,,,2.9124825639992196,None,[0.7154429180009174],[None],,,,,,,,,,,1,001,0,,2024-04-12_17h23.54.323,replicate_nsd,2023.2.3,60.06888387221713,2024-04-12 17h24.04.386596 -0400,
images/image_150_seed_1.png,0,63,0,0,0,"[9, 19, 29, 39, 49, 59, 68, 69, 70, 71]",,,,,0,63,63,63,269.688202501,,,,,,,,,,,,,,,,,,,,,,,,,269.6769112110014,269.6769761600008,269.67698443000154,269.688202501,269.688202501,270.6841629360006,270.6841629360006,273.688401677,273.688401677,273.688401677,273.688401677,273.66760720500133,1,1,"['1', '2', '1', '2', '1', '2']",273.66853302600066,273.6685803400014,None,273.6686942210017,273.67575088300146,None,273.6758493870002,273.67587591200027,None,,,,,2.9453233089989226,None,"[0.11040224799944554, 0.2096705860003567, 0.41763738699955866, 0.4743286100001569, 0.6978911030000745, 0.7902396949993999]","[None, None, None, None, None, None]",,,,,,,,,,,1,001,0,,2024-04-12_17h23.54.323,replicate_nsd,2023.2.3,60.06888387221713,2024-04-12 17h24.04.386596 -0400,
images/image_115_seed_1.png,0,64,0,0,0,"[9, 19, 29, 39, 49, 59, 68, 69, 70, 71]",,,,,0,64,64,64,273.688401677,,,,,,,,,,,,,,,,,,,,,,,,,273.6761374960006,273.67620262900164,273.6762109120009,273.688401677,273.688401677,274.68332186800035,274.68332186800035,277.6890678060008,277.6890678060008,277.6890678060008,277.6890678060008,277.6676874010009,1,1,"['2', '1', '2', '1', '2', '2', '1']",277.66861186200003,277.6686580650003,None,277.6687696320005,277.6753439920012,None,277.6754418950004,277.67546787100036,None,,,,,2.8950413780003146,None,"[0.0050817320006899536, 0.24606485399999656, 0.26242089200059127, 0.5196086520008976, 0.5835807950006711, 0.9064195490009297, 0.9422336980005639]","[None, None, None, None, None, None, None]",,,,,,,,,,,1,001,0,,2024-04-12_17h23.54.323,replicate_nsd,2023.2.3,60.06888387221713,2024-04-12 17h24.04.386596 -0400,
images/image_616_seed_1.png,0,65,0,0,0,"[9, 19, 29, 39, 49, 59, 68, 69, 70, 71]",,,,,0,65,65,65,277.6890678060008,,,,,,,,,,,,,,,,,,,,,,,,,277.6757279700014,277.67582910800047,277.675837969,277.6890678060008,277.6890678060008,278.68393661200025,278.68393661200025,281.6882386950001,281.6882386950001,281.6882386950001,281.6882386950001,281.6679709530017,1,1,"['1', '2', '1', '2']",281.6689029780009,281.6689509700009,None,281.6690721740015,281.6764321950013,None,281.67653096200047,281.6765573700013,None,,,,,2.9296047990010265,None,"[0.17800734899901727, 0.2860009199994238, 0.5136748959994293, 0.7300885709992144]","[None, None, None, None]",,,,,,,,,,,1,001,0,,2024-04-12_17h23.54.323,replicate_nsd,2023.2.3,60.06888387221713,2024-04-12 17h24.04.386596 -0400,
images/image_39_seed_1.png,0,66,0,0,0,"[9, 19, 29, 39, 49, 59, 68, 69, 70, 71]",,,,,0,66,66,66,281.6882386950001,,,,,,,,,,,,,,,,,,,,,,,,,281.6768195350014,281.6768851530014,281.67689354899994,281.6882386950001,281.6882386950001,282.6842641200001,282.6842641200001,285.68830457700096,285.68830457700096,285.68830457700096,285.68830457700096,285.6674363210004,2,0,"['2', '1', '2', '1', '2']",285.66834311800085,285.6683803220003,None,285.6684673890013,285.67518422300054,None,285.67527951100055,285.67530488100056,None,,,,,2.8795477700004994,None,"[0.004455204001715174, 0.215254624001318, 0.3111019390016736, 0.5450704270006099, 0.7258996190012112]","[None, None, None, None, None]",,,,,,,,,,,1,001,0,,2024-04-12_17h23.54.323,replicate_nsd,2023.2.3,60.06888387221713,2024-04-12 17h24.04.386596 -0400,
images/image_58_seed_1.png,0,67,0,0,0,"[9, 19, 29, 39, 49, 59, 68, 69, 70, 71]",,,,,0,67,67,67,285.68830457700096,,,,,,,,,,,,,,,,,,,,,,,,,285.6755588880005,285.6756217560014,285.6756298240016,285.68830457700096,285.68830457700096,286.6841370790007,286.6841370790007,289.68470763200094,289.68470763200094,289.68470763200094,289.68470763200094,289.6677036070014,2,0,"['1', '2', '1', '2', '1']",289.66861086300014,289.66865755100116,None,289.66876881400094,289.6757671920004,None,289.67586567000035,289.6758923340003,None,,,,,2.8789087230015866,None,"[0.0939152089995332, 0.2617822840002191, 0.5483352890005335, 0.5681942680002976, 0.878411927000343]","[None, None, None, None, None]",,,,,,,,,,,1,001,0,,2024-04-12_17h23.54.323,replicate_nsd,2023.2.3,60.06888387221713,2024-04-12 17h24.04.386596 -0400,
images/blank.jpg,0,68,1,0,0,"[9, 19, 29, 39, 49, 59, 68, 69, 70, 71]",,,,,0,68,68,68,289.68470763200094,,,,,,,,,,,,,,,,,,,,,,,,,289.676153714001,289.6762184400013,289.67622661099995,,,,,,,,,289.67877624800167,None,0,None,289.6790459800013,293.667855574,"['2', '1', '1', '2', '2', '1', '2', '1', '2', '1', '2', '1', '2', '1', '2', '1', '2', '1', '2']",293.668346628001,293.6758518130009,None,293.67594994400133,293.67597595000007,None,289.68470763200094,289.68470763200094,293.68407289100105,293.68407289100105,,,,,"[0.12890685800084611, 0.13686278800014406, 0.487498508000499, 1.0236366810004256, 1.2881926070003828, 1.592563935000726, 1.7634774030011613, 1.9842251669997495, 2.1324078050001845, 2.5629075430006196, 2.6497474480001983, 2.8813557930006937, 2.969518194000557, 3.2028783410005417, 3.2910845639999025, 3.5029269460010255, 3.566572587000337, 3.835692242000732, 3.8995368819996656]","[None, None, None, None, None, None, None, None, None, None, None, None, None, None, None, None, None, None, None]",,,,,,,,,1,001,0,,2024-04-12_17h23.54.323,replicate_nsd,2023.2.3,60.06888387221713,2024-04-12 17h24.04.386596 -0400,
images/blank.jpg,0,69,1,0,0,"[9, 19, 29, 39, 49, 59, 68, 69, 70, 71]",,,,,0,69,69,69,293.68407289100105,,,,,,,,,,,,,,,,,,,,,,,,,293.6762630810008,293.67637884600117,293.67638776400054,,,,,,,,,293.6781392590001,None,0,None,293.6783685670016,297.66796104700006,"['1', '2', '1', '2', '1', '2', '1', '1', '2', '2', '1', '2', '1', '2']",297.6684395350003,297.6685572280003,None,297.6686838610003,297.66872248100117,None,293.68407289100105,293.68407289100105,297.68405282300046,297.68405282300046,,,,,"[0.15359578499919735, 0.20604461499897297, 0.4789041679996444, 0.5669024759990862, 0.8230287850001332, 1.1740154969993455, 1.229778778999389, 1.5040116700001818, 1.8021001549986977, 2.203889595999499, 2.516672279998602, 2.8561114489984902, 3.220379601998502, 3.551986147998832]","[None, None, None, None, None, None, None, None, None, None, None, None, None, None]",,,,,,,,,1,001,0,,2024-04-12_17h23.54.323,replicate_nsd,2023.2.3,60.06888387221713,2024-04-12 17h24.04.386596 -0400,
images/blank.jpg,0,70,1,0,0,"[9, 19, 29, 39, 49, 59, 68, 69, 70, 71]",,,,,0,70,70,70,297.68405282300046,,,,,,,,,,,,,,,,,,,,,,,,,297.6691093360005,297.66920583499996,297.6692184809999,,,,,,,,,297.67207889600104,None,0,None,297.67257100400093,301.6678718380008,"['1', '2', '2', '1', '2', '1', '2', '1', '2', '1', '2', '1', '2', '1', '2', '2', '1', '2', '1', '2']",301.668679796001,301.66880628000035,None,301.6689354380014,301.66897363000135,None,297.68405282300046,297.68405282300046,301.6840265640003,301.6840265640003,,,,,"[0.3520799529997021, 0.3520799529997021, 0.6855384369991953, 0.8805873399996926, 1.0207739460001903, 1.2299111889988126, 1.349998682999285, 1.5961487219992705, 1.7209635710005386, 1.9554518450004252, 2.027172435000466, 2.2201373480002076, 2.3321288320003077, 2.558581179000612, 2.786682746000224, 3.105384411999694, 3.301765422000244, 3.4780519069990987, 3.7447738379996736, 3.8486798989997624]","[None, None, None, None, None, None, None, None, None, None, None, None, None, None, None, None, None, None, None, None]",,,,,,,,,1,001,0,,2024-04-12_17h23.54.323,replicate_nsd,2023.2.3,60.06888387221713,2024-04-12 17h24.04.386596 -0400,
images/blank.jpg,0,71,1,1,0,"[9, 19, 29, 39, 49, 59, 68, 69, 70, 71]",,,,,0,71,71,71,301.6840265640003,,,,,,,,,,,,,,,,,,,,,,,,,301.669354914,301.66945495800064,301.6694675980016,,,,,,,,,301.6722281530001,None,0,None,301.67271482100114,305.66791508999995,"['1', '2', '1', '2', '1', '2', '1', '2', '1', '2', '1', '1', '1', '2', '1', '2']",305.66839984500075,305.7512890170001,1,305.7525071320015,322.55102081600126,equal,301.6840265640003,301.6840265640003,305.68406083800073,305.68406083800073,,,,,"[0.07656897900051263, 0.4140449200003786, 0.5138525629990909, 0.8386999790000118, 1.3317335699994146, 1.7237558439992426, 1.9342062630003056, 2.09056491299998, 2.2694581220002874, 2.421518355000444, 2.643267060000653, 2.9600001460003114, 3.3494461289992614, 3.3762976540001546, 3.72489635599959, 3.8206766479997896]","[None, None, None, None, None, None, None, None, None, None, None, None, None, None, None, None]",305.68406083800073,305.68406083800073,0.05320818800100824,None,305.7677207510005,305.7677207510005,16.782384918999014,None,1,001,0,,2024-04-12_17h23.54.323,replicate_nsd,2023.2.3,60.06888387221713,2024-04-12 17h24.04.386596 -0400,
,,,,,,,,,,,,,,,322.56706279900027,,,,,,,,,,,,,,,,,,,,,,,,,322.55208312500145,322.55223286100045,322.5522440630011,322.56706279900027,322.56706279900027,323.56772880800054,323.56772880800054,,,,,,,,,,,,,,,,,,,,,,,,,,,,,,,,,,,,,,,,,,,,,
