current_image,trial_index,is_blank_trial,is_repeat,is_new_run,run_num,all_blanks_list,practice.thisRepN,practice.thisTrialN,practice.thisN,practice.thisIndex,loop_all_images.thisRepN,loop_all_images.thisTrialN,loop_all_images.thisN,loop_all_images.thisIndex,thisRow.t,notes,set_up.started,set_up.stopped,practice_continue.started,key_resp_6.started,text_6.started,practice_continue.stopped,key_resp_6.keys,key_resp_6.rt,key_resp_6.duration,set_skips_and_correct_key_2.started,set_skips_and_correct_key_2.stopped,practice_trial.started,polygon_3.started,all_keys_pressed_2.started,image_2.started,press_if_repeat_2.started,image_2.stopped,press_if_repeat_2.stopped,polygon_3.stopped,all_keys_pressed_2.stopped,practice_trial.stopped,press_if_repeat_2.keys,press_if_repeat_2.corr,all_keys_pressed_2.keys,blank_trial_2.started,blank_trial_2.stopped,polygon_4.started,polygon_4.stopped,press_if_repeat_2.rt,press_if_repeat_2.duration,all_keys_pressed_2.rt,all_keys_pressed_2.duration,testing_continue.started,key_resp_7.started,text_7.started,testing_continue.stopped,key_resp_7.keys,key_resp_7.rt,key_resp_7.duration,waiting_fmri.started,key_resp_2.started,text_3.started,waiting_fmri.stopped,key_resp_2.keys,key_resp_2.rt,key_resp_2.duration,set_skips_and_correct_key.started,set_skips_and_correct_key.stopped,trial.started,polygon.started,all_keys_pressed.started,image.started,press_if_repeat.started,image.stopped,press_if_repeat.stopped,polygon.stopped,all_keys_pressed.stopped,trial.stopped,press_if_repeat.keys,press_if_repeat.corr,all_keys_pressed.keys,blank_trial.started,blank_trial.stopped,blank_trial_testing_keys.keys,run_wait2_2.started,run_wait2_2.stopped,key_resp_5.keys,waiting_fmri_2.started,waiting_fmri_2.stopped,key_resp_4.keys,press_if_repeat.rt,press_if_repeat.duration,all_keys_pressed.rt,all_keys_pressed.duration,blank_trial_testing_keys.started,polygon_2.started,blank_trial_testing_keys.stopped,polygon_2.stopped,blank_trial_testing_keys.rt,blank_trial_testing_keys.duration,key_resp_5.started,text_5.started,key_resp_5.rt,key_resp_5.duration,key_resp_4.started,text_4.started,key_resp_4.rt,key_resp_4.duration,participant,session,starting_run,,date,expName,psychopyVersion,frameRate,expStart,
,,,,,,,,,,,,,,,,,0.022382874998584157,0.022638714999629883,0.02266118199986522,0.04298306399869034,0.04298306399869034,6.541580303997762,3,6.494917071999225,None,,,,,,,,,,,,,,,,,,,,,,,,,,,,,,,,,,,,,,,,,,,,,,,,,,,,,,,,,,,,,,,,,,,,,,,,,,,,,,,,21,001,0,,2024-04-13_10h06.23.029,replicate_nsd,2023.2.3,60.03926447827453,2024-04-13 10h06.36.508918 -0400,
practice_images/paired_image_30_1.png,0,0,,,,,0,0,0,0,,,,,6.578781083000649,,,,,,,,,,,6.547869259000436,6.547929435997503,6.547937834999175,6.578781083000649,6.578781083000649,7.57442491799884,7.57442491799884,10.573651094000525,10.573651094000525,10.573651094000525,10.573651094000525,10.557996849998744,None,0,None,10.558695840998553,10.558738895000715,,,,,,,,,,,,,,,,,,,,,,,,,,,,,,,,,,,,,,,,,,,,,,,,,,,,,,,,,,,,,,,21,001,0,,2024-04-13_10h06.23.029,replicate_nsd,2023.2.3,60.03926447827453,2024-04-13 10h06.36.508918 -0400,
practice_images/paired_image_20_2.png,1,0,,,,,0,1,1,1,,,,,10.573651094000525,,,,,,,,,,,10.559026923998317,10.559114261999639,10.559125933999894,10.573651094000525,10.573651094000525,11.574299223997514,11.574299223997514,14.574128470998403,14.574128470998403,14.574128470998403,14.574128470998403,14.558163149999018,None,0,None,14.558587637999153,14.55862722600068,,,,,,,,,,,,,,,,,,,,,,,,,,,,,,,,,,,,,,,,,,,,,,,,,,,,,,,,,,,,,,,21,001,0,,2024-04-13_10h06.23.029,replicate_nsd,2023.2.3,60.03926447827453,2024-04-13 10h06.36.508918 -0400,
practice_images/paired_image_15_2.png,2,0,,,,,0,2,2,2,,,,,14.574128470998403,,,,,,,,,,,14.558905391000735,14.558990907000407,14.55900237899914,14.574128470998403,14.574128470998403,15.574752517000888,15.574752517000888,18.573690268000064,18.573690268000064,18.573690268000064,18.573690268000064,18.558222702999046,None,0,None,18.55864494599882,18.558685086998594,,,,,,,,,,,,,,,,,,,,,,,,,,,,,,,,,,,,,,,,,,,,,,,,,,,,,,,,,,,,,,,21,001,0,,2024-04-13_10h06.23.029,replicate_nsd,2023.2.3,60.03926447827453,2024-04-13 10h06.36.508918 -0400,
practice_images/paired_image_12_1.png,3,0,,,,,0,3,3,3,,,,,18.573690268000064,,,,,,,,,,,18.558962503997464,18.559049628998764,18.55906115399921,18.573690268000064,18.573690268000064,19.57473438499801,19.57473438499801,22.573680130000866,22.573680130000866,22.573680130000866,22.573680130000866,22.55815904499832,None,0,None,22.55857683099748,22.558616376998543,,,,,,,,,,,,,,,,,,,,,,,,,,,,,,,,,,,,,,,,,,,,,,,,,,,,,,,,,,,,,,,21,001,0,,2024-04-13_10h06.23.029,replicate_nsd,2023.2.3,60.03926447827453,2024-04-13 10h06.36.508918 -0400,
practice_images/paired_image_2_1.png,4,0,,,,,0,4,4,4,,,,,22.573680130000866,,,,,,,,,,,22.558890558000712,22.558976812000765,22.558988805998524,22.573680130000866,22.573680130000866,23.574732843000675,23.574732843000675,26.574048735998076,26.574048735998076,26.574048735998076,26.574048735998076,26.558159125997918,None,0,None,26.55857663400093,26.55861576800089,,,,,,,,,,,,,,,,,,,,,,,,,,,,,,,,,,,,,,,,,,,,,,,,,,,,,,,,,,,,,,,21,001,0,,2024-04-13_10h06.23.029,replicate_nsd,2023.2.3,60.03926447827453,2024-04-13 10h06.36.508918 -0400,
practice_images/paired_image_22_2.png,5,0,,,,,0,5,5,5,,,,,26.574048735998076,,,,,,,,,,,26.55889318700065,26.558979837998777,26.558991539001,26.574048735998076,26.574048735998076,27.574595327998395,27.574595327998395,30.573634235999634,30.573634235999634,30.573634235999634,30.573634235999634,30.55821980899782,None,0,None,30.558638357997552,30.55867751400001,,,,,,,,,,,,,,,,,,,,,,,,,,,,,,,,,,,,,,,,,,,,,,,,,,,,,,,,,,,,,,,21,001,0,,2024-04-13_10h06.23.029,replicate_nsd,2023.2.3,60.03926447827453,2024-04-13 10h06.36.508918 -0400,
practice_images/paired_image_19_1.png,6,0,,,,,0,6,6,6,,,,,30.573634235999634,,,,,,,,,,,30.558955776999937,30.559042229000625,30.559053838998807,30.573634235999634,30.573634235999634,31.574386072999914,31.574386072999914,34.57430601200031,34.57430601200031,34.57430601200031,34.57430601200031,34.55823507999958,None,0,None,34.55865617499876,34.55869530500058,,,,,,,,,,,,,,,,,,,,,,,,,,,,,,,,,,,,,,,,,,,,,,,,,,,,,,,,,,,,,,,21,001,0,,2024-04-13_10h06.23.029,replicate_nsd,2023.2.3,60.03926447827453,2024-04-13 10h06.36.508918 -0400,
practice_images/paired_image_4_2.png,7,0,,,,,0,7,7,7,,,,,34.57430601200031,,,,,,,,,,,34.558974815998226,34.55905992299813,34.559071550000226,34.57430601200031,34.57430601200031,35.57467811599781,35.57467811599781,38.57337785799973,38.57337785799973,38.57337785799973,38.57337785799973,38.55901866400018,None,0,None,38.55926330299917,38.559284635997756,,,,,,,,,,,,,,,,,,,,,,,,,,,,,,,,,,,,,,,,,,,,,,,,,,,,,,,,,,,,,,,21,001,0,,2024-04-13_10h06.23.029,replicate_nsd,2023.2.3,60.03926447827453,2024-04-13 10h06.36.508918 -0400,
practice_images/paired_image_25_2.png,8,0,,,,,0,8,8,8,,,,,38.57337785799973,,,,,,,,,,,38.55945050700029,38.55949665499793,38.559502772001,38.57337785799973,38.57337785799973,39.574412797999685,39.574412797999685,42.57431545399959,42.57431545399959,42.57431545399959,42.57431545399959,42.557448296000075,None,0,None,42.55786565100061,42.557904992998374,,,,,,,,,,,,,,,,,,,,,,,,,,,,,,,,,,,,,,,,,,,,,,,,,,,,,,,,,,,,,,,21,001,0,,2024-04-13_10h06.23.029,replicate_nsd,2023.2.3,60.03926447827453,2024-04-13 10h06.36.508918 -0400,
practice_images/paired_image_29_1.png,9,0,,,,,0,9,9,9,,,,,42.57431545399959,,,,,,,,,,,42.55819616900044,42.55828023099821,42.55829173999882,42.57431545399959,42.57431545399959,43.57427544699749,43.57427544699749,46.57423114199992,46.57423114199992,46.57423114199992,46.57423114199992,46.55803664699852,None,0,None,46.55848028999753,46.558524420997855,,,,,,,,,,,,,,,,,,,,,,,,,,,,,,,,,,,,,,,,,,,,,,,,,,,,,,,,,,,,,,,21,001,0,,2024-04-13_10h06.23.029,replicate_nsd,2023.2.3,60.03926447827453,2024-04-13 10h06.36.508918 -0400,
blank.jpg,10,1,,,,,0,10,10,10,,,,,46.57423114199992,,,,,,,,,,,46.558802482999454,46.558892860000924,46.55890440899748,,,,,,,,,46.56203608699798,None,0,None,46.562333021000086,50.60721833199932,46.57423114199992,50.62404432499898,,,,,,,,,,,,,,,,,,,,,,,,,,,,,,,,,,,,,,,,,,,,,,,,,,,,,,,,,,,,,21,001,0,,2024-04-13_10h06.23.029,replicate_nsd,2023.2.3,60.03926447827453,2024-04-13 10h06.36.508918 -0400,
practice_images/paired_image_28_1.png,11,0,,,,,0,11,11,11,,,,,50.62404432499898,,,,,,,,,,,50.6076000619978,50.60768357900088,50.607695612998214,50.62404432499898,50.62404432499898,51.62459343299997,51.62459343299997,54.62349820500094,54.62349820500094,54.62349820500094,54.62349820500094,54.60781117899751,None,0,None,54.60823964500014,54.60828097099875,,,,,,,,,,,,,,,,,,,,,,,,,,,,,,,,,,,,,,,,,,,,,,,,,,,,,,,,,,,,,,,21,001,0,,2024-04-13_10h06.23.029,replicate_nsd,2023.2.3,60.03926447827453,2024-04-13 10h06.36.508918 -0400,
practice_images/paired_image_36_2.png,12,0,,,,,0,12,12,12,,,,,54.62349820500094,,,,,,,,,,,54.608559968997724,54.60864662699896,54.60865835699951,54.62349820500094,54.62349820500094,55.624417705999804,55.624417705999804,58.62356876600097,58.62356876600097,58.62356876600097,58.62356876600097,58.606875781999406,None,0,None,58.60711073600032,58.60713352300081,,,,,,,,,,,,,,,,,,,,,,,,,,,,,,,,,,,,,,,,,,,,,,,,,,,,,,,,,,,,,,,21,001,0,,2024-04-13_10h06.23.029,replicate_nsd,2023.2.3,60.03926447827453,2024-04-13 10h06.36.508918 -0400,
practice_images/paired_image_6_2.png,13,0,,,,,0,13,13,13,,,,,58.62356876600097,,,,,,,,,,,58.60729126499791,58.607339463000244,58.60734614000103,58.62356876600097,58.62356876600097,59.6243780650002,59.6243780650002,62.62410683100097,62.62410683100097,62.62410683100097,62.62410683100097,62.60782480999842,None,0,None,62.608251358000416,62.608291063999786,,,,,,,,,,,,,,,,,,,,,,,,,,,,,,,,,,,,,,,,,,,,,,,,,,,,,,,,,,,,,,,21,001,0,,2024-04-13_10h06.23.029,replicate_nsd,2023.2.3,60.03926447827453,2024-04-13 10h06.36.508918 -0400,
practice_images/paired_image_33_1.png,14,0,,,,,0,14,14,14,,,,,62.62410683100097,,,,,,,,,,,62.60857411399775,62.608660555000824,62.60867249799776,62.62410683100097,62.62410683100097,63.6232495439981,63.6232495439981,66.62350839999999,66.62350839999999,66.62350839999999,66.62350839999999,66.60815230200024,None,0,None,66.60882512099852,66.60886623099941,,,,,,,,,,,,,,,,,,,,,,,,,,,,,,,,,,,,,,,,,,,,,,,,,,,,,,,,,,,,,,,21,001,0,,2024-04-13_10h06.23.029,replicate_nsd,2023.2.3,60.03926447827453,2024-04-13 10h06.36.508918 -0400,
practice_images/paired_image_27_1.png,15,0,,,,,0,15,15,15,,,,,66.62350839999999,,,,,,,,,,,66.60914462499932,66.60923121299857,66.60924300899933,66.62350839999999,66.62350839999999,67.62430668500019,67.62430668500019,70.62381307000032,70.62381307000032,70.62381307000032,70.62381307000032,70.60788647300069,None,0,None,70.60831198500091,70.60835226400013,,,,,,,,,,,,,,,,,,,,,,,,,,,,,,,,,,,,,,,,,,,,,,,,,,,,,,,,,,,,,,,21,001,0,,2024-04-13_10h06.23.029,replicate_nsd,2023.2.3,60.03926447827453,2024-04-13 10h06.36.508918 -0400,
practice_images/paired_image_24_1.png,16,0,,,,,0,16,16,16,,,,,70.62381307000032,,,,,,,,,,,70.60863151299782,70.6087197529996,70.60873173299842,70.62381307000032,70.62381307000032,71.62437059899821,71.62437059899821,74.6240874119976,74.6240874119976,74.6240874119976,74.6240874119976,74.60794939100015,None,0,None,74.6082937559986,74.60832541899799,,,,,,,,,,,,,,,,,,,,,,,,,,,,,,,,,,,,,,,,,,,,,,,,,,,,,,,,,,,,,,,21,001,0,,2024-04-13_10h06.23.029,replicate_nsd,2023.2.3,60.03926447827453,2024-04-13 10h06.36.508918 -0400,
practice_images/paired_image_21_2.png,17,0,,,,,0,17,17,17,,,,,74.6240874119976,,,,,,,,,,,74.60855156300022,74.60864376799873,74.60865562499748,74.6240874119976,74.6240874119976,75.62466275599945,75.62466275599945,78.62412393399791,78.62412393399791,78.62412393399791,78.62412393399791,78.60811144800027,None,0,None,78.60853832800058,78.60857793700052,,,,,,,,,,,,,,,,,,,,,,,,,,,,,,,,,,,,,,,,,,,,,,,,,,,,,,,,,,,,,,,21,001,0,,2024-04-13_10h06.23.029,replicate_nsd,2023.2.3,60.03926447827453,2024-04-13 10h06.36.508918 -0400,
practice_images/paired_image_15_1.png,18,0,,,,,0,18,18,18,,,,,78.62412393399791,,,,,,,,,,,78.60885636899911,78.60894224499862,78.60895387299752,78.62412393399791,78.62412393399791,79.62464574700061,79.62464574700061,82.62410305500089,82.62410305500089,82.62410305500089,82.62410305500089,82.60810341699835,1,0,None,82.6088761539977,82.60891823299971,,,2.9371838080005546,None,,,,,,,,,,,,,,,,,,,,,,,,,,,,,,,,,,,,,,,,,,,,,,,,,,,,,,,,,,,21,001,0,,2024-04-13_10h06.23.029,replicate_nsd,2023.2.3,60.03926447827453,2024-04-13 10h06.36.508918 -0400,
practice_images/paired_image_18_1.png,19,0,,,,,0,19,19,19,,,,,82.62410305500089,,,,,,,,,,,82.60919257699788,82.60927871999957,82.60929028899773,82.62410305500089,82.62410305500089,83.6246474719992,83.6246474719992,86.62654974699763,86.62654974699763,86.62654974699763,86.62654974699763,86.6070467089994,1,0,"['2', '1', '2', '1']",86.60789824499807,86.6079330859975,,,2.6172019419973367,None,"[0.22186034100013785, 0.35373959700154955, 0.5739124390020152, 0.7818554550030967]","[None, None, None, None]",,,,,,,,,,,,,,,,,,,,,,,,,,,,,,,,,,,,,,,,,,,,,,,,,,,,,,,,,21,001,0,,2024-04-13_10h06.23.029,replicate_nsd,2023.2.3,60.03926447827453,2024-04-13 10h06.36.508918 -0400,
,,,,,,,,,,,,,,,,,,,,,,,,,,,,,,,,,,,,,,,,,,,,,,,,,86.60798092999903,86.62654974699763,86.62654974699763,87.19048083300004,2,0.5595803069991234,None,,,,,,,,,,,,,,,,,,,,,,,,,,,,,,,,,,,,,,,,,,,,,,,,,,21,001,0,,2024-04-13_10h06.23.029,replicate_nsd,2023.2.3,60.03926447827453,2024-04-13 10h06.36.508918 -0400,
,,,,,,,,,,,,,,,,,,,,,,,,,,,,,,,,,,,,,,,,,,,,,,,,,,,,,,,,87.19050536199939,87.20755198999905,87.20755198999905,94.60712971400062,equal,7.386416041001212,None,,,,,,,,,,,,,,,,,,,,,,,,,,,,,,,,,,,,,,,,,,,21,001,0,,2024-04-13_10h06.23.029,replicate_nsd,2023.2.3,60.03926447827453,2024-04-13 10h06.36.508918 -0400,
images/image_557_seed_1.png,0,0,0,0,0,"[9, 19, 29, 39, 49, 59, 68, 69, 70, 71]",,,,,0,0,0,0,94.71480536200033,,,,,,,,,,,,,,,,,,,,,,,,,,,,,,,,,,,,,,,,,,,,,,,,94.68204349299776,94.68214451200038,94.68215227299879,94.71480536200033,94.71480536200033,95.69111384999997,95.69111384999997,98.68990823599961,98.68990823599961,98.68990823599961,98.68990823599961,98.67337875299927,None,0,None,98.67437186499956,98.67439589199785,None,98.67479963799997,98.67485582600057,None,98.67527098199935,98.67529266400015,None,,,,,,,,,,,,,,,,,,,21,001,0,,2024-04-13_10h06.23.029,replicate_nsd,2023.2.3,60.03926447827453,2024-04-13 10h06.36.508918 -0400,
images/image_637_seed_1.png,1,0,0,0,0,"[9, 19, 29, 39, 49, 59, 68, 69, 70, 71]",,,,,0,1,1,1,98.68990823599961,,,,,,,,,,,,,,,,,,,,,,,,,,,,,,,,,,,,,,,,,,,,,,,,98.67584557599912,98.67589748399769,98.67590370800099,98.68990823599961,98.68990823599961,99.69114672599972,99.69114672599972,102.69687894099843,102.69687894099843,102.69687894099843,102.69687894099843,102.67480085399802,2,0,None,102.67636949900043,102.67641671599995,None,102.6765348480003,102.68535485299799,None,102.68543900899749,102.68546129199967,None,2.9107290989995818,None,,,,,,,,,,,,,,,,,21,001,0,,2024-04-13_10h06.23.029,replicate_nsd,2023.2.3,60.03926447827453,2024-04-13 10h06.36.508918 -0400,
images/image_408_seed_1.png,2,0,0,0,0,"[9, 19, 29, 39, 49, 59, 68, 69, 70, 71]",,,,,0,2,2,2,102.69687894099843,,,,,,,,,,,,,,,,,,,,,,,,,,,,,,,,,,,,,,,,,,,,,,,,102.68569220099744,102.68575460499778,102.68576202300028,102.69687894099843,102.69687894099843,103.69114839399845,103.69114839399845,106.69048214899885,106.69048214899885,106.69048214899885,106.69048214899885,106.67348591799964,1,1,"['1', '2', '1', '2']",106.67592455100021,106.67595501899996,None,106.67604014199969,106.67610864100061,None,106.67618785100058,106.67621094700007,None,2.5666978070003097,None,"[0.1451654199991026, 0.4210631839996495, 0.6449686419982754, 0.9529635479993885]","[None, None, None, None]",,,,,,,,,,,,,,,21,001,0,,2024-04-13_10h06.23.029,replicate_nsd,2023.2.3,60.03926447827453,2024-04-13 10h06.36.508918 -0400,
images/image_564_seed_1.png,3,0,0,0,0,"[9, 19, 29, 39, 49, 59, 68, 69, 70, 71]",,,,,0,3,3,3,106.69048214899885,,,,,,,,,,,,,,,,,,,,,,,,,,,,,,,,,,,,,,,,,,,,,,,,106.67645550499947,106.67652330399869,106.67653139899994,106.69048214899885,106.69048214899885,107.69099854699743,107.69099854699743,110.69225995899978,110.69225995899978,110.69225995899978,110.69225995899978,110.67364489299871,1,1,"['2', '1', '2', '1']",110.67414433199883,110.67416946799858,None,110.67423283799872,110.68105101399851,None,110.68113730899859,110.68115960099749,None,2.702987317003135,None,"[0.1593858710002678, 0.47136178000073414, 0.751362392998999, 0.9593823510003858]","[None, None, None, None]",,,,,,,,,,,,,,,21,001,0,,2024-04-13_10h06.23.029,replicate_nsd,2023.2.3,60.03926447827453,2024-04-13 10h06.36.508918 -0400,
images/image_565_seed_1.png,4,0,0,0,0,"[9, 19, 29, 39, 49, 59, 68, 69, 70, 71]",,,,,0,4,4,4,110.69225995899978,,,,,,,,,,,,,,,,,,,,,,,,,,,,,,,,,,,,,,,,,,,,,,,,110.68138462199931,110.68144454199864,110.68145202300002,110.69225995899978,110.69225995899978,111.68997137199767,111.68997137199767,114.69607175800047,114.69607175800047,114.69607175800047,114.69607175800047,114.67458296100085,1,1,"['2', '1']",114.67551351200018,114.6755615080001,None,114.67567751499882,114.68295525099893,None,114.68305587799841,114.68308198799787,None,2.6639153659998556,None,"[0.27376342299976386, 0.4217375250009354]","[None, None]",,,,,,,,,,,,,,,21,001,0,,2024-04-13_10h06.23.029,replicate_nsd,2023.2.3,60.03926447827453,2024-04-13 10h06.36.508918 -0400,
images/image_365_seed_1.png,5,0,0,0,0,"[9, 19, 29, 39, 49, 59, 68, 69, 70, 71]",,,,,0,5,5,5,114.69607175800047,,,,,,,,,,,,,,,,,,,,,,,,,,,,,,,,,,,,,,,,,,,,,,,,114.68335063199993,114.68342235399905,114.68343091799761,114.69607175800047,114.69607175800047,115.69102511699748,115.69102511699748,118.69664447899777,118.69664447899777,118.69664447899777,118.69664447899777,118.67450765499962,2,0,"['2', '1', '1', '2']",118.67548220499884,118.67552827899999,None,118.67564332099937,118.6829592139984,None,118.68305651799892,118.68308138700013,None,2.7869718089968956,None,"[0.01380990400139126, 0.10981199299931177, 0.4297709019992908, 0.4457668969989754]","[None, None, None, None]",,,,,,,,,,,,,,,21,001,0,,2024-04-13_10h06.23.029,replicate_nsd,2023.2.3,60.03926447827453,2024-04-13 10h06.36.508918 -0400,
images/image_413_seed_1.png,6,0,0,0,0,"[9, 19, 29, 39, 49, 59, 68, 69, 70, 71]",,,,,0,6,6,6,118.69664447899777,,,,,,,,,,,,,,,,,,,,,,,,,,,,,,,,,,,,,,,,,,,,,,,,118.68333929599976,118.68340814999829,118.68341660099759,118.69664447899777,118.69664447899777,119.69105623499854,119.69105623499854,122.69541164899783,122.69541164899783,122.69541164899783,122.69541164899783,122.67402366500028,1,1,['1'],122.67497839899806,122.67502468599923,None,122.67513900599806,122.68148472399844,None,122.68158092799786,122.68160652000006,None,2.5269538599968655,None,[0.10138990799896419],[None],,,,,,,,,,,,,,,21,001,0,,2024-04-13_10h06.23.029,replicate_nsd,2023.2.3,60.03926447827453,2024-04-13 10h06.36.508918 -0400,
images/image_171_seed_1.png,7,0,0,0,0,"[9, 19, 29, 39, 49, 59, 68, 69, 70, 71]",,,,,0,7,7,7,122.69541164899783,,,,,,,,,,,,,,,,,,,,,,,,,,,,,,,,,,,,,,,,,,,,,,,,122.68186382400017,122.68193312699805,122.68194157499966,122.69541164899783,122.69541164899783,123.69088102800015,123.69088102800015,126.69658373700076,126.69658373700076,126.69658373700076,126.69658373700076,126.67451620000065,2,0,"['2', '1']",126.67541185499795,126.67545758599954,None,126.67557208599828,126.68544855000073,None,126.68554285799837,126.6855677780004,None,0.734967003998463,None,"[0.46242518899816787, 0.7144710540014785]","[None, None]",,,,,,,,,,,,,,,21,001,0,,2024-04-13_10h06.23.029,replicate_nsd,2023.2.3,60.03926447827453,2024-04-13 10h06.36.508918 -0400,
images/image_450_seed_1.png,8,0,0,0,0,"[9, 19, 29, 39, 49, 59, 68, 69, 70, 71]",,,,,0,8,8,8,126.69658373700076,,,,,,,,,,,,,,,,,,,,,,,,,,,,,,,,,,,,,,,,,,,,,,,,126.68583328199747,126.68589858099949,126.68590662299903,126.69658373700076,126.69658373700076,127.690513087,127.690513087,130.6917129959984,130.6917129959984,130.6917129959984,130.6917129959984,130.67463443099768,None,0,None,130.675303652999,130.67534891000105,None,130.67546420399958,130.68213532799928,None,130.68223026299893,130.6822559809989,None,,,,,,,,,,,,,,,,,,,21,001,0,,2024-04-13_10h06.23.029,replicate_nsd,2023.2.3,60.03926447827453,2024-04-13 10h06.36.508918 -0400,
blank.jpg,9,1,0,0,0,"[9, 19, 29, 39, 49, 59, 68, 69, 70, 71]",,,,,0,9,9,9,130.6917129959984,,,,,,,,,,,,,,,,,,,,,,,,,,,,,,,,,,,,,,,,,,,,,,,,130.68251326699828,130.68258263199823,130.6825910970001,,,,,,,,,130.68529685599788,None,0,None,130.68554868099818,134.67445103799764,None,134.67466863899972,134.6822823959992,None,134.68237932400007,134.6824049329989,None,,,,,130.6917129959984,130.6917129959984,134.6939621019992,134.6939621019992,,,,,,,,,,,21,001,0,,2024-04-13_10h06.23.029,replicate_nsd,2023.2.3,60.03926447827453,2024-04-13 10h06.36.508918 -0400,
images/image_311_seed_1.png,10,0,0,0,0,"[9, 19, 29, 39, 49, 59, 68, 69, 70, 71]",,,,,0,10,10,10,134.6939621019992,,,,,,,,,,,,,,,,,,,,,,,,,,,,,,,,,,,,,,,,,,,,,,,,134.6826644899993,134.68273379699895,134.68274215999918,134.6939621019992,134.6939621019992,135.6910144249996,135.6910144249996,138.69038638200072,138.69038638200072,138.69038638200072,138.69038638200072,138.67428472299798,None,0,None,138.67481084500105,138.6748570540003,None,138.674978766001,138.67508452100083,None,138.67520624299868,138.6752432079993,None,,,,,,,,,,,,,,,,,,,21,001,0,,2024-04-13_10h06.23.029,replicate_nsd,2023.2.3,60.03926447827453,2024-04-13 10h06.36.508918 -0400,
images/image_439_seed_1.png,11,0,0,0,0,"[9, 19, 29, 39, 49, 59, 68, 69, 70, 71]",,,,,0,11,11,11,138.69038638200072,,,,,,,,,,,,,,,,,,,,,,,,,,,,,,,,,,,,,,,,,,,,,,,,138.6756332820005,138.67573899999843,138.67575193299854,138.69038638200072,138.69038638200072,139.69103865099896,139.69103865099896,142.69680092400085,142.69680092400085,142.69680092400085,142.69680092400085,142.67463436400067,None,0,None,142.67530275099853,142.67534790799982,None,142.67546490499808,142.68208568699993,None,142.68218144599814,142.68220685800043,None,,,,,,,,,,,,,,,,,,,21,001,0,,2024-04-13_10h06.23.029,replicate_nsd,2023.2.3,60.03926447827453,2024-04-13 10h06.36.508918 -0400,
images/image_363_seed_1.png,12,0,0,0,0,"[9, 19, 29, 39, 49, 59, 68, 69, 70, 71]",,,,,0,12,12,12,142.69680092400085,,,,,,,,,,,,,,,,,,,,,,,,,,,,,,,,,,,,,,,,,,,,,,,,142.68246428899874,142.68253304099926,142.68254153499947,142.69680092400085,142.69680092400085,143.69103768999776,143.69103768999776,146.68939660499746,146.68939660499746,146.68939660499746,146.68939660499746,146.67318513699865,None,0,None,146.67341670399765,146.67343712900038,None,146.6734894729998,146.67815822099874,None,146.67822708399763,146.67824480299896,None,,,,,,,,,,,,,,,,,,,21,001,0,,2024-04-13_10h06.23.029,replicate_nsd,2023.2.3,60.03926447827453,2024-04-13 10h06.36.508918 -0400,
images/image_707_seed_1.png,13,0,0,0,0,"[9, 19, 29, 39, 49, 59, 68, 69, 70, 71]",,,,,0,13,13,13,146.68939660499746,,,,,,,,,,,,,,,,,,,,,,,,,,,,,,,,,,,,,,,,,,,,,,,,146.6784310289986,146.678481955998,146.67848799299827,146.68939660499746,146.68939660499746,147.6896020669992,147.6896020669992,150.693384694001,150.693384694001,150.693384694001,150.693384694001,150.6744403240009,None,0,None,150.67500289899908,150.6750488409998,None,150.67516715400052,150.68239502899814,None,150.68249196100078,150.6825177259998,None,,,,,,,,,,,,,,,,,,,21,001,0,,2024-04-13_10h06.23.029,replicate_nsd,2023.2.3,60.03926447827453,2024-04-13 10h06.36.508918 -0400,
images/image_625_seed_1.png,14,0,0,0,0,"[9, 19, 29, 39, 49, 59, 68, 69, 70, 71]",,,,,0,14,14,14,150.693384694001,,,,,,,,,,,,,,,,,,,,,,,,,,,,,,,,,,,,,,,,,,,,,,,,150.68277943499925,150.68284920500082,150.68285758400089,150.693384694001,150.693384694001,151.69089746199825,151.69089746199825,154.68946195199896,154.68946195199896,154.68946195199896,154.68946195199896,154.67342812700008,2,0,"['2', '1']",154.67392992399982,154.67395467099777,None,154.67401427200093,154.68019339699822,None,154.68029148200003,154.68031366200012,None,1.6390911550006422,None,"[0.6965680559987959, 0.8644463399978122]","[None, None]",,,,,,,,,,,,,,,21,001,0,,2024-04-13_10h06.23.029,replicate_nsd,2023.2.3,60.03926447827453,2024-04-13 10h06.36.508918 -0400,
images/image_434_seed_1.png,15,0,0,0,0,"[9, 19, 29, 39, 49, 59, 68, 69, 70, 71]",,,,,0,15,15,15,154.68946195199896,,,,,,,,,,,,,,,,,,,,,,,,,,,,,,,,,,,,,,,,,,,,,,,,154.6805363300009,154.68060379899907,154.68061092999778,154.68946195199896,154.68946195199896,155.69083395599955,155.69083395599955,158.69585260500025,158.69585260500025,158.69585260500025,158.69585260500025,158.6744470579979,None,0,None,158.67494953999994,158.67499321099967,None,158.67510983000102,158.68231069199828,None,158.68240480999884,158.68243009399885,None,,,,,,,,,,,,,,,,,,,21,001,0,,2024-04-13_10h06.23.029,replicate_nsd,2023.2.3,60.03926447827453,2024-04-13 10h06.36.508918 -0400,
images/image_44_seed_1.png,16,0,0,0,0,"[9, 19, 29, 39, 49, 59, 68, 69, 70, 71]",,,,,0,16,16,16,158.69585260500025,,,,,,,,,,,,,,,,,,,,,,,,,,,,,,,,,,,,,,,,,,,,,,,,158.68268909999824,158.6827576930009,158.68276594499912,158.69585260500025,158.69585260500025,159.68981857199833,159.68981857199833,162.69397460300024,162.69397460300024,162.69397460300024,162.69397460300024,162.674491957001,1,1,"['2', '1']",162.675453156,162.67549978799798,None,162.67561467499763,162.68263405800099,None,162.68273066999973,162.6827565200001,None,0.3842207560010138,None,"[0.4219663389994821, 0.4259556260003592]","[None, None]",,,,,,,,,,,,,,,21,001,0,,2024-04-13_10h06.23.029,replicate_nsd,2023.2.3,60.03926447827453,2024-04-13 10h06.36.508918 -0400,
images/image_561_seed_1.png,17,0,0,0,0,"[9, 19, 29, 39, 49, 59, 68, 69, 70, 71]",,,,,0,17,17,17,162.69397460300024,,,,,,,,,,,,,,,,,,,,,,,,,,,,,,,,,,,,,,,,,,,,,,,,162.68301276900092,162.6830824509998,162.68309077199956,162.69397460300024,162.69397460300024,163.69091809599922,163.69091809599922,166.69395585899838,166.69395585899838,166.69395585899838,166.69395585899838,166.67443697099952,None,0,None,166.67499545899773,166.67504177999945,None,166.67516003700075,166.6819302490003,None,166.68202773099983,166.68205362499793,None,,,,,,,,,,,,,,,,,,,21,001,0,,2024-04-13_10h06.23.029,replicate_nsd,2023.2.3,60.03926447827453,2024-04-13 10h06.36.508918 -0400,
images/image_568_seed_1.png,18,0,0,0,0,"[9, 19, 29, 39, 49, 59, 68, 69, 70, 71]",,,,,0,18,18,18,166.69395585899838,,,,,,,,,,,,,,,,,,,,,,,,,,,,,,,,,,,,,,,,,,,,,,,,166.68231286399896,166.6823820469981,166.68239017499945,166.69395585899838,166.69395585899838,167.6905775790001,167.6905775790001,170.69148205599777,170.69148205599777,170.69148205599777,170.69148205599777,170.67445378499906,1,1,"['2', '1']",170.6754854110004,170.67553689099805,None,170.67565807799838,170.682778118,None,170.68287652999788,170.68290239999988,None,0.759315578998212,None,"[0.4318812210003671, 0.6720228720005252]","[None, None]",,,,,,,,,,,,,,,21,001,0,,2024-04-13_10h06.23.029,replicate_nsd,2023.2.3,60.03926447827453,2024-04-13 10h06.36.508918 -0400,
blank.jpg,19,1,0,0,0,"[9, 19, 29, 39, 49, 59, 68, 69, 70, 71]",,,,,0,19,19,19,170.69148205599777,,,,,,,,,,,,,,,,,,,,,,,,,,,,,,,,,,,,,,,,,,,,,,,,170.6831635239978,170.68323307399987,170.6832413359989,,,,,,,,,170.685741805999,None,0,None,170.68601289599974,174.67442718299935,"['1', '2', '1', '2', '1']",174.67607970699828,174.6824949010006,None,174.68258853099906,174.6826136210002,None,,,,,170.69148205599777,170.69148205599777,174.69492230099786,174.69492230099786,"[3.1905429720027314, 3.2183499970014964, 3.4425429600014468, 3.722517453999899, 3.946367554999597]","[None, None, None, None, None]",,,,,,,,,21,001,0,,2024-04-13_10h06.23.029,replicate_nsd,2023.2.3,60.03926447827453,2024-04-13 10h06.36.508918 -0400,
images/image_18_seed_1.png,20,0,0,0,0,"[9, 19, 29, 39, 49, 59, 68, 69, 70, 71]",,,,,0,20,20,20,174.69492230099786,,,,,,,,,,,,,,,,,,,,,,,,,,,,,,,,,,,,,,,,,,,,,,,,174.6828842219984,174.6829430100006,174.68295027799832,174.69492230099786,174.69492230099786,175.69092757699764,175.69092757699764,178.6907398149997,178.6907398149997,178.6907398149997,178.6907398149997,178.67443642599756,2,0,"['2', '1', '2']",178.67538439499913,178.67543305999789,None,178.67554686899894,178.67565040599948,None,178.67576994299816,178.67580647000068,None,0.5629285789982532,None,"[0.11906705000001239, 0.4549539619983989, 0.7949404459977814]","[None, None, None]",,,,,,,,,,,,,,,21,001,0,,2024-04-13_10h06.23.029,replicate_nsd,2023.2.3,60.03926447827453,2024-04-13 10h06.36.508918 -0400,
images/image_478_seed_1.png,21,0,0,0,0,"[9, 19, 29, 39, 49, 59, 68, 69, 70, 71]",,,,,0,21,21,21,178.6907398149997,,,,,,,,,,,,,,,,,,,,,,,,,,,,,,,,,,,,,,,,,,,,,,,,178.6761850820003,178.67629064799985,178.67630322100013,178.6907398149997,178.6907398149997,179.69090565499937,179.69090565499937,182.69388379299926,182.69388379299926,182.69388379299926,182.69388379299926,182.67454408399863,None,0,None,182.675212498998,182.67525733100047,None,182.67537518500103,182.68278312799885,None,182.68287755299752,182.68290331000026,None,,,,,,,,,,,,,,,,,,,21,001,0,,2024-04-13_10h06.23.029,replicate_nsd,2023.2.3,60.03926447827453,2024-04-13 10h06.36.508918 -0400,
images/image_18_seed_1.png,22,0,1,0,0,"[9, 19, 29, 39, 49, 59, 68, 69, 70, 71]",,,,,0,22,22,22,182.69388379299926,,,,,,,,,,,,,,,,,,,,,,,,,,,,,,,,,,,,,,,,,,,,,,,,182.68316133899862,182.6832300620008,182.68323843100006,182.69388379299926,182.69388379299926,183.69015246599884,183.69015246599884,186.695994796999,186.695994796999,186.695994796999,186.695994796999,186.6744174159976,None,0,None,186.67497645899857,186.67502169900035,None,186.67513817299914,186.6817608429992,None,186.68185618699863,186.6818816720006,None,,,,,,,,,,,,,,,,,,,21,001,0,,2024-04-13_10h06.23.029,replicate_nsd,2023.2.3,60.03926447827453,2024-04-13 10h06.36.508918 -0400,
images/image_739_seed_1.png,23,0,0,0,0,"[9, 19, 29, 39, 49, 59, 68, 69, 70, 71]",,,,,0,23,23,23,186.695994796999,,,,,,,,,,,,,,,,,,,,,,,,,,,,,,,,,,,,,,,,,,,,,,,,186.68213966099938,186.68220853800085,186.68221698599882,186.695994796999,186.695994796999,187.6906086409981,187.6906086409981,190.694640452999,190.694640452999,190.694640452999,190.694640452999,190.6743895289983,None,0,None,190.67491708799935,190.6749628159996,None,190.6750818340006,190.6823240369995,None,190.6824197399983,190.68244537200007,None,,,,,,,,,,,,,,,,,,,21,001,0,,2024-04-13_10h06.23.029,replicate_nsd,2023.2.3,60.03926447827453,2024-04-13 10h06.36.508918 -0400,
images/image_69_seed_1.png,24,0,0,0,0,"[9, 19, 29, 39, 49, 59, 68, 69, 70, 71]",,,,,0,24,24,24,190.694640452999,,,,,,,,,,,,,,,,,,,,,,,,,,,,,,,,,,,,,,,,,,,,,,,,190.68270835099975,190.6827779339983,190.68278640199787,190.694640452999,190.694640452999,191.69087210200087,191.69087210200087,194.69514852099746,194.69514852099746,194.69514852099746,194.69514852099746,194.6744125969999,1,1,"['2', '1']",194.675371764999,194.6754168439984,None,194.67553127000065,194.68269826699907,None,194.68279410899777,194.68281871900035,None,2.8110149020030804,None,"[0.5072386200008623, 0.6793618869996862]","[None, None]",,,,,,,,,,,,,,,21,001,0,,2024-04-13_10h06.23.029,replicate_nsd,2023.2.3,60.03926447827453,2024-04-13 10h06.36.508918 -0400,
images/image_627_seed_1.png,25,0,0,0,0,"[9, 19, 29, 39, 49, 59, 68, 69, 70, 71]",,,,,0,25,25,25,194.69514852099746,,,,,,,,,,,,,,,,,,,,,,,,,,,,,,,,,,,,,,,,,,,,,,,,194.6830735500007,194.68314323400045,194.68315139399783,194.69514852099746,194.69514852099746,195.69054112400045,195.69054112400045,198.69582940399778,198.69582940399778,198.69582940399778,198.69582940399778,198.67411474699838,1,1,"['2', '1', '2']",198.67503505199784,198.67508109700066,None,198.6751974789986,198.68229292999968,None,198.68239222299962,198.68241887099794,None,2.615386215002218,None,"[0.09881342299922835, 0.6388679310002772, 0.79067409399795]","[None, None, None]",,,,,,,,,,,,,,,21,001,0,,2024-04-13_10h06.23.029,replicate_nsd,2023.2.3,60.03926447827453,2024-04-13 10h06.36.508918 -0400,
images/image_321_seed_1.png,26,0,0,0,0,"[9, 19, 29, 39, 49, 59, 68, 69, 70, 71]",,,,,0,26,26,26,198.69582940399778,,,,,,,,,,,,,,,,,,,,,,,,,,,,,,,,,,,,,,,,,,,,,,,,198.6826837410008,198.68275523600096,198.68276383199918,198.69582940399778,198.69582940399778,199.69083146199773,199.69083146199773,202.69390986500002,202.69390986500002,202.69390986500002,202.69390986500002,202.67457159900005,1,1,"['2', '1']",202.67564268599745,202.67568851000033,None,202.67580282400013,202.6830670800009,None,202.68316331800088,202.68318871799784,None,2.8110504809992563,None,"[0.014053909999347525, 0.20604634499977692]","[None, None]",,,,,,,,,,,,,,,21,001,0,,2024-04-13_10h06.23.029,replicate_nsd,2023.2.3,60.03926447827453,2024-04-13 10h06.36.508918 -0400,
images/image_413_seed_1.png,27,0,1,0,0,"[9, 19, 29, 39, 49, 59, 68, 69, 70, 71]",,,,,0,27,27,27,202.69390986500002,,,,,,,,,,,,,,,,,,,,,,,,,,,,,,,,,,,,,,,,,,,,,,,,202.68344600699857,202.68351590100065,202.6835244319991,202.69390986500002,202.69390986500002,203.6908444619985,203.6908444619985,206.6895146349998,206.6895146349998,206.6895146349998,206.6895146349998,206.67526991799969,2,1,['2'],206.67567441699794,206.67569517899756,None,206.67574512699866,206.67974760200013,None,206.67981458299982,206.67983275499864,None,0.9790074750017084,None,[0.37596951500017894],[None],,,,,,,,,,,,,,,21,001,0,,2024-04-13_10h06.23.029,replicate_nsd,2023.2.3,60.03926447827453,2024-04-13 10h06.36.508918 -0400,
images/image_480_seed_1.png,28,0,0,0,0,"[9, 19, 29, 39, 49, 59, 68, 69, 70, 71]",,,,,0,28,28,28,206.6895146349998,,,,,,,,,,,,,,,,,,,,,,,,,,,,,,,,,,,,,,,,,,,,,,,,206.68001439599902,206.6800638450004,206.6800696040009,206.6895146349998,206.6895146349998,207.69054597599825,207.69054597599825,210.69138493799983,210.69138493799983,210.69138493799983,210.69138493799983,210.67398060399864,None,0,None,210.67450278099932,210.67454690500017,None,210.67466437499752,210.68206757100052,None,210.68216379599835,210.6821885299978,None,,,,,,,,,,,,,,,,,,,21,001,0,,2024-04-13_10h06.23.029,replicate_nsd,2023.2.3,60.03926447827453,2024-04-13 10h06.36.508918 -0400,
blank.jpg,29,1,0,0,0,"[9, 19, 29, 39, 49, 59, 68, 69, 70, 71]",,,,,0,29,29,29,210.69138493799983,,,,,,,,,,,,,,,,,,,,,,,,,,,,,,,,,,,,,,,,,,,,,,,,210.68244606499866,210.6825161609995,210.68252466899867,,,,,,,,,210.68564342600075,None,0,None,210.68597182300073,214.67430216799767,None,214.6745211790003,214.68198142899928,None,214.68207831600012,214.6821037009977,None,,,,,210.69138493799983,210.69138493799983,214.69603997100057,214.69603997100057,,,,,,,,,,,21,001,0,,2024-04-13_10h06.23.029,replicate_nsd,2023.2.3,60.03926447827453,2024-04-13 10h06.36.508918 -0400,
images/image_645_seed_1.png,30,0,0,0,0,"[9, 19, 29, 39, 49, 59, 68, 69, 70, 71]",,,,,0,30,30,30,214.69603997100057,,,,,,,,,,,,,,,,,,,,,,,,,,,,,,,,,,,,,,,,,,,,,,,,214.68236645800062,214.68243607399927,214.68244446799872,214.69603997100057,214.69603997100057,215.6904551259977,215.6904551259977,218.68954479199965,218.68954479199965,218.68954479199965,218.68954479199965,218.6743264559991,None,0,None,218.67485337700055,218.67489985499924,None,218.6750198519985,218.67512464699757,None,218.67524796100042,218.67528533099903,None,,,,,,,,,,,,,,,,,,,21,001,0,,2024-04-13_10h06.23.029,replicate_nsd,2023.2.3,60.03926447827453,2024-04-13 10h06.36.508918 -0400,
images/image_158_seed_1.png,31,0,0,0,0,"[9, 19, 29, 39, 49, 59, 68, 69, 70, 71]",,,,,0,31,31,31,218.68954479199965,,,,,,,,,,,,,,,,,,,,,,,,,,,,,,,,,,,,,,,,,,,,,,,,218.67568959900018,218.67579639799806,218.6758096179983,218.68954479199965,218.68954479199965,219.69051941299767,219.69051941299767,222.69666735599822,222.69666735599822,222.69666735599822,222.69666735599822,222.67449960199883,1,1,None,222.6753170439988,222.67536213799758,None,222.67547469499914,222.6828884639981,None,222.6829828789996,222.68300884600103,None,2.6154132280025806,None,,,,,,,,,,,,,,,,,21,001,0,,2024-04-13_10h06.23.029,replicate_nsd,2023.2.3,60.03926447827453,2024-04-13 10h06.36.508918 -0400,
images/image_467_seed_1.png,32,0,0,0,0,"[9, 19, 29, 39, 49, 59, 68, 69, 70, 71]",,,,,0,32,32,32,222.69666735599822,,,,,,,,,,,,,,,,,,,,,,,,,,,,,,,,,,,,,,,,,,,,,,,,222.6832673450008,222.68333599999823,222.68334429699826,222.69666735599822,222.69666735599822,223.6904993979988,223.6904993979988,226.69615390499894,226.69615390499894,226.69615390499894,226.69615390499894,226.6739006780008,2,0,"['2', '1', '2', '1']",226.67487145999985,226.67491775300005,None,226.67503211000076,226.68216072799987,None,226.6822568869975,226.682282785001,None,2.82351190099871,None,"[0.07732115800172323, 0.19729921399994055, 0.6732104450020415, 2.077171773002192]","[None, None, None, None]",,,,,,,,,,,,,,,21,001,0,,2024-04-13_10h06.23.029,replicate_nsd,2023.2.3,60.03926447827453,2024-04-13 10h06.36.508918 -0400,
images/image_650_seed_1.png,33,0,0,0,0,"[9, 19, 29, 39, 49, 59, 68, 69, 70, 71]",,,,,0,33,33,33,226.69615390499894,,,,,,,,,,,,,,,,,,,,,,,,,,,,,,,,,,,,,,,,,,,,,,,,226.6825443489979,226.68261340900062,226.68262169199807,226.69615390499894,226.69615390499894,227.6904067409996,227.6904067409996,230.69001833899893,230.69001833899893,230.69001833899893,230.69001833899893,230.67305790200044,None,0,"['2', '1']",230.67345960400053,230.67348531199968,None,230.67354812099802,230.67874159299754,None,230.67882549500064,230.67884807999872,None,,,"[0.7297380090021761, 0.8896933280011581]","[None, None]",,,,,,,,,,,,,,,21,001,0,,2024-04-13_10h06.23.029,replicate_nsd,2023.2.3,60.03926447827453,2024-04-13 10h06.36.508918 -0400,
images/image_84_seed_1.png,34,0,0,0,0,"[9, 19, 29, 39, 49, 59, 68, 69, 70, 71]",,,,,0,34,34,34,230.69001833899893,,,,,,,,,,,,,,,,,,,,,,,,,,,,,,,,,,,,,,,,,,,,,,,,230.67907502999878,230.67913626399968,230.6791435720006,230.69001833899893,230.69001833899893,231.69055373099764,231.69055373099764,234.6945930039983,234.6945930039983,234.6945930039983,234.6945930039983,234.6741504399979,None,0,"['2', '1']",234.67492872900038,234.67498005000016,None,234.6750966159998,234.68247470499773,None,234.6825706239979,234.68259593399853,None,,,"[0.7118733249990328, 0.83996477799883]","[None, None]",,,,,,,,,,,,,,,21,001,0,,2024-04-13_10h06.23.029,replicate_nsd,2023.2.3,60.03926447827453,2024-04-13 10h06.36.508918 -0400,
images/image_320_seed_1.png,35,0,0,0,0,"[9, 19, 29, 39, 49, 59, 68, 69, 70, 71]",,,,,0,35,35,35,234.6945930039983,,,,,,,,,,,,,,,,,,,,,,,,,,,,,,,,,,,,,,,,,,,,,,,,234.6828554579988,234.68292745399958,234.6829359910007,234.6945930039983,234.6945930039983,235.6907486429991,235.6907486429991,238.69545156599997,238.69545156599997,238.69545156599997,238.69545156599997,238.67430179599978,None,0,None,238.67481964000035,238.67486437999833,None,238.67498043699743,238.68179475799843,None,238.68189005000022,238.6819152959979,None,,,,,,,,,,,,,,,,,,,21,001,0,,2024-04-13_10h06.23.029,replicate_nsd,2023.2.3,60.03926447827453,2024-04-13 10h06.36.508918 -0400,
images/image_663_seed_1.png,36,0,0,0,0,"[9, 19, 29, 39, 49, 59, 68, 69, 70, 71]",,,,,0,36,36,36,238.69545156599997,,,,,,,,,,,,,,,,,,,,,,,,,,,,,,,,,,,,,,,,,,,,,,,,238.68217280200042,238.68224151300092,238.68224968199866,238.69545156599997,238.69545156599997,239.6905420080002,239.6905420080002,242.69649218099948,242.69649218099948,242.69649218099948,242.69649218099948,242.6743333509985,None,0,None,242.6750028409988,242.67504702400038,None,242.67516525300016,242.6828573189996,None,242.68295220299842,242.68297711600098,None,,,,,,,,,,,,,,,,,,,21,001,0,,2024-04-13_10h06.23.029,replicate_nsd,2023.2.3,60.03926447827453,2024-04-13 10h06.36.508918 -0400,
images/image_619_seed_1.png,37,0,0,0,0,"[9, 19, 29, 39, 49, 59, 68, 69, 70, 71]",,,,,0,37,37,37,242.69649218099948,,,,,,,,,,,,,,,,,,,,,,,,,,,,,,,,,,,,,,,,,,,,,,,,242.6832315089996,242.683300015,242.68330859900016,242.69649218099948,242.69649218099948,243.69038131900015,243.69038131900015,246.6945395469993,246.6945395469993,246.6945395469993,246.6945395469993,246.67424985300022,None,0,None,246.67477428499842,246.67482147699775,None,246.6749415339982,246.68213266100065,None,246.6822280790002,246.68225412299944,None,,,,,,,,,,,,,,,,,,,21,001,0,,2024-04-13_10h06.23.029,replicate_nsd,2023.2.3,60.03926447827453,2024-04-13 10h06.36.508918 -0400,
images/image_306_seed_1.png,38,0,0,0,0,"[9, 19, 29, 39, 49, 59, 68, 69, 70, 71]",,,,,0,38,38,38,246.6945395469993,,,,,,,,,,,,,,,,,,,,,,,,,,,,,,,,,,,,,,,,,,,,,,,,246.6825115879983,246.68258147699817,246.68259010199836,246.6945395469993,246.6945395469993,247.69042724099927,247.69042724099927,250.69122525700004,250.69122525700004,250.69122525700004,250.69122525700004,250.67388892099916,None,0,None,250.67440414700104,250.67444868799794,None,250.67456717700043,250.6819369429977,None,250.6820326720008,250.68205864300035,None,,,,,,,,,,,,,,,,,,,21,001,0,,2024-04-13_10h06.23.029,replicate_nsd,2023.2.3,60.03926447827453,2024-04-13 10h06.36.508918 -0400,
blank.jpg,39,1,0,0,0,"[9, 19, 29, 39, 49, 59, 68, 69, 70, 71]",,,,,0,39,39,39,250.69122525700004,,,,,,,,,,,,,,,,,,,,,,,,,,,,,,,,,,,,,,,,,,,,,,,,250.6823162849978,250.68238506899797,250.68239340699802,,,,,,,,,250.68526118500085,None,0,None,250.6856358619989,254.67419791599968,None,254.67441739800051,254.68178638599784,None,254.68188527999882,254.68191059200035,None,,,,,250.69122525700004,250.69122525700004,254.69486485800007,254.69486485800007,,,,,,,,,,,21,001,0,,2024-04-13_10h06.23.029,replicate_nsd,2023.2.3,60.03926447827453,2024-04-13 10h06.36.508918 -0400,
images/image_662_seed_1.png,40,0,0,0,0,"[9, 19, 29, 39, 49, 59, 68, 69, 70, 71]",,,,,0,40,40,40,254.69486485800007,,,,,,,,,,,,,,,,,,,,,,,,,,,,,,,,,,,,,,,,,,,,,,,,254.6821722429995,254.68224239799747,254.6822508999976,254.69486485800007,254.69486485800007,255.69033050099824,255.69033050099824,258.6894782599993,258.6894782599993,258.6894782599993,258.6894782599993,258.67389626099975,None,0,None,258.6744223530004,258.67446949299847,None,258.67458854099823,258.67469240599894,None,258.6748142159995,258.67485055200086,None,,,,,,,,,,,,,,,,,,,21,001,0,,2024-04-13_10h06.23.029,replicate_nsd,2023.2.3,60.03926447827453,2024-04-13 10h06.36.508918 -0400,
images/image_617_seed_1.png,41,0,0,0,0,"[9, 19, 29, 39, 49, 59, 68, 69, 70, 71]",,,,,0,41,41,41,258.6894782599993,,,,,,,,,,,,,,,,,,,,,,,,,,,,,,,,,,,,,,,,,,,,,,,,258.6752362119987,258.6753416979991,258.6753546709988,258.6894782599993,258.6894782599993,259.6903604559993,259.6903604559993,262.69493877900095,262.69493877900095,262.69493877900095,262.69493877900095,262.6739356629987,None,0,None,262.6744357079988,262.67448030200103,None,262.67459702499764,262.6817744250002,None,262.68186842900104,262.6818939269979,None,,,,,,,,,,,,,,,,,,,21,001,0,,2024-04-13_10h06.23.029,replicate_nsd,2023.2.3,60.03926447827453,2024-04-13 10h06.36.508918 -0400,
images/image_438_seed_1.png,42,0,0,0,0,"[9, 19, 29, 39, 49, 59, 68, 69, 70, 71]",,,,,0,42,42,42,262.69493877900095,,,,,,,,,,,,,,,,,,,,,,,,,,,,,,,,,,,,,,,,,,,,,,,,262.6821530119996,262.68222254899956,262.68223121700066,262.69493877900095,262.69493877900095,263.69030787799784,263.69030787799784,266.69590170099764,266.69590170099764,266.69590170099764,266.69590170099764,266.6741987659989,None,0,None,266.67475266399924,266.6747971879995,None,266.674912950999,266.68212616299934,None,266.6822206959987,266.6822464100005,None,,,,,,,,,,,,,,,,,,,21,001,0,,2024-04-13_10h06.23.029,replicate_nsd,2023.2.3,60.03926447827453,2024-04-13 10h06.36.508918 -0400,
images/image_235_seed_1.png,43,0,0,0,0,"[9, 19, 29, 39, 49, 59, 68, 69, 70, 71]",,,,,0,43,43,43,266.69590170099764,,,,,,,,,,,,,,,,,,,,,,,,,,,,,,,,,,,,,,,,,,,,,,,,266.68250208300014,266.6825712159989,266.6825796169978,266.69590170099764,266.69590170099764,267.69015348500034,267.69015348500034,270.69175910099875,270.69175910099875,270.69175910099875,270.69175910099875,270.6741738849996,None,0,None,270.674679011001,270.6747231519985,None,270.67483975899813,270.6822281309978,None,270.6823221150007,270.6823476469981,None,,,,,,,,,,,,,,,,,,,21,001,0,,2024-04-13_10h06.23.029,replicate_nsd,2023.2.3,60.03926447827453,2024-04-13 10h06.36.508918 -0400,
images/image_607_seed_1.png,44,0,0,0,0,"[9, 19, 29, 39, 49, 59, 68, 69, 70, 71]",,,,,0,44,44,44,270.69175910099875,,,,,,,,,,,,,,,,,,,,,,,,,,,,,,,,,,,,,,,,,,,,,,,,270.6826055220008,270.68267499599824,270.68268349199934,270.69175910099875,270.69175910099875,271.6903735269989,271.6903735269989,274.69354422499964,274.69354422499964,274.69354422499964,274.69354422499964,274.6740571929986,None,0,None,274.67464409999957,274.67468960800034,None,274.6748069519999,274.68184271800055,None,274.68193964199963,274.6819660180008,None,,,,,,,,,,,,,,,,,,,21,001,0,,2024-04-13_10h06.23.029,replicate_nsd,2023.2.3,60.03926447827453,2024-04-13 10h06.36.508918 -0400,
images/image_474_seed_1.png,45,0,0,0,0,"[9, 19, 29, 39, 49, 59, 68, 69, 70, 71]",,,,,0,45,45,45,274.69354422499964,,,,,,,,,,,,,,,,,,,,,,,,,,,,,,,,,,,,,,,,,,,,,,,,274.6822337470003,274.6823056889989,274.6823143670008,274.69354422499964,274.69354422499964,275.69035001299926,275.69035001299926,278.68929374599975,278.68929374599975,278.68929374599975,278.68929374599975,278.67303718399853,None,0,None,278.6733683079983,278.6734226589979,None,278.6734919599985,278.679218336998,None,278.6793114489992,278.67933380999966,None,,,,,,,,,,,,,,,,,,,21,001,0,,2024-04-13_10h06.23.029,replicate_nsd,2023.2.3,60.03926447827453,2024-04-13 10h06.36.508918 -0400,
images/image_312_seed_1.png,46,0,0,0,0,"[9, 19, 29, 39, 49, 59, 68, 69, 70, 71]",,,,,0,46,46,46,278.68929374599975,,,,,,,,,,,,,,,,,,,,,,,,,,,,,,,,,,,,,,,,,,,,,,,,278.67956189100005,278.67963079999754,278.6796377360006,278.68929374599975,278.68929374599975,279.69040003600094,279.69040003600094,282.69672751100006,282.69672751100006,282.69672751100006,282.69672751100006,282.6741149019981,None,0,None,282.6747707909999,282.6748147170001,None,282.67492989899984,282.6823741299995,None,282.6824714869981,282.68249753800046,None,,,,,,,,,,,,,,,,,,,21,001,0,,2024-04-13_10h06.23.029,replicate_nsd,2023.2.3,60.03926447827453,2024-04-13 10h06.36.508918 -0400,
images/image_613_seed_1.png,47,0,0,0,0,"[9, 19, 29, 39, 49, 59, 68, 69, 70, 71]",,,,,0,47,47,47,282.69672751100006,,,,,,,,,,,,,,,,,,,,,,,,,,,,,,,,,,,,,,,,,,,,,,,,282.68276337099815,282.68283404999966,282.68284291599775,282.69672751100006,282.69672751100006,283.69041800500054,283.69041800500054,286.6949852869984,286.6949852869984,286.6949852869984,286.6949852869984,286.67380218999824,None,0,None,286.6743569549981,286.6744022649982,None,286.67451915799757,286.6818762019975,None,286.6819709499978,286.68199621799795,None,,,,,,,,,,,,,,,,,,,21,001,0,,2024-04-13_10h06.23.029,replicate_nsd,2023.2.3,60.03926447827453,2024-04-13 10h06.36.508918 -0400,
images/image_308_seed_1.png,48,0,0,0,0,"[9, 19, 29, 39, 49, 59, 68, 69, 70, 71]",,,,,0,48,48,48,286.6949852869984,,,,,,,,,,,,,,,,,,,,,,,,,,,,,,,,,,,,,,,,,,,,,,,,286.68225268400056,286.68232175199955,286.6823300590004,286.6949852869984,286.6949852869984,287.68918925699836,287.68918925699836,290.68973763599934,290.68973763599934,290.68973763599934,290.68973763599934,290.6738475279999,None,0,None,290.6743704260007,290.6744166190001,None,290.6745349669982,290.6809976379991,None,290.6810929099993,290.6811184529979,None,,,,,,,,,,,,,,,,,,,21,001,0,,2024-04-13_10h06.23.029,replicate_nsd,2023.2.3,60.03926447827453,2024-04-13 10h06.36.508918 -0400,
blank.jpg,49,1,0,0,0,"[9, 19, 29, 39, 49, 59, 68, 69, 70, 71]",,,,,0,49,49,49,290.68973763599934,,,,,,,,,,,,,,,,,,,,,,,,,,,,,,,,,,,,,,,,,,,,,,,,290.6813745920008,290.6814440019989,290.68145226699926,,,,,,,,,290.68396421799844,None,0,None,290.68423159099984,294.6736815910008,None,294.67390059899844,294.6811672490003,None,294.68126443899746,294.6812895260009,None,,,,,290.68973763599934,290.68973763599934,294.69405236199964,294.69405236199964,,,,,,,,,,,21,001,0,,2024-04-13_10h06.23.029,replicate_nsd,2023.2.3,60.03926447827453,2024-04-13 10h06.36.508918 -0400,
images/image_699_seed_1.png,50,0,0,0,0,"[9, 19, 29, 39, 49, 59, 68, 69, 70, 71]",,,,,0,50,50,50,294.69405236199964,,,,,,,,,,,,,,,,,,,,,,,,,,,,,,,,,,,,,,,,,,,,,,,,294.68155226199815,294.6816221429981,294.6816305049979,294.69405236199964,294.69405236199964,295.6903532739998,295.6903532739998,298.68962548499985,298.68962548499985,298.68962548499985,298.68962548499985,298.67389541399825,None,0,None,298.67438614799903,298.6744323589992,None,298.67454740500034,298.67465027199796,None,298.674767384,298.67480360899935,None,,,,,,,,,,,,,,,,,,,21,001,0,,2024-04-13_10h06.23.029,replicate_nsd,2023.2.3,60.03926447827453,2024-04-13 10h06.36.508918 -0400,
images/image_168_seed_1.png,51,0,0,0,0,"[9, 19, 29, 39, 49, 59, 68, 69, 70, 71]",,,,,0,51,51,51,298.68962548499985,,,,,,,,,,,,,,,,,,,,,,,,,,,,,,,,,,,,,,,,,,,,,,,,298.67518072099847,298.6752839389992,298.67529647300034,298.68962548499985,298.68962548499985,299.6903169569996,299.6903169569996,302.69511345499996,302.69511345499996,302.69511345499996,302.69511345499996,302.6738499719977,None,0,None,302.67441419199895,302.6744589459995,None,302.67457590900085,302.6817059569985,None,302.68180095500065,302.68182585400064,None,,,,,,,,,,,,,,,,,,,21,001,0,,2024-04-13_10h06.23.029,replicate_nsd,2023.2.3,60.03926447827453,2024-04-13 10h06.36.508918 -0400,
images/image_217_seed_1.png,52,0,0,0,0,"[9, 19, 29, 39, 49, 59, 68, 69, 70, 71]",,,,,0,52,52,52,302.69511345499996,,,,,,,,,,,,,,,,,,,,,,,,,,,,,,,,,,,,,,,,,,,,,,,,302.6820836359984,302.6821534209994,302.6821619580005,302.69511345499996,302.69511345499996,303.6903797970008,303.6903797970008,306.69350855899756,306.69350855899756,306.69350855899756,306.69350855899756,306.6738872040005,None,0,None,306.67451535799773,306.67456003199914,None,306.6746768310004,306.6822887919989,None,306.6823829069981,306.682408577999,None,,,,,,,,,,,,,,,,,,,21,001,0,,2024-04-13_10h06.23.029,replicate_nsd,2023.2.3,60.03926447827453,2024-04-13 10h06.36.508918 -0400,
images/image_267_seed_1.png,53,0,0,0,0,"[9, 19, 29, 39, 49, 59, 68, 69, 70, 71]",,,,,0,53,53,53,306.69350855899756,,,,,,,,,,,,,,,,,,,,,,,,,,,,,,,,,,,,,,,,,,,,,,,,306.68266304699864,306.6827328369982,306.68274083600045,306.69350855899756,306.69350855899756,307.6902278239977,307.6902278239977,310.6941427130005,310.6941427130005,310.6941427130005,310.6941427130005,310.6738244349981,None,0,None,310.6743819410003,310.674426657999,None,310.6745443539985,310.68164999099827,None,310.6817437539976,310.681769281,None,,,,,,,,,,,,,,,,,,,21,001,0,,2024-04-13_10h06.23.029,replicate_nsd,2023.2.3,60.03926447827453,2024-04-13 10h06.36.508918 -0400,
images/image_624_seed_1.png,54,0,0,0,0,"[9, 19, 29, 39, 49, 59, 68, 69, 70, 71]",,,,,0,54,54,54,310.6941427130005,,,,,,,,,,,,,,,,,,,,,,,,,,,,,,,,,,,,,,,,,,,,,,,,310.682026339,310.6820949009998,310.682103111998,310.6941427130005,310.6941427130005,311.6903832629978,311.6903832629978,314.6951367199981,314.6951367199981,314.6951367199981,314.6951367199981,314.6741025810006,None,0,None,314.6745973830002,314.67464142599783,None,314.6747574059991,314.681859747001,None,314.6819545199978,314.6819798689976,None,,,,,,,,,,,,,,,,,,,21,001,0,,2024-04-13_10h06.23.029,replicate_nsd,2023.2.3,60.03926447827453,2024-04-13 10h06.36.508918 -0400,
images/image_274_seed_1.png,55,0,0,0,0,"[9, 19, 29, 39, 49, 59, 68, 69, 70, 71]",,,,,0,55,55,55,314.6951367199981,,,,,,,,,,,,,,,,,,,,,,,,,,,,,,,,,,,,,,,,,,,,,,,,314.682236042001,314.68230395499995,314.68231237799773,314.6951367199981,314.6951367199981,315.6903910389992,315.6903910389992,318.69225783100046,318.69225783100046,318.69225783100046,318.69225783100046,318.67336099399836,None,0,None,318.67375089599955,318.67378095800086,None,318.67385864300013,318.67935157399916,None,318.67945202199917,318.6794779720003,None,,,,,,,,,,,,,,,,,,,21,001,0,,2024-04-13_10h06.23.029,replicate_nsd,2023.2.3,60.03926447827453,2024-04-13 10h06.36.508918 -0400,
images/image_572_seed_1.png,56,0,0,0,0,"[9, 19, 29, 39, 49, 59, 68, 69, 70, 71]",,,,,0,56,56,56,318.69225783100046,,,,,,,,,,,,,,,,,,,,,,,,,,,,,,,,,,,,,,,,,,,,,,,,318.67974938800035,318.67983073199866,318.67983947500034,318.69225783100046,318.69225783100046,319.69032821200017,319.69032821200017,322.69554809799956,322.69554809799956,322.69554809799956,322.69554809799956,322.6738249609989,None,0,None,322.6743837360009,322.6744286639987,None,322.67454695500055,322.6818184779986,None,322.68191374199887,322.68193937199976,None,,,,,,,,,,,,,,,,,,,21,001,0,,2024-04-13_10h06.23.029,replicate_nsd,2023.2.3,60.03926447827453,2024-04-13 10h06.36.508918 -0400,
images/image_3_seed_1.png,57,0,0,0,0,"[9, 19, 29, 39, 49, 59, 68, 69, 70, 71]",,,,,0,57,57,57,322.69554809799956,,,,,,,,,,,,,,,,,,,,,,,,,,,,,,,,,,,,,,,,,,,,,,,,322.6821948430006,322.6822645639986,322.68227324799955,322.69554809799956,322.69554809799956,323.6903644829981,323.6903644829981,326.69483128700085,326.69483128700085,326.69483128700085,326.69483128700085,326.67383051700017,None,0,None,326.6743907380005,326.6744369449989,None,326.6745543959987,326.68189991599866,None,326.68199537799956,326.68202118299814,None,,,,,,,,,,,,,,,,,,,21,001,0,,2024-04-13_10h06.23.029,replicate_nsd,2023.2.3,60.03926447827453,2024-04-13 10h06.36.508918 -0400,
images/image_261_seed_1.png,58,0,0,0,0,"[9, 19, 29, 39, 49, 59, 68, 69, 70, 71]",,,,,0,58,58,58,326.69483128700085,,,,,,,,,,,,,,,,,,,,,,,,,,,,,,,,,,,,,,,,,,,,,,,,326.682276806001,326.682345964,326.68235437899784,326.69483128700085,326.69483128700085,327.6903263130007,327.6903263130007,330.68977246099894,330.68977246099894,330.68977246099894,330.68977246099894,330.673822697001,None,0,None,330.67438019399924,330.6744248299983,None,330.67454020199875,330.6816430229992,None,330.68173715599914,330.6817628360004,None,,,,,,,,,,,,,,,,,,,21,001,0,,2024-04-13_10h06.23.029,replicate_nsd,2023.2.3,60.03926447827453,2024-04-13 10h06.36.508918 -0400,
blank.jpg,59,1,0,0,0,"[9, 19, 29, 39, 49, 59, 68, 69, 70, 71]",,,,,0,59,59,59,330.68977246099894,,,,,,,,,,,,,,,,,,,,,,,,,,,,,,,,,,,,,,,,,,,,,,,,330.6820202359995,330.6820892049982,330.68209765699794,,,,,,,,,330.68411261800065,None,0,None,330.6843346729984,334.6764971619996,None,334.6767128399988,334.6841233489977,None,334.684219073999,334.68424445399796,None,,,,,330.68977246099894,330.68977246099894,334.6958451089995,334.6958451089995,,,,,,,,,,,21,001,0,,2024-04-13_10h06.23.029,replicate_nsd,2023.2.3,60.03926447827453,2024-04-13 10h06.36.508918 -0400,
images/image_371_seed_1.png,60,0,0,0,0,"[9, 19, 29, 39, 49, 59, 68, 69, 70, 71]",,,,,0,60,60,60,334.6958451089995,,,,,,,,,,,,,,,,,,,,,,,,,,,,,,,,,,,,,,,,,,,,,,,,334.68450256899814,334.68457265100005,334.6845811050007,334.6958451089995,334.6958451089995,335.6900519839983,335.6900519839983,338.6897118140005,338.6897118140005,338.6897118140005,338.6897118140005,338.67380540999875,None,0,None,338.67432221299896,338.6743676549995,None,338.67448486899957,338.67458740800066,None,338.6747061319984,338.6747427650007,None,,,,,,,,,,,,,,,,,,,21,001,0,,2024-04-13_10h06.23.029,replicate_nsd,2023.2.3,60.03926447827453,2024-04-13 10h06.36.508918 -0400,
images/image_514_seed_1.png,61,0,0,0,0,"[9, 19, 29, 39, 49, 59, 68, 69, 70, 71]",,,,,0,61,61,61,338.6897118140005,,,,,,,,,,,,,,,,,,,,,,,,,,,,,,,,,,,,,,,,,,,,,,,,338.6751196849982,338.6752241209979,338.6752369309979,338.6897118140005,338.6897118140005,339.68997288399987,339.68997288399987,342.69354123800076,342.69354123800076,342.69354123800076,342.69354123800076,342.6737479250005,None,0,None,342.6742641749988,342.6743093080004,None,342.67442466899956,342.6808224509987,None,342.6809168809996,342.680941917999,None,,,,,,,,,,,,,,,,,,,21,001,0,,2024-04-13_10h06.23.029,replicate_nsd,2023.2.3,60.03926447827453,2024-04-13 10h06.36.508918 -0400,
images/image_381_seed_1.png,62,0,0,0,0,"[9, 19, 29, 39, 49, 59, 68, 69, 70, 71]",,,,,0,62,62,62,342.69354123800076,,,,,,,,,,,,,,,,,,,,,,,,,,,,,,,,,,,,,,,,,,,,,,,,342.6811988490008,342.68126752699754,342.6812757859989,342.69354123800076,342.69354123800076,343.6902874829975,343.6902874829975,346.69591679699806,346.69591679699806,346.69591679699806,346.69591679699806,346.67365142799827,None,0,None,346.6742082109995,346.6742532169992,None,346.67437121699913,346.681788984999,None,346.681884474001,346.6819101309993,None,,,,,,,,,,,,,,,,,,,21,001,0,,2024-04-13_10h06.23.029,replicate_nsd,2023.2.3,60.03926447827453,2024-04-13 10h06.36.508918 -0400,
images/image_76_seed_1.png,63,0,0,0,0,"[9, 19, 29, 39, 49, 59, 68, 69, 70, 71]",,,,,0,63,63,63,346.69591679699806,,,,,,,,,,,,,,,,,,,,,,,,,,,,,,,,,,,,,,,,,,,,,,,,346.68216872599805,346.68223808499897,346.6822464750003,346.69591679699806,346.69591679699806,347.69020002400066,347.69020002400066,350.69518252499984,350.69518252499984,350.69518252499984,350.69518252499984,350.6765494209976,None,0,None,350.6770697510001,350.6771153419977,None,350.6772324730009,350.6844921160009,None,350.68458667699815,350.6846119449983,None,,,,,,,,,,,,,,,,,,,21,001,0,,2024-04-13_10h06.23.029,replicate_nsd,2023.2.3,60.03926447827453,2024-04-13 10h06.36.508918 -0400,
images/image_633_seed_1.png,64,0,0,0,0,"[9, 19, 29, 39, 49, 59, 68, 69, 70, 71]",,,,,0,64,64,64,350.69518252499984,,,,,,,,,,,,,,,,,,,,,,,,,,,,,,,,,,,,,,,,,,,,,,,,350.68486938099886,350.68494004999957,350.6849485439998,350.69518252499984,350.69518252499984,351.69030460499926,351.69030460499926,354.6936122929983,354.6936122929983,354.6936122929983,354.6936122929983,354.6731240199988,None,0,None,354.6736433219994,354.6736884919992,None,354.6738059659983,354.6810713390005,None,354.6811673379998,354.6811930969998,None,,,,,,,,,,,,,,,,,,,21,001,0,,2024-04-13_10h06.23.029,replicate_nsd,2023.2.3,60.03926447827453,2024-04-13 10h06.36.508918 -0400,
images/image_383_seed_1.png,65,0,0,0,0,"[9, 19, 29, 39, 49, 59, 68, 69, 70, 71]",,,,,0,65,65,65,354.6936122929983,,,,,,,,,,,,,,,,,,,,,,,,,,,,,,,,,,,,,,,,,,,,,,,,354.6814518829997,354.68152122099855,354.6815297180001,354.6936122929983,354.6936122929983,355.69029842500095,355.69029842500095,358.6945560029999,358.6945560029999,358.6945560029999,358.6945560029999,358.6732617689995,None,0,None,358.67366593599945,358.67370080899855,None,358.67379363799773,358.6799803799986,None,358.68007582099744,358.68010069799857,None,,,,,,,,,,,,,,,,,,,21,001,0,,2024-04-13_10h06.23.029,replicate_nsd,2023.2.3,60.03926447827453,2024-04-13 10h06.36.508918 -0400,
images/image_698_seed_1.png,66,0,0,0,0,"[9, 19, 29, 39, 49, 59, 68, 69, 70, 71]",,,,,0,66,66,66,358.6945560029999,,,,,,,,,,,,,,,,,,,,,,,,,,,,,,,,,,,,,,,,,,,,,,,,358.6803584240006,358.68042704899926,358.6804354079977,358.6945560029999,358.6945560029999,359.69030898399797,359.69030898399797,362.6940300690003,362.6940300690003,362.6940300690003,362.6940300690003,362.673896485001,None,0,None,362.6745272299995,362.6745713599994,None,362.6746876260004,362.68233025099835,None,362.6824254739986,362.6824510000006,None,,,,,,,,,,,,,,,,,,,21,001,0,,2024-04-13_10h06.23.029,replicate_nsd,2023.2.3,60.03926447827453,2024-04-13 10h06.36.508918 -0400,
images/image_589_seed_1.png,67,0,0,0,0,"[9, 19, 29, 39, 49, 59, 68, 69, 70, 71]",,,,,0,67,67,67,362.6940300690003,,,,,,,,,,,,,,,,,,,,,,,,,,,,,,,,,,,,,,,,,,,,,,,,362.68270901399956,362.68278114299756,362.6827894829985,362.6940300690003,362.6940300690003,363.69023634399855,363.69023634399855,366.69068364600025,366.69068364600025,366.69068364600025,366.69068364600025,366.6739030669996,None,0,None,366.6745665169983,366.6746102959987,None,366.6747259629992,366.68215972100006,None,366.6822542410009,366.682279714998,None,,,,,,,,,,,,,,,,,,,21,001,0,,2024-04-13_10h06.23.029,replicate_nsd,2023.2.3,60.03926447827453,2024-04-13 10h06.36.508918 -0400,
blank.jpg,68,1,0,0,0,"[9, 19, 29, 39, 49, 59, 68, 69, 70, 71]",,,,,0,68,68,68,366.69068364600025,,,,,,,,,,,,,,,,,,,,,,,,,,,,,,,,,,,,,,,,,,,,,,,,366.6825338380004,366.68260285299766,366.68261146499935,,,,,,,,,366.6851417229991,None,0,None,366.68541995899795,370.673704689998,None,370.67392384900086,370.68158817699805,None,370.6816868249989,370.6817131600001,None,,,,,366.69068364600025,366.69068364600025,370.6907062319988,370.6907062319988,,,,,,,,,,,21,001,0,,2024-04-13_10h06.23.029,replicate_nsd,2023.2.3,60.03926447827453,2024-04-13 10h06.36.508918 -0400,
blank.jpg,69,1,0,0,0,"[9, 19, 29, 39, 49, 59, 68, 69, 70, 71]",,,,,0,69,69,69,370.6907062319988,,,,,,,,,,,,,,,,,,,,,,,,,,,,,,,,,,,,,,,,,,,,,,,,370.68198043899974,370.6820526289994,370.6820612499978,,,,,,,,,370.6845462079982,None,0,None,370.6851131939984,374.67366766600026,None,374.67388434500026,374.6740110549981,None,374.6741480189994,374.6741858050009,None,,,,,370.6907062319988,370.6907062319988,374.69024443799935,374.69024443799935,,,,,,,,,,,21,001,0,,2024-04-13_10h06.23.029,replicate_nsd,2023.2.3,60.03926447827453,2024-04-13 10h06.36.508918 -0400,
blank.jpg,70,1,0,0,0,"[9, 19, 29, 39, 49, 59, 68, 69, 70, 71]",,,,,0,70,70,70,374.69024443799935,,,,,,,,,,,,,,,,,,,,,,,,,,,,,,,,,,,,,,,,,,,,,,,,374.6745871870007,374.674692433,374.6747053149993,,,,,,,,,374.67768127199815,None,0,None,374.67817547899904,378.67386580499806,None,378.6741909179982,378.67433416600034,None,378.6744712430009,378.67450979599744,None,,,,,374.69024443799935,374.69024443799935,378.6902643209978,378.6902643209978,,,,,,,,,,,21,001,0,,2024-04-13_10h06.23.029,replicate_nsd,2023.2.3,60.03926447827453,2024-04-13 10h06.36.508918 -0400,
blank.jpg,71,1,0,1,0,"[9, 19, 29, 39, 49, 59, 68, 69, 70, 71]",,,,,0,71,71,71,378.6902643209978,,,,,,,,,,,,,,,,,,,,,,,,,,,,,,,,,,,,,,,,,,,,,,,,378.6749096249987,378.67501464999805,378.6750273079997,,,,,,,,,378.6779990629984,None,0,None,378.67848571599825,382.6737224999997,None,382.673939297998,1230.455961396001,2,1230.4567672269986,1232.6371704890007,equal,,,,,378.6902643209978,378.6902643209978,382.69019225599914,382.69019225599914,,,382.69019225599914,382.69019225599914,847.7503457239982,None,1230.4705977859994,1230.4705977859994,2.1584530610016373,None,21,001,0,,2024-04-13_10h06.23.029,replicate_nsd,2023.2.3,60.03926447827453,2024-04-13 10h06.36.508918 -0400,
,,,,,,,,,,,,,,,1232.654213370999,,,,,,,,,,,,,,,,,,,,,,,,,,,,,,,,,,,,,,,,,,,,,,,,1232.6381850969992,1232.6382626999984,1232.6382712919985,1232.654213370999,1232.654213370999,1233.6542284819989,1233.6542284819989,,,,,,,,,,,,,,,,,,,,,,,,,,,,,,,,,,,,,,,,,,,,,
