current_image,trial_index,is_blank_trial,is_repeat,is_new_run,run_num,all_blanks_list,practice.thisRepN,practice.thisTrialN,practice.thisN,practice.thisIndex,loop_all_images.thisRepN,loop_all_images.thisTrialN,loop_all_images.thisN,loop_all_images.thisIndex,thisRow.t,notes,set_up.started,set_up.stopped,practice_continue.started,key_resp_6.started,text_6.started,practice_continue.stopped,key_resp_6.keys,key_resp_6.rt,key_resp_6.duration,set_skips_and_correct_key_2.started,set_skips_and_correct_key_2.stopped,practice_trial.started,polygon_3.started,all_keys_pressed_2.started,image_2.started,press_if_repeat_2.started,image_2.stopped,press_if_repeat_2.stopped,polygon_3.stopped,all_keys_pressed_2.stopped,practice_trial.stopped,press_if_repeat_2.keys,press_if_repeat_2.corr,press_if_repeat_2.rt,press_if_repeat_2.duration,all_keys_pressed_2.keys,blank_trial_2.started,blank_trial_2.stopped,all_keys_pressed_2.rt,all_keys_pressed_2.duration,polygon_4.started,polygon_4.stopped,testing_continue.started,key_resp_7.started,text_7.started,testing_continue.stopped,key_resp_7.keys,key_resp_7.rt,key_resp_7.duration,waiting_fmri.started,key_resp_2.started,text_3.started,waiting_fmri.stopped,key_resp_2.keys,key_resp_2.rt,key_resp_2.duration,set_skips_and_correct_key.started,set_skips_and_correct_key.stopped,trial.started,trial.stopped,press_if_repeat.keys,press_if_repeat.corr,all_keys_pressed.keys,blank_trial.started,blank_trial.stopped,blank_trial_testing_keys.keys,run_wait2_2.started,run_wait2_2.stopped,key_resp_5.keys,waiting_fmri_2.started,waiting_fmri_2.stopped,key_resp_4.keys,polygon.started,all_keys_pressed.started,image.started,press_if_repeat.started,image.stopped,press_if_repeat.stopped,polygon.stopped,all_keys_pressed.stopped,press_if_repeat.rt,press_if_repeat.duration,all_keys_pressed.rt,all_keys_pressed.duration,blank_trial_testing_keys.started,polygon_2.started,blank_trial_testing_keys.stopped,polygon_2.stopped,blank_trial_testing_keys.rt,blank_trial_testing_keys.duration,participant,session,starting_run,,date,expName,psychopyVersion,frameRate,expStart,
,,,,,,,,,,,,,,,,,0.02455111400001897,0.02486499199994796,0.02489858399997047,0.044903713999929096,0.044903713999929096,0.5947093720000112,1,0.5452738110000155,None,,,,,,,,,,,,,,,,,,,,,,,,,,,,,,,,,,,,,,,,,,,,,,,,,,,,,,,,,,,,,,,,,,,,,,,,24,001,15,,2024-04-15_09h11.16.779,replicate_nsd,2023.2.3,60.88311716393717,2024-04-15 09h11.29.092305 -0400,
practice_images/paired_image_4_2.png,0,0,,,,,0,0,0,0,,,,,0.6730888060000098,,,,,,,,,,,0.6203505439999617,0.6204211479999913,0.6204304560000082,0.6730888060000098,0.6730888060000098,1.6613829859999214,1.6613829859999214,4.6608819979999225,4.6608819979999225,4.6608819979999225,4.6608819979999225,4.645184342999983,1,0,2.95016006000003,None,None,4.647904525999934,4.647967777999952,,,,,,,,,,,,,,,,,,,,,,,,,,,,,,,,,,,,,,,,,,,,,,,,,,,,,24,001,15,,2024-04-15_09h11.16.779,replicate_nsd,2023.2.3,60.88311716393717,2024-04-15 09h11.29.092305 -0400,
practice_images/paired_image_20_2.png,1,0,,,,,0,1,1,1,,,,,4.6608819979999225,,,,,,,,,,,4.64828692399999,4.648362206000002,4.648371521999934,4.6608819979999225,4.6608819979999225,5.661732132999987,5.661732132999987,8.661058433999983,8.661058433999983,8.661058433999983,8.661058433999983,8.644896689000007,None,0,,,"['1', '1', '1']",8.64562652099994,8.645663334000005,"[0.14115512500006844, 0.3243298649999815, 0.5073550750000777]","[None, None, None]",,,,,,,,,,,,,,,,,,,,,,,,,,,,,,,,,,,,,,,,,,,,,,,,,,,24,001,15,,2024-04-15_09h11.16.779,replicate_nsd,2023.2.3,60.88311716393717,2024-04-15 09h11.29.092305 -0400,
practice_images/paired_image_18_1.png,2,0,,,,,0,2,2,2,,,,,8.661058433999983,,,,,,,,,,,8.645891226999993,8.645952308999995,8.64596170599998,8.661058433999983,8.661058433999983,9.66144412199992,9.66144412199992,12.661027326999942,12.661027326999942,12.661027326999942,12.661027326999942,12.645229627999925,None,0,,,None,12.645647102999988,12.645689377999929,,,,,,,,,,,,,,,,,,,,,,,,,,,,,,,,,,,,,,,,,,,,,,,,,,,,,24,001,15,,2024-04-15_09h11.16.779,replicate_nsd,2023.2.3,60.88311716393717,2024-04-15 09h11.29.092305 -0400,
practice_images/paired_image_36_1.png,3,0,,,,,0,3,3,3,,,,,12.661027326999942,,,,,,,,,,,12.645965142000023,12.646040999999968,12.646052632999954,12.661027326999942,12.661027326999942,13.661817314000018,13.661817314000018,16.660937578000016,16.660937578000016,16.660937578000016,16.660937578000016,16.645465865999995,None,0,,,None,16.646000517999937,16.646042052999974,,,,,,,,,,,,,,,,,,,,,,,,,,,,,,,,,,,,,,,,,,,,,,,,,,,,,24,001,15,,2024-04-15_09h11.16.779,replicate_nsd,2023.2.3,60.88311716393717,2024-04-15 09h11.29.092305 -0400,
practice_images/paired_image_30_1.png,4,0,,,,,0,4,4,4,,,,,16.660937578000016,,,,,,,,,,,16.64631801500002,16.646393706000026,16.646405532000017,16.660937578000016,16.660937578000016,17.660852785999964,17.660852785999964,20.660809297000014,20.660809297000014,20.660809297000014,20.660809297000014,20.646622234999995,None,0,,,None,20.646835323000005,20.646855157999994,,,,,,,,,,,,,,,,,,,,,,,,,,,,,,,,,,,,,,,,,,,,,,,,,,,,,24,001,15,,2024-04-15_09h11.16.779,replicate_nsd,2023.2.3,60.88311716393717,2024-04-15 09h11.29.092305 -0400,
practice_images/paired_image_2_1.png,5,0,,,,,0,5,5,5,,,,,20.660809297000014,,,,,,,,,,,20.64699025799996,20.647026229999938,20.647031663999996,20.660809297000014,20.660809297000014,21.661875316999954,21.661875316999954,24.661095176000003,24.661095176000003,24.661095176000003,24.661095176000003,24.646860315000026,None,0,,,None,24.64706327199997,24.647083473999942,,,,,,,,,,,,,,,,,,,,,,,,,,,,,,,,,,,,,,,,,,,,,,,,,,,,,24,001,15,,2024-04-15_09h11.16.779,replicate_nsd,2023.2.3,60.88311716393717,2024-04-15 09h11.29.092305 -0400,
practice_images/paired_image_15_1.png,6,0,,,,,0,6,6,6,,,,,24.661095176000003,,,,,,,,,,,24.647212861999947,24.647247669999956,24.647252964000018,24.661095176000003,24.661095176000003,25.661769832999994,25.661769832999994,28.66086384999994,28.66086384999994,28.66086384999994,28.66086384999994,28.645622746999948,None,0,,,None,28.64604189900001,28.646083266000005,,,,,,,,,,,,,,,,,,,,,,,,,,,,,,,,,,,,,,,,,,,,,,,,,,,,,24,001,15,,2024-04-15_09h11.16.779,replicate_nsd,2023.2.3,60.88311716393717,2024-04-15 09h11.29.092305 -0400,
practice_images/paired_image_36_2.png,7,0,,,,,0,7,7,7,,,,,28.66086384999994,,,,,,,,,,,28.646359141999937,28.646435845999918,28.646447483999964,28.66086384999994,28.66086384999994,29.66173268,29.66173268,32.66166425899996,32.66166425899996,32.66166425899996,32.66166425899996,32.645270366999966,None,0,,,None,32.645692586999985,32.64573493,,,,,,,,,,,,,,,,,,,,,,,,,,,,,,,,,,,,,,,,,,,,,,,,,,,,,24,001,15,,2024-04-15_09h11.16.779,replicate_nsd,2023.2.3,60.88311716393717,2024-04-15 09h11.29.092305 -0400,
practice_images/paired_image_24_1.png,8,0,,,,,0,8,8,8,,,,,32.66166425899996,,,,,,,,,,,32.64600962399993,32.64608656199994,32.646098368000025,32.66166425899996,32.66166425899996,33.661809106999954,33.661809106999954,36.660907123000015,36.660907123000015,36.660907123000015,36.660907123000015,36.64522798099995,None,0,,,None,36.645647336000025,36.645688528999926,,,,,,,,,,,,,,,,,,,,,,,,,,,,,,,,,,,,,,,,,,,,,,,,,,,,,24,001,15,,2024-04-15_09h11.16.779,replicate_nsd,2023.2.3,60.88311716393717,2024-04-15 09h11.29.092305 -0400,
practice_images/paired_image_12_1.png,9,0,,,,,0,9,9,9,,,,,36.660907123000015,,,,,,,,,,,36.64596254200001,36.64603775399996,36.646049447999985,36.660907123000015,36.660907123000015,37.66131872799997,37.66131872799997,40.66504950000001,40.66504950000001,40.66504950000001,40.66504950000001,40.64507390599999,None,0,,,None,40.64549182799999,40.64553451500001,,,,,,,,,,,,,,,,,,,,,,,,,,,,,,,,,,,,,,,,,,,,,,,,,,,,,24,001,15,,2024-04-15_09h11.16.779,replicate_nsd,2023.2.3,60.88311716393717,2024-04-15 09h11.29.092305 -0400,
blank.jpg,10,1,,,,,0,10,10,10,,,,,40.66504950000001,,,,,,,,,,,40.64580746799993,40.64588410099998,40.64589554299994,,,,,,,,,40.65937507499996,None,0,,,None,40.65968975599992,44.695322777,,,40.66504950000001,44.71079807299998,,,,,,,,,,,,,,,,,,,,,,,,,,,,,,,,,,,,,,,,,,,,,,,,,24,001,15,,2024-04-15_09h11.16.779,replicate_nsd,2023.2.3,60.88311716393717,2024-04-15 09h11.29.092305 -0400,
practice_images/paired_image_28_1.png,11,0,,,,,0,11,11,11,,,,,44.71079807299998,,,,,,,,,,,44.69570608499998,44.695781881000016,44.695798518999936,44.71079807299998,44.71079807299998,45.71177028499994,45.71177028499994,48.711012413999924,48.711012413999924,48.711012413999924,48.711012413999924,48.69516166899996,None,0,,,None,48.69558081699995,48.695622784999955,,,,,,,,,,,,,,,,,,,,,,,,,,,,,,,,,,,,,,,,,,,,,,,,,,,,,24,001,15,,2024-04-15_09h11.16.779,replicate_nsd,2023.2.3,60.88311716393717,2024-04-15 09h11.29.092305 -0400,
practice_images/paired_image_33_1.png,12,0,,,,,0,12,12,12,,,,,48.711012413999924,,,,,,,,,,,48.69589707900002,48.69597348399998,48.69598561299995,48.711012413999924,48.711012413999924,49.711476586,49.711476586,52.71196179599997,52.71196179599997,52.71196179599997,52.71196179599997,52.695264932999976,None,0,,,None,52.695685646000015,52.695727149999925,,,,,,,,,,,,,,,,,,,,,,,,,,,,,,,,,,,,,,,,,,,,,,,,,,,,,24,001,15,,2024-04-15_09h11.16.779,replicate_nsd,2023.2.3,60.88311716393717,2024-04-15 09h11.29.092305 -0400,
practice_images/paired_image_29_1.png,13,0,,,,,0,13,13,13,,,,,52.71196179599997,,,,,,,,,,,52.69600749099993,52.696083845999965,52.69609594099995,52.71196179599997,52.71196179599997,53.71184399200001,53.71184399200001,56.710882623999964,56.710882623999964,56.710882623999964,56.710882623999964,56.69485626099993,None,0,,,None,56.69527756699995,56.69531979299995,,,,,,,,,,,,,,,,,,,,,,,,,,,,,,,,,,,,,,,,,,,,,,,,,,,,,24,001,15,,2024-04-15_09h11.16.779,replicate_nsd,2023.2.3,60.88311716393717,2024-04-15 09h11.29.092305 -0400,
practice_images/paired_image_21_2.png,14,0,,,,,0,14,14,14,,,,,56.710882623999964,,,,,,,,,,,56.69559790300002,56.69567416699999,56.69568592399992,56.710882623999964,56.710882623999964,57.711677794000025,57.711677794000025,60.710990221999964,60.710990221999964,60.710990221999964,60.710990221999964,60.69517160299995,None,0,,,None,60.69558713399999,60.69562858799998,,,,,,,,,,,,,,,,,,,,,,,,,,,,,,,,,,,,,,,,,,,,,,,,,,,,,24,001,15,,2024-04-15_09h11.16.779,replicate_nsd,2023.2.3,60.88311716393717,2024-04-15 09h11.29.092305 -0400,
practice_images/paired_image_22_2.png,15,0,,,,,0,15,15,15,,,,,60.710990221999964,,,,,,,,,,,60.695905126999946,60.69598157500002,60.69599314300001,60.710990221999964,60.710990221999964,61.711823279999976,61.711823279999976,64.71088165799995,64.71088165799995,64.71088165799995,64.71088165799995,64.695382601,None,0,,,None,64.69580312599999,64.69584471999997,,,,,,,,,,,,,,,,,,,,,,,,,,,,,,,,,,,,,,,,,,,,,,,,,,,,,24,001,15,,2024-04-15_09h11.16.779,replicate_nsd,2023.2.3,60.88311716393717,2024-04-15 09h11.29.092305 -0400,
practice_images/paired_image_19_1.png,16,0,,,,,0,16,16,16,,,,,64.71088165799995,,,,,,,,,,,64.69612376499992,64.696199149,64.69621097899994,64.71088165799995,64.71088165799995,65.71158992200003,65.71158992200003,68.71157618400002,68.71157618400002,68.71157618400002,68.71157618400002,68.69534331299997,None,0,,,None,68.695763973,68.69580643199993,,,,,,,,,,,,,,,,,,,,,,,,,,,,,,,,,,,,,,,,,,,,,,,,,,,,,24,001,15,,2024-04-15_09h11.16.779,replicate_nsd,2023.2.3,60.88311716393717,2024-04-15 09h11.29.092305 -0400,
practice_images/paired_image_25_2.png,17,0,,,,,0,17,17,17,,,,,68.71157618400002,,,,,,,,,,,68.69607927999994,68.69615555999997,68.69616749299996,68.71157618400002,68.71157618400002,69.71171287200002,69.71171287200002,72.711067931,72.711067931,72.711067931,72.711067931,72.69535556300002,None,0,,,None,72.69577869099999,72.69582113599995,,,,,,,,,,,,,,,,,,,,,,,,,,,,,,,,,,,,,,,,,,,,,,,,,,,,,24,001,15,,2024-04-15_09h11.16.779,replicate_nsd,2023.2.3,60.88311716393717,2024-04-15 09h11.29.092305 -0400,
practice_images/paired_image_27_1.png,18,0,,,,,0,18,18,18,,,,,72.711067931,,,,,,,,,,,72.69609821999995,72.69617370799995,72.69618502399999,72.711067931,72.711067931,73.71183449199998,73.71183449199998,76.71078703799992,76.71078703799992,76.71078703799992,76.71078703799992,76.69634880499996,None,0,,,None,76.69676725699992,76.69680843200001,,,,,,,,,,,,,,,,,,,,,,,,,,,,,,,,,,,,,,,,,,,,,,,,,,,,,24,001,15,,2024-04-15_09h11.16.779,replicate_nsd,2023.2.3,60.88311716393717,2024-04-15 09h11.29.092305 -0400,
practice_images/paired_image_6_2.png,19,0,,,,,0,19,19,19,,,,,76.71078703799992,,,,,,,,,,,76.69708409600003,76.69715984599998,76.69717155499995,76.71078703799992,76.71078703799992,77.71146124199993,77.71146124199993,80.71020482899996,80.71020482899996,80.71020482899996,80.71020482899996,80.69672305999995,None,0,,,None,80.69693957999993,80.69695927099997,,,,,,,,,,,,,,,,,,,,,,,,,,,,,,,,,,,,,,,,,,,,,,,,,,,,,24,001,15,,2024-04-15_09h11.16.779,replicate_nsd,2023.2.3,60.88311716393717,2024-04-15 09h11.29.092305 -0400,
,,,,,,,,,,,,,,,,,,,,,,,,,,,,,,,,,,,,,,,,,,,,,,,,,80.69699107999998,80.71020482899996,80.71020482899996,89.361806881,3,8.641750792000039,None,,,,,,,,,,,,,,,,,,,,,,,,,,,,,,,,,,,,,,,,,,24,001,15,,2024-04-15_09h11.16.779,replicate_nsd,2023.2.3,60.88311716393717,2024-04-15 09h11.29.092305 -0400,
,,,,,,,,,,,,,,,,,,,,,,,,,,,,,,,,,,,,,,,,,,,,,,,,,,,,,,,,89.361832241,89.38023656999997,89.38023656999997,91.39543085399998,equal,2.0002448349999895,None,,,,,,,,,,,,,,,,,,,,,,,,,,,,,,,,,,,24,001,15,,2024-04-15_09h11.16.779,replicate_nsd,2023.2.3,60.88311716393717,2024-04-15 09h11.29.092305 -0400,
images/image_630_seed_1.png,0,0,0,0,0,"[9, 19, 29, 39, 49, 59, 68, 69, 70, 71]",,,,,0,0,0,0,96.95304703499994,,,,,,,,,,,,,,,,,,,,,,,,,,,,,,,,,,,,,,,,,,,,,,,,91.48238492600001,91.48248324299993,91.48249102599993,91.49385111599997,None,0,None,91.49536428099998,91.49540263099993,None,91.49597996800003,91.49603062699998,None,91.496599403,91.496636093,None,,,,,,,,,,,,,,,,,,,24,001,15,,2024-04-15_09h11.16.779,replicate_nsd,2023.2.3,60.88311716393717,2024-04-15 09h11.29.092305 -0400,
images/image_318_seed_1.png,1,0,0,0,0,"[9, 19, 29, 39, 49, 59, 68, 69, 70, 71]",,,,,0,1,1,1,96.95304703499994,,,,,,,,,,,,,,,,,,,,,,,,,,,,,,,,,,,,,,,,,,,,,,,,91.49738366500003,91.49747188399999,91.49748066099994,91.50355366199994,None,0,None,91.50377867299994,91.50380728200003,None,91.50386989200001,91.50390704300003,None,91.50396942700002,91.50399376299993,None,,,,,,,,,,,,,,,,,,,24,001,15,,2024-04-15_09h11.16.779,replicate_nsd,2023.2.3,60.88311716393717,2024-04-15 09h11.29.092305 -0400,
images/image_347_seed_1.png,2,0,0,0,0,"[9, 19, 29, 39, 49, 59, 68, 69, 70, 71]",,,,,0,2,2,2,96.95304703499994,,,,,,,,,,,,,,,,,,,,,,,,,,,,,,,,,,,,,,,,,,,,,,,,91.50420948499993,91.50428971600002,91.50429692299997,91.51019256199993,None,0,None,91.51041668300002,91.510445162,None,91.51050779100001,91.51054326299993,None,91.51060560399992,91.51062963100003,None,,,,,,,,,,,,,,,,,,,24,001,15,,2024-04-15_09h11.16.779,replicate_nsd,2023.2.3,60.88311716393717,2024-04-15 09h11.29.092305 -0400,
images/image_387_seed_1.png,3,0,0,0,0,"[9, 19, 29, 39, 49, 59, 68, 69, 70, 71]",,,,,0,3,3,3,96.95304703499994,,,,,,,,,,,,,,,,,,,,,,,,,,,,,,,,,,,,,,,,,,,,,,,,91.51084536799999,91.51091935099998,91.51092635600003,91.51620720099993,None,0,None,91.51652656199997,91.516568807,None,91.51665987499996,91.51671174499995,None,91.51680353500001,91.51683916299999,None,,,,,,,,,,,,,,,,,,,24,001,15,,2024-04-15_09h11.16.779,replicate_nsd,2023.2.3,60.88311716393717,2024-04-15 09h11.29.092305 -0400,
images/image_255_seed_1.png,4,0,0,0,0,"[9, 19, 29, 39, 49, 59, 68, 69, 70, 71]",,,,,0,4,4,4,96.95304703499994,,,,,,,,,,,,,,,,,,,,,,,,,,,,,,,,,,,,,,,,,,,,,,,,91.51714736199995,91.51724815499995,91.51725864299999,91.52475085399999,None,0,None,91.52500288599992,91.525035237,None,91.52510631799998,91.52514751000001,None,91.52521910500002,91.525246305,None,,,,,,,,,,,,,,,,,,,24,001,15,,2024-04-15_09h11.16.779,replicate_nsd,2023.2.3,60.88311716393717,2024-04-15 09h11.29.092305 -0400,
images/image_318_seed_1.png,5,0,1,0,0,"[9, 19, 29, 39, 49, 59, 68, 69, 70, 71]",,,,,0,5,5,5,96.95304703499994,,,,,,,,,,,,,,,,,,,,,,,,,,,,,,,,,,,,,,,,,,,,,,,,91.52549148999992,91.525572883,91.52558115599993,91.53013674599993,None,0,None,91.530427745,91.53046924599994,None,91.53056095699992,91.53060986999992,None,91.53069999599995,91.53073498599997,None,,,,,,,,,,,,,,,,,,,24,001,15,,2024-04-15_09h11.16.779,replicate_nsd,2023.2.3,60.88311716393717,2024-04-15 09h11.29.092305 -0400,
images/image_319_seed_1.png,6,0,0,0,0,"[9, 19, 29, 39, 49, 59, 68, 69, 70, 71]",,,,,0,6,6,6,96.95304703499994,,,,,,,,,,,,,,,,,,,,,,,,,,,,,,,,,,,,,,,,,,,,,,,,91.53103159099999,91.53112305100001,91.53113312099993,91.53885822699999,None,0,None,91.53912126499995,91.53915549700002,None,91.53922891399998,91.53927154799999,None,91.53934567199997,91.53937400299992,None,,,,,,,,,,,,,,,,,,,24,001,15,,2024-04-15_09h11.16.779,replicate_nsd,2023.2.3,60.88311716393717,2024-04-15 09h11.29.092305 -0400,
images/image_254_seed_1.png,7,0,0,0,0,"[9, 19, 29, 39, 49, 59, 68, 69, 70, 71]",,,,,0,7,7,7,96.95304703499994,,,,,,,,,,,,,,,,,,,,,,,,,,,,,,,,,,,,,,,,,,,,,,,,91.53962588399997,91.53971004499999,91.53971851400001,91.54560901499997,None,0,None,91.54586876500002,91.54590217999998,None,91.54597491699997,91.54601647200002,None,91.54608975899998,91.546118364,None,,,,,,,,,,,,,,,,,,,24,001,15,,2024-04-15_09h11.16.779,replicate_nsd,2023.2.3,60.88311716393717,2024-04-15 09h11.29.092305 -0400,
images/image_728_seed_1.png,8,0,0,0,0,"[9, 19, 29, 39, 49, 59, 68, 69, 70, 71]",,,,,0,8,8,8,96.95304703499994,,,,,,,,,,,,,,,,,,,,,,,,,,,,,,,,,,,,,,,,,,,,,,,,91.54636785699995,91.54645426799993,91.54646249999996,91.55217310799992,None,0,None,91.55240256599996,91.55243190700003,None,91.55249470799993,91.55253223199998,None,91.55259563599998,91.552620327,None,,,,,,,,,,,,,,,,,,,24,001,15,,2024-04-15_09h11.16.779,replicate_nsd,2023.2.3,60.88311716393717,2024-04-15 09h11.29.092305 -0400,
blank.jpg,9,1,0,0,0,"[9, 19, 29, 39, 49, 59, 68, 69, 70, 71]",,,,,0,9,9,9,96.95304703499994,,,,,,,,,,,,,,,,,,,,,,,,,,,,,,,,,,,,,,,,,,,,,,,,91.552835459,91.55291473299997,91.55292244600003,91.55549941799995,None,0,None,91.55570192699997,91.55572998399998,None,91.55579294899997,91.55582792799999,None,91.55589757199994,91.55592209299994,None,,,,,,,,,,,,,,,,,,,24,001,15,,2024-04-15_09h11.16.779,replicate_nsd,2023.2.3,60.88311716393717,2024-04-15 09h11.29.092305 -0400,
images/image_689_seed_1.png,10,0,0,0,0,"[9, 19, 29, 39, 49, 59, 68, 69, 70, 71]",,,,,0,10,10,10,96.95304703499994,,,,,,,,,,,,,,,,,,,,,,,,,,,,,,,,,,,,,,,,,,,,,,,,91.55613035199997,91.55619771099998,91.55620491599996,91.56187396899998,None,0,None,91.56210371899999,91.56213279899998,None,91.56219538699997,91.56223299199996,None,91.56229648299995,91.56232078899995,None,,,,,,,,,,,,,,,,,,,24,001,15,,2024-04-15_09h11.16.779,replicate_nsd,2023.2.3,60.88311716393717,2024-04-15 09h11.29.092305 -0400,
images/image_445_seed_1.png,11,0,0,0,0,"[9, 19, 29, 39, 49, 59, 68, 69, 70, 71]",,,,,0,11,11,11,96.95304703499994,,,,,,,,,,,,,,,,,,,,,,,,,,,,,,,,,,,,,,,,,,,,,,,,91.56253769399996,91.56261186500001,91.56261890799999,91.56821316699995,None,0,None,91.56843902699995,91.56846705999999,None,91.56853002599996,91.56856690999996,None,91.56862953699999,91.56865392999998,None,,,,,,,,,,,,,,,,,,,24,001,15,,2024-04-15_09h11.16.779,replicate_nsd,2023.2.3,60.88311716393717,2024-04-15 09h11.29.092305 -0400,
images/image_138_seed_1.png,12,0,0,0,0,"[9, 19, 29, 39, 49, 59, 68, 69, 70, 71]",,,,,0,12,12,12,96.95304703499994,,,,,,,,,,,,,,,,,,,,,,,,,,,,,,,,,,,,,,,,,,,,,,,,91.56887988799997,91.56895240199992,91.56895961099997,91.57421397600001,None,0,None,91.574443922,91.574474097,None,91.57453732700003,91.574574557,None,91.57463768599996,91.57466208099993,None,,,,,,,,,,,,,,,,,,,24,001,15,,2024-04-15_09h11.16.779,replicate_nsd,2023.2.3,60.88311716393717,2024-04-15 09h11.29.092305 -0400,
images/image_561_seed_1.png,13,0,0,0,0,"[9, 19, 29, 39, 49, 59, 68, 69, 70, 71]",,,,,0,13,13,13,96.95304703499994,,,,,,,,,,,,,,,,,,,,,,,,,,,,,,,,,,,,,,,,,,,,,,,,91.57488906799995,91.57496380499992,91.57497115399997,91.58028355499994,None,0,None,91.58051501900002,91.58054461699999,None,91.58060731499995,91.580645108,None,91.58070845399993,91.58073350799998,None,,,,,,,,,,,,,,,,,,,24,001,15,,2024-04-15_09h11.16.779,replicate_nsd,2023.2.3,60.88311716393717,2024-04-15 09h11.29.092305 -0400,
images/image_607_seed_1.png,14,0,0,0,0,"[9, 19, 29, 39, 49, 59, 68, 69, 70, 71]",,,,,0,14,14,14,96.95304703499994,,,,,,,,,,,,,,,,,,,,,,,,,,,,,,,,,,,,,,,,,,,,,,,,91.580961022,91.58103672200002,91.58104391699999,91.58576043699998,None,0,None,91.58595731699995,91.58598571999994,None,91.58604869999999,91.58608336600003,None,91.58614563699996,91.58617612699993,None,,,,,,,,,,,,,,,,,,,24,001,15,,2024-04-15_09h11.16.779,replicate_nsd,2023.2.3,60.88311716393717,2024-04-15 09h11.29.092305 -0400,
images/image_137_seed_1.png,15,0,0,0,0,"[9, 19, 29, 39, 49, 59, 68, 69, 70, 71]",,,,,0,15,15,15,96.95304703499994,,,,,,,,,,,,,,,,,,,,,,,,,,,,,,,,,,,,,,,,,,,,,,,,91.58638266000003,91.58644463399992,91.586451506,91.59179064,None,0,None,91.59202001400001,91.59204846399996,None,91.59211160299992,91.592148125,None,91.59221095399994,91.59223521299998,None,,,,,,,,,,,,,,,,,,,24,001,15,,2024-04-15_09h11.16.779,replicate_nsd,2023.2.3,60.88311716393717,2024-04-15 09h11.29.092305 -0400,
images/image_533_seed_1.png,16,0,0,0,0,"[9, 19, 29, 39, 49, 59, 68, 69, 70, 71]",,,,,0,16,16,16,96.95304703499994,,,,,,,,,,,,,,,,,,,,,,,,,,,,,,,,,,,,,,,,,,,,,,,,91.59245452799996,91.59253239600002,91.59253951099993,91.59804014500003,None,0,None,91.59828906199994,91.59832665900001,None,91.59840023799995,91.59844140899997,None,91.59851636899998,91.59854254300001,None,,,,,,,,,,,,,,,,,,,24,001,15,,2024-04-15_09h11.16.779,replicate_nsd,2023.2.3,60.88311716393717,2024-04-15 09h11.29.092305 -0400,
images/image_374_seed_1.png,17,0,0,0,0,"[9, 19, 29, 39, 49, 59, 68, 69, 70, 71]",,,,,0,17,17,17,96.95304703499994,,,,,,,,,,,,,,,,,,,,,,,,,,,,,,,,,,,,,,,,,,,,,,,,91.59876762700003,91.598845192,91.59885267599998,91.60594748899996,None,0,None,91.60621225900002,91.60624597799995,None,91.60631973399995,91.60636153299993,None,91.606434455,91.60646528500001,None,,,,,,,,,,,,,,,,,,,24,001,15,,2024-04-15_09h11.16.779,replicate_nsd,2023.2.3,60.88311716393717,2024-04-15 09h11.29.092305 -0400,
images/image_280_seed_1.png,18,0,0,0,0,"[9, 19, 29, 39, 49, 59, 68, 69, 70, 71]",,,,,0,18,18,18,96.95304703499994,,,,,,,,,,,,,,,,,,,,,,,,,,,,,,,,,,,,,,,,,,,,,,,,91.60671868499992,91.60682680299999,91.60683537,91.61296877500001,None,0,None,91.61320737899996,91.61323644599997,None,91.61329910099994,91.61333617499997,None,91.61339916999998,91.61342402599996,None,,,,,,,,,,,,,,,,,,,24,001,15,,2024-04-15_09h11.16.779,replicate_nsd,2023.2.3,60.88311716393717,2024-04-15 09h11.29.092305 -0400,
blank.jpg,19,1,0,0,0,"[9, 19, 29, 39, 49, 59, 68, 69, 70, 71]",,,,,0,19,19,19,96.95304703499994,,,,,,,,,,,,,,,,,,,,,,,,,,,,,,,,,,,,,,,,,,,,,,,,91.61364041699994,91.61371550599995,91.61372244400002,91.61585248799997,None,0,None,91.61606835199996,91.61609685099995,None,91.61615978499992,91.61619439599997,None,91.61625821799998,91.61628277599993,None,,,,,,,,,,,,,,,,,,,24,001,15,,2024-04-15_09h11.16.779,replicate_nsd,2023.2.3,60.88311716393717,2024-04-15 09h11.29.092305 -0400,
images/image_13_seed_1.png,20,0,0,0,0,"[9, 19, 29, 39, 49, 59, 68, 69, 70, 71]",,,,,0,20,20,20,96.95304703499994,,,,,,,,,,,,,,,,,,,,,,,,,,,,,,,,,,,,,,,,,,,,,,,,91.61650788399993,91.616586859,91.616594125,91.62251894600001,None,0,None,91.62275231299998,91.622780949,None,91.622843923,91.62287988100002,None,91.62294299199993,91.62296728199999,None,,,,,,,,,,,,,,,,,,,24,001,15,,2024-04-15_09h11.16.779,replicate_nsd,2023.2.3,60.88311716393717,2024-04-15 09h11.29.092305 -0400,
images/image_220_seed_1.png,21,0,0,0,0,"[9, 19, 29, 39, 49, 59, 68, 69, 70, 71]",,,,,0,21,21,21,96.95304703499994,,,,,,,,,,,,,,,,,,,,,,,,,,,,,,,,,,,,,,,,,,,,,,,,91.62318374799997,91.623258641,91.62326589999998,91.62901490599995,None,0,None,91.62934577199997,91.62938712099992,None,91.62947858299992,91.62953045999996,None,91.62963069099999,91.62966709399996,None,,,,,,,,,,,,,,,,,,,24,001,15,,2024-04-15_09h11.16.779,replicate_nsd,2023.2.3,60.88311716393717,2024-04-15 09h11.29.092305 -0400,
images/image_110_seed_1.png,22,0,0,0,0,"[9, 19, 29, 39, 49, 59, 68, 69, 70, 71]",,,,,0,22,22,22,96.95304703499994,,,,,,,,,,,,,,,,,,,,,,,,,,,,,,,,,,,,,,,,,,,,,,,,91.62997527499999,91.63007799299999,91.63008839700001,91.63533375499992,None,0,None,91.63559367699997,91.63562699299996,None,91.63569954899992,91.63574195599995,None,91.63581543199996,91.63584427199999,None,,,,,,,,,,,,,,,,,,,24,001,15,,2024-04-15_09h11.16.779,replicate_nsd,2023.2.3,60.88311716393717,2024-04-15 09h11.29.092305 -0400,
images/image_749_seed_1.png,23,0,0,0,0,"[9, 19, 29, 39, 49, 59, 68, 69, 70, 71]",,,,,0,23,23,23,96.95304703499994,,,,,,,,,,,,,,,,,,,,,,,,,,,,,,,,,,,,,,,,,,,,,,,,91.63609411499999,91.63618057099995,91.63618884200002,91.64203557099995,None,0,None,91.64231074299994,91.64234818699993,None,91.642425237,91.64246970900001,None,91.64256108899997,91.64259252800002,None,,,,,,,,,,,,,,,,,,,24,001,15,,2024-04-15_09h11.16.779,replicate_nsd,2023.2.3,60.88311716393717,2024-04-15 09h11.29.092305 -0400,
images/image_274_seed_1.png,24,0,0,0,0,"[9, 19, 29, 39, 49, 59, 68, 69, 70, 71]",,,,,0,24,24,24,96.95304703499994,,,,,,,,,,,,,,,,,,,,,,,,,,,,,,,,,,,,,,,,,,,,,,,,91.64285736499994,91.64294714799996,91.64295544899994,91.64841281099996,None,0,None,91.64867337800001,91.64870731299993,None,91.64878068600001,91.64882444499995,None,91.64889768199998,91.64892599500001,None,,,,,,,,,,,,,,,,,,,24,001,15,,2024-04-15_09h11.16.779,replicate_nsd,2023.2.3,60.88311716393717,2024-04-15 09h11.29.092305 -0400,
images/image_623_seed_1.png,25,0,0,0,0,"[9, 19, 29, 39, 49, 59, 68, 69, 70, 71]",,,,,0,25,25,25,96.95304703499994,,,,,,,,,,,,,,,,,,,,,,,,,,,,,,,,,,,,,,,,,,,,,,,,91.64917552399993,91.64926368800002,91.64927200900001,91.65504163999992,None,0,None,91.65527293299999,91.65531095799997,None,91.65537660099994,91.65541450199999,None,91.65548721599998,91.65551320999998,None,,,,,,,,,,,,,,,,,,,24,001,15,,2024-04-15_09h11.16.779,replicate_nsd,2023.2.3,60.88311716393717,2024-04-15 09h11.29.092305 -0400,
images/image_525_seed_1.png,26,0,0,0,0,"[9, 19, 29, 39, 49, 59, 68, 69, 70, 71]",,,,,0,26,26,26,96.95304703499994,,,,,,,,,,,,,,,,,,,,,,,,,,,,,,,,,,,,,,,,,,,,,,,,91.65577672999996,91.65585481099993,91.65586220399996,91.66140431099996,None,0,None,91.661636692,91.66166585099995,None,91.66172807499993,91.661764673,None,91.661826206,91.661850545,None,,,,,,,,,,,,,,,,,,,24,001,15,,2024-04-15_09h11.16.779,replicate_nsd,2023.2.3,60.88311716393717,2024-04-15 09h11.29.092305 -0400,
images/image_321_seed_1.png,27,0,0,0,0,"[9, 19, 29, 39, 49, 59, 68, 69, 70, 71]",,,,,0,27,27,27,96.95304703499994,,,,,,,,,,,,,,,,,,,,,,,,,,,,,,,,,,,,,,,,,,,,,,,,91.66206534799994,91.662140712,91.66214788899993,91.667636259,None,0,None,91.66786156,91.66788995799993,None,91.66795249199993,91.66798940000001,None,91.66805248999992,91.66807685200001,None,,,,,,,,,,,,,,,,,,,24,001,15,,2024-04-15_09h11.16.779,replicate_nsd,2023.2.3,60.88311716393717,2024-04-15 09h11.29.092305 -0400,
images/image_373_seed_1.png,28,0,0,0,0,"[9, 19, 29, 39, 49, 59, 68, 69, 70, 71]",,,,,0,28,28,28,96.95304703499994,,,,,,,,,,,,,,,,,,,,,,,,,,,,,,,,,,,,,,,,,,,,,,,,91.66829328899996,91.66836774499995,91.668374911,91.67474189299992,None,0,None,91.67496684999992,91.67499540400001,None,91.67505868,91.67509591199996,None,91.67515925700002,91.67518391499993,None,,,,,,,,,,,,,,,,,,,24,001,15,,2024-04-15_09h11.16.779,replicate_nsd,2023.2.3,60.88311716393717,2024-04-15 09h11.29.092305 -0400,
blank.jpg,29,1,0,0,0,"[9, 19, 29, 39, 49, 59, 68, 69, 70, 71]",,,,,0,29,29,29,96.95304703499994,,,,,,,,,,,,,,,,,,,,,,,,,,,,,,,,,,,,,,,,,,,,,,,,91.67539976499995,91.67547306300003,91.67548023999996,91.67733156899999,None,0,None,91.67752923399996,91.67755701499993,None,91.67762235800001,91.67765599999996,None,91.67771912399996,91.67774263199999,None,,,,,,,,,,,,,,,,,,,24,001,15,,2024-04-15_09h11.16.779,replicate_nsd,2023.2.3,60.88311716393717,2024-04-15 09h11.29.092305 -0400,
images/image_188_seed_1.png,30,0,0,0,0,"[9, 19, 29, 39, 49, 59, 68, 69, 70, 71]",,,,,0,30,30,30,96.95304703499994,,,,,,,,,,,,,,,,,,,,,,,,,,,,,,,,,,,,,,,,,,,,,,,,91.67794900000001,91.67801034399997,91.67801773999997,91.68356031799999,None,0,None,91.68378729899996,91.683815955,None,91.68387820299995,91.68391395999993,None,91.68397646899996,91.68400052799996,None,,,,,,,,,,,,,,,,,,,24,001,15,,2024-04-15_09h11.16.779,replicate_nsd,2023.2.3,60.88311716393717,2024-04-15 09h11.29.092305 -0400,
images/image_147_seed_1.png,31,0,0,0,0,"[9, 19, 29, 39, 49, 59, 68, 69, 70, 71]",,,,,0,31,31,31,96.95304703499994,,,,,,,,,,,,,,,,,,,,,,,,,,,,,,,,,,,,,,,,,,,,,,,,91.68421505499998,91.68428806299994,91.68429519199992,91.68975370599992,None,0,None,91.68998068299993,91.69000911699993,None,91.69008280000003,91.69011990000001,None,91.69019257299999,91.69021815299993,None,,,,,,,,,,,,,,,,,,,24,001,15,,2024-04-15_09h11.16.779,replicate_nsd,2023.2.3,60.88311716393717,2024-04-15 09h11.29.092305 -0400,
images/image_711_seed_1.png,32,0,0,0,0,"[9, 19, 29, 39, 49, 59, 68, 69, 70, 71]",,,,,0,32,32,32,96.95304703499994,,,,,,,,,,,,,,,,,,,,,,,,,,,,,,,,,,,,,,,,,,,,,,,,91.69043667599999,91.69050987000003,91.69051712800001,91.69632351999996,None,0,None,91.69656598799997,91.69659527399995,None,91.69665839699996,91.69669602800002,None,91.69675915099992,91.69678395999995,None,,,,,,,,,,,,,,,,,,,24,001,15,,2024-04-15_09h11.16.779,replicate_nsd,2023.2.3,60.88311716393717,2024-04-15 09h11.29.092305 -0400,
images/image_189_seed_1.png,33,0,0,0,0,"[9, 19, 29, 39, 49, 59, 68, 69, 70, 71]",,,,,0,33,33,33,96.95304703499994,,,,,,,,,,,,,,,,,,,,,,,,,,,,,,,,,,,,,,,,,,,,,,,,91.69700001799993,91.69707858799995,91.69708568599992,91.70266131999995,None,0,None,91.70289852299993,91.70292811000002,None,91.70299258499995,91.70303027800003,None,91.70309490599993,91.70311946200002,None,,,,,,,,,,,,,,,,,,,24,001,15,,2024-04-15_09h11.16.779,replicate_nsd,2023.2.3,60.88311716393717,2024-04-15 09h11.29.092305 -0400,
images/image_644_seed_1.png,34,0,0,0,0,"[9, 19, 29, 39, 49, 59, 68, 69, 70, 71]",,,,,0,34,34,34,96.95304703499994,,,,,,,,,,,,,,,,,,,,,,,,,,,,,,,,,,,,,,,,,,,,,,,,91.70335121699998,91.70343698800002,91.70344550099992,91.70881028600002,None,0,None,91.70907706899993,91.70911319799995,None,91.70918041799996,91.709221351,None,91.70928912699992,91.70931531999997,None,,,,,,,,,,,,,,,,,,,24,001,15,,2024-04-15_09h11.16.779,replicate_nsd,2023.2.3,60.88311716393717,2024-04-15 09h11.29.092305 -0400,
images/image_299_seed_1.png,35,0,0,0,0,"[9, 19, 29, 39, 49, 59, 68, 69, 70, 71]",,,,,0,35,35,35,96.95304703499994,,,,,,,,,,,,,,,,,,,,,,,,,,,,,,,,,,,,,,,,,,,,,,,,91.70954187799998,91.70961839199992,91.709625469,91.71480946700001,None,0,None,91.71504818699998,91.71508168000003,None,91.71514602699995,91.71518387100002,None,91.71524716499994,91.71527198399997,None,,,,,,,,,,,,,,,,,,,24,001,15,,2024-04-15_09h11.16.779,replicate_nsd,2023.2.3,60.88311716393717,2024-04-15 09h11.29.092305 -0400,
images/image_609_seed_1.png,36,0,0,0,0,"[9, 19, 29, 39, 49, 59, 68, 69, 70, 71]",,,,,0,36,36,36,96.95304703499994,,,,,,,,,,,,,,,,,,,,,,,,,,,,,,,,,,,,,,,,,,,,,,,,91.71548902199993,91.71556451699996,91.71557183300001,91.72081112699993,None,0,None,91.72103856399997,91.72106750199998,None,91.72113000299998,91.72116617199993,None,91.72122792699997,91.72125265299996,None,,,,,,,,,,,,,,,,,,,24,001,15,,2024-04-15_09h11.16.779,replicate_nsd,2023.2.3,60.88311716393717,2024-04-15 09h11.29.092305 -0400,
images/image_572_seed_1.png,37,0,0,0,0,"[9, 19, 29, 39, 49, 59, 68, 69, 70, 71]",,,,,0,37,37,37,96.95304703499994,,,,,,,,,,,,,,,,,,,,,,,,,,,,,,,,,,,,,,,,,,,,,,,,91.72146845600003,91.72154245599995,91.721549439,91.72652225899992,None,0,None,91.72674805399993,91.72677638300001,None,91.72683923199997,91.72687564299997,None,91.72693851299994,91.72696315999997,None,,,,,,,,,,,,,,,,,,,24,001,15,,2024-04-15_09h11.16.779,replicate_nsd,2023.2.3,60.88311716393717,2024-04-15 09h11.29.092305 -0400,
images/image_456_seed_1.png,38,0,0,0,0,"[9, 19, 29, 39, 49, 59, 68, 69, 70, 71]",,,,,0,38,38,38,96.95304703499994,,,,,,,,,,,,,,,,,,,,,,,,,,,,,,,,,,,,,,,,,,,,,,,,91.72717880099992,91.72725814799992,91.72726558800002,91.73230437299992,None,0,None,91.73253311099995,91.73256185100001,None,91.73262510699999,91.73266120400001,None,91.73272371199994,91.732747851,None,,,,,,,,,,,,,,,,,,,24,001,15,,2024-04-15_09h11.16.779,replicate_nsd,2023.2.3,60.88311716393717,2024-04-15 09h11.29.092305 -0400,
blank.jpg,39,1,0,0,0,"[9, 19, 29, 39, 49, 59, 68, 69, 70, 71]",,,,,0,39,39,39,96.95304703499994,,,,,,,,,,,,,,,,,,,,,,,,,,,,,,,,,,,,,,,,,,,,,,,,91.73297279399992,91.73304752699994,91.73305479800001,91.73521401200003,None,0,None,91.73544485000002,91.73547493900003,None,91.73553918099992,91.73557602599999,None,91.73564112199995,91.73566612100001,None,,,,,,,,,,,,,,,,,,,24,001,15,,2024-04-15_09h11.16.779,replicate_nsd,2023.2.3,60.88311716393717,2024-04-15 09h11.29.092305 -0400,
images/image_388_seed_1.png,40,0,0,0,0,"[9, 19, 29, 39, 49, 59, 68, 69, 70, 71]",,,,,0,40,40,40,96.95304703499994,,,,,,,,,,,,,,,,,,,,,,,,,,,,,,,,,,,,,,,,,,,,,,,,91.73588602299992,91.735961696,91.73596886500002,91.741643372,None,0,None,91.741872317,91.74190136300001,None,91.74196556100003,91.742010488,None,91.74207674699994,91.74210134399993,None,,,,,,,,,,,,,,,,,,,24,001,15,,2024-04-15_09h11.16.779,replicate_nsd,2023.2.3,60.88311716393717,2024-04-15 09h11.29.092305 -0400,
images/image_637_seed_1.png,41,0,0,0,0,"[9, 19, 29, 39, 49, 59, 68, 69, 70, 71]",,,,,0,41,41,41,96.95304703499994,,,,,,,,,,,,,,,,,,,,,,,,,,,,,,,,,,,,,,,,,,,,,,,,91.74231924499998,91.74239878999992,91.74240600199994,91.74850231799996,None,0,None,91.748733625,91.74876242200003,None,91.74882587699994,91.74886277600001,None,91.74892630900001,91.74895085699995,None,,,,,,,,,,,,,,,,,,,24,001,15,,2024-04-15_09h11.16.779,replicate_nsd,2023.2.3,60.88311716393717,2024-04-15 09h11.29.092305 -0400,
images/image_544_seed_1.png,42,0,0,0,0,"[9, 19, 29, 39, 49, 59, 68, 69, 70, 71]",,,,,0,42,42,42,96.95304703499994,,,,,,,,,,,,,,,,,,,,,,,,,,,,,,,,,,,,,,,,,,,,,,,,91.74916924899992,91.74924797599999,91.74925548199997,91.75474514899997,None,0,None,91.75497577499993,91.75500513899999,None,91.75506790299994,91.755103803,None,91.75516636199995,91.75519056799999,None,,,,,,,,,,,,,,,,,,,24,001,15,,2024-04-15_09h11.16.779,replicate_nsd,2023.2.3,60.88311716393717,2024-04-15 09h11.29.092305 -0400,
images/image_522_seed_1.png,43,0,0,0,0,"[9, 19, 29, 39, 49, 59, 68, 69, 70, 71]",,,,,0,43,43,43,96.95304703499994,,,,,,,,,,,,,,,,,,,,,,,,,,,,,,,,,,,,,,,,,,,,,,,,91.75540617899992,91.75548257999992,91.75548966600002,91.76114298899995,None,0,None,91.761375864,91.761404879,None,91.76146801099992,91.76150417399992,None,91.761567377,91.76159189099997,None,,,,,,,,,,,,,,,,,,,24,001,15,,2024-04-15_09h11.16.779,replicate_nsd,2023.2.3,60.88311716393717,2024-04-15 09h11.29.092305 -0400,
images/image_97_seed_1.png,44,0,0,0,0,"[9, 19, 29, 39, 49, 59, 68, 69, 70, 71]",,,,,0,44,44,44,96.95304703499994,,,,,,,,,,,,,,,,,,,,,,,,,,,,,,,,,,,,,,,,,,,,,,,,91.761809997,91.76188497599992,91.76189217000001,91.76711143099999,None,0,None,91.767341827,91.76737113899992,None,91.76747850100003,91.76751628499994,None,91.76758078499995,91.767605645,None,,,,,,,,,,,,,,,,,,,24,001,15,,2024-04-15_09h11.16.779,replicate_nsd,2023.2.3,60.88311716393717,2024-04-15 09h11.29.092305 -0400,
images/image_408_seed_1.png,45,0,0,0,0,"[9, 19, 29, 39, 49, 59, 68, 69, 70, 71]",,,,,0,45,45,45,96.95304703499994,,,,,,,,,,,,,,,,,,,,,,,,,,,,,,,,,,,,,,,,,,,,,,,,91.76782424199996,91.76789967100001,91.76790708099998,91.77328563699996,None,0,None,91.77353844200002,91.77356834399995,None,91.77363400299998,91.773670949,None,91.77373452799998,91.77375891399993,None,,,,,,,,,,,,,,,,,,,24,001,15,,2024-04-15_09h11.16.779,replicate_nsd,2023.2.3,60.88311716393717,2024-04-15 09h11.29.092305 -0400,
images/image_293_seed_1.png,46,0,0,0,0,"[9, 19, 29, 39, 49, 59, 68, 69, 70, 71]",,,,,0,46,46,46,96.95304703499994,,,,,,,,,,,,,,,,,,,,,,,,,,,,,,,,,,,,,,,,,,,,,,,,91.77398538900002,91.77406049699994,91.77406780299998,91.77941927799998,None,0,None,91.77965342300001,91.77968287399995,None,91.77974658099993,91.77978391800002,None,91.77984745100002,91.779872351,None,,,,,,,,,,,,,,,,,,,24,001,15,,2024-04-15_09h11.16.779,replicate_nsd,2023.2.3,60.88311716393717,2024-04-15 09h11.29.092305 -0400,
images/image_226_seed_1.png,47,0,0,0,0,"[9, 19, 29, 39, 49, 59, 68, 69, 70, 71]",,,,,0,47,47,47,96.95304703499994,,,,,,,,,,,,,,,,,,,,,,,,,,,,,,,,,,,,,,,,,,,,,,,,91.78009072299994,91.78016649599999,91.78017385499993,91.78533114100003,None,0,None,91.78556277899997,91.78559204800001,None,91.78565480499992,91.78569190099995,None,91.78575497600002,91.78577958699998,None,,,,,,,,,,,,,,,,,,,24,001,15,,2024-04-15_09h11.16.779,replicate_nsd,2023.2.3,60.88311716393717,2024-04-15 09h11.29.092305 -0400,
images/image_119_seed_1.png,48,0,0,0,0,"[9, 19, 29, 39, 49, 59, 68, 69, 70, 71]",,,,,0,48,48,48,96.95304703499994,,,,,,,,,,,,,,,,,,,,,,,,,,,,,,,,,,,,,,,,,,,,,,,,91.78599922399997,91.78607447599995,91.78608164100001,91.791295139,None,0,None,91.79152361000001,91.79155266499993,None,91.79161596400002,91.79165180099994,None,91.79171503499992,91.79174766599999,None,,,,,,,,,,,,,,,,,,,24,001,15,,2024-04-15_09h11.16.779,replicate_nsd,2023.2.3,60.88311716393717,2024-04-15 09h11.29.092305 -0400,
blank.jpg,49,1,0,0,0,"[9, 19, 29, 39, 49, 59, 68, 69, 70, 71]",,,,,0,49,49,49,96.95304703499994,,,,,,,,,,,,,,,,,,,,,,,,,,,,,,,,,,,,,,,,,,,,,,,,91.79196782299994,91.792044025,91.79205133699998,91.79409150799995,None,0,None,91.79429384399998,91.79432171799999,None,91.79438458899995,91.79441840300001,None,91.794482539,91.79450647599992,None,,,,,,,,,,,,,,,,,,,24,001,15,,2024-04-15_09h11.16.779,replicate_nsd,2023.2.3,60.88311716393717,2024-04-15 09h11.29.092305 -0400,
images/image_400_seed_1.png,50,0,0,0,0,"[9, 19, 29, 39, 49, 59, 68, 69, 70, 71]",,,,,0,50,50,50,96.95304703499994,,,,,,,,,,,,,,,,,,,,,,,,,,,,,,,,,,,,,,,,,,,,,,,,91.79471472599994,91.79478233499992,91.79478945300002,91.80044390599994,None,0,None,91.80067564900003,91.80070731199999,None,91.80077251299997,91.80080915299993,None,91.80087249199994,91.80089771400003,None,,,,,,,,,,,,,,,,,,,24,001,15,,2024-04-15_09h11.16.779,replicate_nsd,2023.2.3,60.88311716393717,2024-04-15 09h11.29.092305 -0400,
images/image_748_seed_1.png,51,0,0,0,0,"[9, 19, 29, 39, 49, 59, 68, 69, 70, 71]",,,,,0,51,51,51,96.95304703499994,,,,,,,,,,,,,,,,,,,,,,,,,,,,,,,,,,,,,,,,,,,,,,,,91.80111612500002,91.80119441499994,91.80120165199992,91.80647064499999,None,0,None,91.80669606100003,91.80673349599999,None,91.80679725200002,91.80683314800001,None,91.806908765,91.80693444299993,None,,,,,,,,,,,,,,,,,,,24,001,15,,2024-04-15_09h11.16.779,replicate_nsd,2023.2.3,60.88311716393717,2024-04-15 09h11.29.092305 -0400,
images/image_395_seed_1.png,52,0,0,0,0,"[9, 19, 29, 39, 49, 59, 68, 69, 70, 71]",,,,,0,52,52,52,96.95304703499994,,,,,,,,,,,,,,,,,,,,,,,,,,,,,,,,,,,,,,,,,,,,,,,,91.80715009300002,91.80722590899995,91.80723289000002,91.81244655900002,None,0,None,91.812678398,91.81270804799999,None,91.81277052199994,91.81280683499995,None,91.81286957700001,91.81289384499996,None,,,,,,,,,,,,,,,,,,,24,001,15,,2024-04-15_09h11.16.779,replicate_nsd,2023.2.3,60.88311716393717,2024-04-15 09h11.29.092305 -0400,
images/image_364_seed_1.png,53,0,0,0,0,"[9, 19, 29, 39, 49, 59, 68, 69, 70, 71]",,,,,0,53,53,53,96.95304703499994,,,,,,,,,,,,,,,,,,,,,,,,,,,,,,,,,,,,,,,,,,,,,,,,91.813108736,91.81318495899995,91.81319213699999,91.81855232499993,None,0,None,91.81878272400002,91.818811772,None,91.81887397599996,91.81891017299995,None,91.81897289799997,91.81899694899994,None,,,,,,,,,,,,,,,,,,,24,001,15,,2024-04-15_09h11.16.779,replicate_nsd,2023.2.3,60.88311716393717,2024-04-15 09h11.29.092305 -0400,
images/image_562_seed_1.png,54,0,0,0,0,"[9, 19, 29, 39, 49, 59, 68, 69, 70, 71]",,,,,0,54,54,54,96.95304703499994,,,,,,,,,,,,,,,,,,,,,,,,,,,,,,,,,,,,,,,,,,,,,,,,91.81921558099998,91.81929009499993,91.81929730799993,91.82461187399997,None,0,None,91.82489217299997,91.82491965299994,None,91.82498036300001,91.82501628399996,None,91.82508056099994,91.82510549599999,None,,,,,,,,,,,,,,,,,,,24,001,15,,2024-04-15_09h11.16.779,replicate_nsd,2023.2.3,60.88311716393717,2024-04-15 09h11.29.092305 -0400,
images/image_568_seed_1.png,55,0,0,0,0,"[9, 19, 29, 39, 49, 59, 68, 69, 70, 71]",,,,,0,55,55,55,96.95304703499994,,,,,,,,,,,,,,,,,,,,,,,,,,,,,,,,,,,,,,,,,,,,,,,,91.82537080999998,91.82544334399995,91.82545043699997,91.83050456199999,None,0,None,91.83073502899992,91.83076463399993,None,91.83082935899995,91.83086556699993,None,91.83092945399994,91.83095406199993,None,,,,,,,,,,,,,,,,,,,24,001,15,,2024-04-15_09h11.16.779,replicate_nsd,2023.2.3,60.88311716393717,2024-04-15 09h11.29.092305 -0400,
images/image_398_seed_1.png,56,0,0,0,0,"[9, 19, 29, 39, 49, 59, 68, 69, 70, 71]",,,,,0,56,56,56,96.95304703499994,,,,,,,,,,,,,,,,,,,,,,,,,,,,,,,,,,,,,,,,,,,,,,,,91.83117253399996,91.83124981599997,91.83125718899998,91.83632112999999,None,0,None,91.83655203499995,91.83658121799999,None,91.83664435699995,91.83668091099992,None,91.83674380499997,91.83676872399997,None,,,,,,,,,,,,,,,,,,,24,001,15,,2024-04-15_09h11.16.779,replicate_nsd,2023.2.3,60.88311716393717,2024-04-15 09h11.29.092305 -0400,
images/image_187_seed_1.png,57,0,0,0,0,"[9, 19, 29, 39, 49, 59, 68, 69, 70, 71]",,,,,0,57,57,57,96.95304703499994,,,,,,,,,,,,,,,,,,,,,,,,,,,,,,,,,,,,,,,,,,,,,,,,91.83698783699992,91.83706268599997,91.83706989999996,91.84223041799999,None,0,None,91.84246522199999,91.84249954500001,None,91.842563348,91.84260417899998,None,91.84266900399996,91.84269317199994,None,,,,,,,,,,,,,,,,,,,24,001,15,,2024-04-15_09h11.16.779,replicate_nsd,2023.2.3,60.88311716393717,2024-04-15 09h11.29.092305 -0400,
images/image_440_seed_1.png,58,0,0,0,0,"[9, 19, 29, 39, 49, 59, 68, 69, 70, 71]",,,,,0,58,58,58,96.95304703499994,,,,,,,,,,,,,,,,,,,,,,,,,,,,,,,,,,,,,,,,,,,,,,,,91.84290847299997,91.84298568899999,91.84299266599999,91.84819391500002,None,0,None,91.84839160499996,91.84841984799993,None,91.84848228499993,91.84851616699996,None,91.84857802199997,91.84860142999992,None,,,,,,,,,,,,,,,,,,,24,001,15,,2024-04-15_09h11.16.779,replicate_nsd,2023.2.3,60.88311716393717,2024-04-15 09h11.29.092305 -0400,
blank.jpg,59,1,0,0,0,"[9, 19, 29, 39, 49, 59, 68, 69, 70, 71]",,,,,0,59,59,59,96.95304703499994,,,,,,,,,,,,,,,,,,,,,,,,,,,,,,,,,,,,,,,,,,,,,,,,91.84880273700003,91.848864188,91.84887128699995,91.85082955299993,None,0,None,91.85102451199998,91.85105265699997,None,91.85111458799997,91.851148319,None,91.85121131799997,91.85123483799998,None,,,,,,,,,,,,,,,,,,,24,001,15,,2024-04-15_09h11.16.779,replicate_nsd,2023.2.3,60.88311716393717,2024-04-15 09h11.29.092305 -0400,
images/image_606_seed_1.png,60,0,0,0,0,"[9, 19, 29, 39, 49, 59, 68, 69, 70, 71]",,,,,0,60,60,60,96.95304703499994,,,,,,,,,,,,,,,,,,,,,,,,,,,,,,,,,,,,,,,,,,,,,,,,91.85143557999993,91.85149916299997,91.85150639099993,91.85733589699998,None,0,None,91.85759055899996,91.85762711999996,None,91.857698218,91.85773808499994,None,91.85780616199997,91.85783160999995,None,,,,,,,,,,,,,,,,,,,24,001,15,,2024-04-15_09h11.16.779,replicate_nsd,2023.2.3,60.88311716393717,2024-04-15 09h11.29.092305 -0400,
images/image_263_seed_1.png,61,0,0,0,0,"[9, 19, 29, 39, 49, 59, 68, 69, 70, 71]",,,,,0,61,61,61,96.95304703499994,,,,,,,,,,,,,,,,,,,,,,,,,,,,,,,,,,,,,,,,,,,,,,,,91.85805878600002,91.858137693,91.85814467599994,91.86341126499997,None,0,None,91.86364342799993,91.86367529699999,None,91.86374799800001,91.86378716299998,None,91.86385963099997,91.86388730099998,None,,,,,,,,,,,,,,,,,,,24,001,15,,2024-04-15_09h11.16.779,replicate_nsd,2023.2.3,60.88311716393717,2024-04-15 09h11.29.092305 -0400,
images/image_397_seed_1.png,62,0,0,0,0,"[9, 19, 29, 39, 49, 59, 68, 69, 70, 71]",,,,,0,62,62,62,96.95304703499994,,,,,,,,,,,,,,,,,,,,,,,,,,,,,,,,,,,,,,,,,,,,,,,,91.86412502600001,91.86419909300002,91.86420729299994,91.86998253299998,None,0,None,91.87024562900001,91.87027927199995,None,91.87035321799999,91.87039499499997,None,91.87046866599997,91.87049718000003,None,,,,,,,,,,,,,,,,,,,24,001,15,,2024-04-15_09h11.16.779,replicate_nsd,2023.2.3,60.88311716393717,2024-04-15 09h11.29.092305 -0400,
images/image_466_seed_1.png,63,0,0,0,0,"[9, 19, 29, 39, 49, 59, 68, 69, 70, 71]",,,,,0,63,63,63,96.95304703499994,,,,,,,,,,,,,,,,,,,,,,,,,,,,,,,,,,,,,,,,,,,,,,,,91.870753605,91.87084009399996,91.870848357,91.87637472799997,None,0,None,91.87659292599994,91.87662024999997,None,91.876681104,91.87671669299993,None,91.87677785099993,91.87680148799996,None,,,,,,,,,,,,,,,,,,,24,001,15,,2024-04-15_09h11.16.779,replicate_nsd,2023.2.3,60.88311716393717,2024-04-15 09h11.29.092305 -0400,
images/image_4_seed_1.png,64,0,0,0,0,"[9, 19, 29, 39, 49, 59, 68, 69, 70, 71]",,,,,0,64,64,64,96.95304703499994,,,,,,,,,,,,,,,,,,,,,,,,,,,,,,,,,,,,,,,,,,,,,,,,91.87705104600002,91.87712348999992,91.87713045399994,91.882739378,None,0,None,91.88296941700003,91.882998326,None,91.88306152199993,91.88309833699998,None,91.88316124300002,91.88318571299999,None,,,,,,,,,,,,,,,,,,,24,001,15,,2024-04-15_09h11.16.779,replicate_nsd,2023.2.3,60.88311716393717,2024-04-15 09h11.29.092305 -0400,
images/image_64_seed_1.png,65,0,0,0,0,"[9, 19, 29, 39, 49, 59, 68, 69, 70, 71]",,,,,0,65,65,65,96.95304703499994,,,,,,,,,,,,,,,,,,,,,,,,,,,,,,,,,,,,,,,,,,,,,,,,91.88340166199998,91.88347742199994,91.88348450900003,91.88901173199997,None,0,None,91.88924298500001,91.88927182099997,None,91.88933518399995,91.88937146499995,None,91.88943378399995,91.88945949799995,None,,,,,,,,,,,,,,,,,,,24,001,15,,2024-04-15_09h11.16.779,replicate_nsd,2023.2.3,60.88311716393717,2024-04-15 09h11.29.092305 -0400,
images/image_648_seed_1.png,66,0,0,0,0,"[9, 19, 29, 39, 49, 59, 68, 69, 70, 71]",,,,,0,66,66,66,96.95304703499994,,,,,,,,,,,,,,,,,,,,,,,,,,,,,,,,,,,,,,,,,,,,,,,,91.88968082899999,91.88975791500002,91.88976510299995,91.89455722399998,None,0,None,91.89478315600002,91.89481187899992,None,91.89487420199998,91.89491010400002,None,91.89497272799997,91.89499734100002,None,,,,,,,,,,,,,,,,,,,24,001,15,,2024-04-15_09h11.16.779,replicate_nsd,2023.2.3,60.88311716393717,2024-04-15 09h11.29.092305 -0400,
images/image_658_seed_1.png,67,0,0,0,0,"[9, 19, 29, 39, 49, 59, 68, 69, 70, 71]",,,,,0,67,67,67,96.95304703499994,,,,,,,,,,,,,,,,,,,,,,,,,,,,,,,,,,,,,,,,,,,,,,,,91.89521182499993,91.89528768000002,91.895294659,91.90009826200003,None,0,None,91.90029443799995,91.90032227199993,None,91.900385228,91.90041820800002,None,91.90048055399996,91.90050378799992,None,,,,,,,,,,,,,,,,,,,24,001,15,,2024-04-15_09h11.16.779,replicate_nsd,2023.2.3,60.88311716393717,2024-04-15 09h11.29.092305 -0400,
blank.jpg,68,1,0,0,0,"[9, 19, 29, 39, 49, 59, 68, 69, 70, 71]",,,,,0,68,68,68,96.95304703499994,,,,,,,,,,,,,,,,,,,,,,,,,,,,,,,,,,,,,,,,,,,,,,,,91.90070503899994,91.90076686499992,91.90077389800001,91.902710727,None,0,None,91.90290576500001,91.90293343500002,None,91.90299575400002,91.90302882200001,None,91.903091367,91.90311494399998,None,,,,,,,,,,,,,,,,,,,24,001,15,,2024-04-15_09h11.16.779,replicate_nsd,2023.2.3,60.88311716393717,2024-04-15 09h11.29.092305 -0400,
blank.jpg,69,1,0,0,0,"[9, 19, 29, 39, 49, 59, 68, 69, 70, 71]",,,,,0,69,69,69,96.95304703499994,,,,,,,,,,,,,,,,,,,,,,,,,,,,,,,,,,,,,,,,,,,,,,,,91.90331730699995,91.90337980699996,91.90338705599993,91.90530694799997,None,0,None,91.90550122499997,91.90552874899993,None,91.90559112199992,91.90562459299997,None,91.90568667899993,91.90571037699999,None,,,,,,,,,,,,,,,,,,,24,001,15,,2024-04-15_09h11.16.779,replicate_nsd,2023.2.3,60.88311716393717,2024-04-15 09h11.29.092305 -0400,
blank.jpg,70,1,0,0,0,"[9, 19, 29, 39, 49, 59, 68, 69, 70, 71]",,,,,0,70,70,70,96.95304703499994,,,,,,,,,,,,,,,,,,,,,,,,,,,,,,,,,,,,,,,,,,,,,,,,91.90591224399998,91.90597412099999,91.90598139099995,91.907660137,None,0,None,91.90786823199994,91.90789815099993,None,91.90795978599999,91.90799396599994,None,91.90806962299996,91.90809423299993,None,,,,,,,,,,,,,,,,,,,24,001,15,,2024-04-15_09h11.16.779,replicate_nsd,2023.2.3,60.88311716393717,2024-04-15 09h11.29.092305 -0400,
blank.jpg,71,1,0,1,0,"[9, 19, 29, 39, 49, 59, 68, 69, 70, 71]",,,,,0,71,71,71,96.95304703499994,,,,,,,,,,,,,,,,,,,,,,,,,,,,,,,,,,,,,,,,,,,,,,,,91.90830530699998,91.90837086699992,91.90837786600002,91.91006567399995,None,0,None,91.91025657900002,91.910283682,None,91.91034428499995,91.91037828499998,None,91.91043913399994,91.91046285999994,None,,,,,,,,,,,,,,,,,,,24,001,15,,2024-04-15_09h11.16.779,replicate_nsd,2023.2.3,60.88311716393717,2024-04-15 09h11.29.092305 -0400,
images/image_479_seed_1.png,0,0,0,0,1,"[9, 19, 31, 42, 56, 68, 69, 70, 71]",,,,,0,72,72,72,96.95304703499994,,,,,,,,,,,,,,,,,,,,,,,,,,,,,,,,,,,,,,,,,,,,,,,,91.910744002,91.91085149799994,91.91086406699992,91.91779298400002,None,0,None,91.91805643600003,91.91809117599996,None,91.91816347199995,91.91820548399994,None,91.91827877399999,91.918307293,None,,,,,,,,,,,,,,,,,,,24,001,15,,2024-04-15_09h11.16.779,replicate_nsd,2023.2.3,60.88311716393717,2024-04-15 09h11.29.092305 -0400,
images/image_531_seed_1.png,1,0,0,0,1,"[9, 19, 31, 42, 56, 68, 69, 70, 71]",,,,,0,73,73,73,96.95304703499994,,,,,,,,,,,,,,,,,,,,,,,,,,,,,,,,,,,,,,,,,,,,,,,,91.91855664399998,91.91867735799997,91.91868777299999,91.92528458100003,None,0,None,91.92554349,91.92557711699999,None,91.92564989099992,91.92569164299994,None,91.92576415099995,91.92579218599997,None,,,,,,,,,,,,,,,,,,,24,001,15,,2024-04-15_09h11.16.779,replicate_nsd,2023.2.3,60.88311716393717,2024-04-15 09h11.29.092305 -0400,
images/image_351_seed_1.png,2,0,0,0,1,"[9, 19, 31, 42, 56, 68, 69, 70, 71]",,,,,0,74,74,74,96.95304703499994,,,,,,,,,,,,,,,,,,,,,,,,,,,,,,,,,,,,,,,,,,,,,,,,91.92603908499996,91.92612257899998,91.92613090999998,91.93167638299997,None,0,None,91.93190854,91.93193786799998,None,91.93200100399997,91.93203722599992,None,91.93210057599993,91.93212524499995,None,,,,,,,,,,,,,,,,,,,24,001,15,,2024-04-15_09h11.16.779,replicate_nsd,2023.2.3,60.88311716393717,2024-04-15 09h11.29.092305 -0400,
images/image_304_seed_1.png,3,0,0,0,1,"[9, 19, 31, 42, 56, 68, 69, 70, 71]",,,,,0,75,75,75,96.95304703499994,,,,,,,,,,,,,,,,,,,,,,,,,,,,,,,,,,,,,,,,,,,,,,,,91.93234122000001,91.93241663399999,91.93242383500001,91.93972507699993,None,0,None,91.94027821899999,91.94032947099993,None,91.94044399999996,91.94050482299997,None,91.94061913399992,91.94066244499993,None,,,,,,,,,,,,,,,,,,,24,001,15,,2024-04-15_09h11.16.779,replicate_nsd,2023.2.3,60.88311716393717,2024-04-15 09h11.29.092305 -0400,
images/image_292_seed_1.png,4,0,0,0,1,"[9, 19, 31, 42, 56, 68, 69, 70, 71]",,,,,0,76,76,76,96.95304703499994,,,,,,,,,,,,,,,,,,,,,,,,,,,,,,,,,,,,,,,,,,,,,,,,91.94103152399998,91.94114023199995,91.94115299299995,91.94744429399998,None,0,None,91.94772889000001,91.94776880899997,None,91.94786002299998,91.94790921399999,None,91.94800009400001,91.94803414,None,,,,,,,,,,,,,,,,,,,24,001,15,,2024-04-15_09h11.16.779,replicate_nsd,2023.2.3,60.88311716393717,2024-04-15 09h11.29.092305 -0400,
images/image_349_seed_1.png,5,0,0,0,1,"[9, 19, 31, 42, 56, 68, 69, 70, 71]",,,,,0,77,77,77,96.95304703499994,,,,,,,,,,,,,,,,,,,,,,,,,,,,,,,,,,,,,,,,,,,,,,,,91.94832882799994,91.94842238499996,91.94843221899998,91.95467699599999,None,0,None,91.95493632900002,91.95496942099999,None,91.95504278499993,91.95508440200001,None,91.95515660000001,91.95518491500002,None,,,,,,,,,,,,,,,,,,,24,001,15,,2024-04-15_09h11.16.779,replicate_nsd,2023.2.3,60.88311716393717,2024-04-15 09h11.29.092305 -0400,
images/image_188_seed_1.png,6,0,1,0,1,"[9, 19, 31, 42, 56, 68, 69, 70, 71]",,,,,0,78,78,78,96.95304703499994,,,,,,,,,,,,,,,,,,,,,,,,,,,,,,,,,,,,,,,,,,,,,,,,91.95543607599996,91.95552200099996,91.95553015199994,91.959796923,None,0,None,91.959991694,91.96001999399994,None,91.96008188500002,91.96011589699992,None,91.96017808499994,91.96020182099994,None,,,,,,,,,,,,,,,,,,,24,001,15,,2024-04-15_09h11.16.779,replicate_nsd,2023.2.3,60.88311716393717,2024-04-15 09h11.29.092305 -0400,
images/image_635_seed_1.png,7,0,0,0,1,"[9, 19, 31, 42, 56, 68, 69, 70, 71]",,,,,0,79,79,79,96.95304703499994,,,,,,,,,,,,,,,,,,,,,,,,,,,,,,,,,,,,,,,,,,,,,,,,91.96040299699996,91.96046308099994,91.96047032899992,91.96593493599994,None,0,None,91.966251919,91.96629259299993,None,91.96638315299992,91.96643451699993,None,91.96652465800003,91.966559254,None,,,,,,,,,,,,,,,,,,,24,001,15,,2024-04-15_09h11.16.779,replicate_nsd,2023.2.3,60.88311716393717,2024-04-15 09h11.29.092305 -0400,
images/image_494_seed_1.png,8,0,0,0,1,"[9, 19, 31, 42, 56, 68, 69, 70, 71]",,,,,0,80,80,80,96.95304703499994,,,,,,,,,,,,,,,,,,,,,,,,,,,,,,,,,,,,,,,,,,,,,,,,91.96686437699998,91.96696529500002,91.96697540100001,91.97385379299999,None,0,None,91.97411397500002,91.97414682399994,None,91.97421957099994,91.97426223100001,None,91.97433587799992,91.97436411599995,None,,,,,,,,,,,,,,,,,,,24,001,15,,2024-04-15_09h11.16.779,replicate_nsd,2023.2.3,60.88311716393717,2024-04-15 09h11.29.092305 -0400,
blank.jpg,9,1,0,0,1,"[9, 19, 31, 42, 56, 68, 69, 70, 71]",,,,,0,81,81,81,96.95304703499994,,,,,,,,,,,,,,,,,,,,,,,,,,,,,,,,,,,,,,,,,,,,,,,,91.97461395599998,91.974697472,91.97470571299993,91.97693388799996,None,0,None,91.97716261099993,91.97719487299992,None,91.97726579999994,91.97730470399995,None,91.97737733999998,91.97740487199997,None,,,,,,,,,,,,,,,,,,,24,001,15,,2024-04-15_09h11.16.779,replicate_nsd,2023.2.3,60.88311716393717,2024-04-15 09h11.29.092305 -0400,
images/image_242_seed_1.png,10,0,0,0,1,"[9, 19, 31, 42, 56, 68, 69, 70, 71]",,,,,0,82,82,82,96.95304703499994,,,,,,,,,,,,,,,,,,,,,,,,,,,,,,,,,,,,,,,,,,,,,,,,91.97764317199994,91.97771494099993,91.97772309699997,91.98314766599992,None,0,None,91.98337538599992,91.98340393900003,None,91.98346557499997,91.98350130300003,None,91.98356369299995,91.98358769100003,None,,,,,,,,,,,,,,,,,,,24,001,15,,2024-04-15_09h11.16.779,replicate_nsd,2023.2.3,60.88311716393717,2024-04-15 09h11.29.092305 -0400,
images/image_324_seed_1.png,11,0,0,0,1,"[9, 19, 31, 42, 56, 68, 69, 70, 71]",,,,,0,83,83,83,96.95304703499994,,,,,,,,,,,,,,,,,,,,,,,,,,,,,,,,,,,,,,,,,,,,,,,,91.983801546,91.98387469099998,91.98388204399998,91.98876677199996,None,0,None,91.98899245999996,91.989021202,None,91.98908486799996,91.98912114799998,None,91.98918390999995,91.98920864299998,None,,,,,,,,,,,,,,,,,,,24,001,15,,2024-04-15_09h11.16.779,replicate_nsd,2023.2.3,60.88311716393717,2024-04-15 09h11.29.092305 -0400,
images/image_82_seed_1.png,12,0,0,0,1,"[9, 19, 31, 42, 56, 68, 69, 70, 71]",,,,,0,84,84,84,96.95304703499994,,,,,,,,,,,,,,,,,,,,,,,,,,,,,,,,,,,,,,,,,,,,,,,,91.98942594899995,91.98950026699993,91.98950741399995,91.99471727299999,None,0,None,91.99494750399992,91.994975726,None,91.99503833400001,91.99507426399998,None,91.99513628499994,91.99516066499996,None,,,,,,,,,,,,,,,,,,,24,001,15,,2024-04-15_09h11.16.779,replicate_nsd,2023.2.3,60.88311716393717,2024-04-15 09h11.29.092305 -0400,
images/image_223_seed_1.png,13,0,0,0,1,"[9, 19, 31, 42, 56, 68, 69, 70, 71]",,,,,0,85,85,85,96.95304703499994,,,,,,,,,,,,,,,,,,,,,,,,,,,,,,,,,,,,,,,,,,,,,,,,91.99537641099994,91.99545465599999,91.99546177499997,92.00060059399993,None,0,None,92.00082592399997,92.00085419099992,None,92.00091686999997,92.00095321399999,None,92.00101645099994,92.00104094300002,None,,,,,,,,,,,,,,,,,,,24,001,15,,2024-04-15_09h11.16.779,replicate_nsd,2023.2.3,60.88311716393717,2024-04-15 09h11.29.092305 -0400,
images/image_110_seed_1.png,14,0,1,0,1,"[9, 19, 31, 42, 56, 68, 69, 70, 71]",,,,,0,86,86,86,96.95304703499994,,,,,,,,,,,,,,,,,,,,,,,,,,,,,,,,,,,,,,,,,,,,,,,,92.001255625,92.00133137199998,92.00133866800002,92.004362593,None,0,None,92.00459436799997,92.00462436700002,None,92.00468723799997,92.00472485599994,None,92.00478812699998,92.00481305099993,None,,,,,,,,,,,,,,,,,,,24,001,15,,2024-04-15_09h11.16.779,replicate_nsd,2023.2.3,60.88311716393717,2024-04-15 09h11.29.092305 -0400,
images/image_105_seed_1.png,15,0,0,0,1,"[9, 19, 31, 42, 56, 68, 69, 70, 71]",,,,,0,87,87,87,96.95304703499994,,,,,,,,,,,,,,,,,,,,,,,,,,,,,,,,,,,,,,,,,,,,,,,,92.005032046,92.00511077499993,92.00511807999999,92.01006832500002,None,0,None,92.01029349999999,92.01032232800003,None,92.01038495399996,92.01042104299995,None,92.01048268599993,92.01050683699998,None,,,,,,,,,,,,,,,,,,,24,001,15,,2024-04-15_09h11.16.779,replicate_nsd,2023.2.3,60.88311716393717,2024-04-15 09h11.29.092305 -0400,
images/image_727_seed_1.png,16,0,0,0,1,"[9, 19, 31, 42, 56, 68, 69, 70, 71]",,,,,0,88,88,88,96.95304703499994,,,,,,,,,,,,,,,,,,,,,,,,,,,,,,,,,,,,,,,,,,,,,,,,92.01072226099996,92.01079569399997,92.01080281899999,92.015259206,None,0,None,92.015454535,92.015482045,None,92.01554426500002,92.0155777,None,92.01563999299992,92.01566398199998,None,,,,,,,,,,,,,,,,,,,24,001,15,,2024-04-15_09h11.16.779,replicate_nsd,2023.2.3,60.88311716393717,2024-04-15 09h11.29.092305 -0400,
images/image_570_seed_1.png,17,0,0,0,1,"[9, 19, 31, 42, 56, 68, 69, 70, 71]",,,,,0,89,89,89,96.95304703499994,,,,,,,,,,,,,,,,,,,,,,,,,,,,,,,,,,,,,,,,,,,,,,,,92.01586524999993,92.01592564099997,92.01593259399999,92.020811492,None,0,None,92.02103769899998,92.02106657399997,None,92.02112902800002,92.02116520200002,None,92.02122733800002,92.02125160899993,None,,,,,,,,,,,,,,,,,,,24,001,15,,2024-04-15_09h11.16.779,replicate_nsd,2023.2.3,60.88311716393717,2024-04-15 09h11.29.092305 -0400,
images/image_277_seed_1.png,18,0,0,0,1,"[9, 19, 31, 42, 56, 68, 69, 70, 71]",,,,,0,90,90,90,96.95304703499994,,,,,,,,,,,,,,,,,,,,,,,,,,,,,,,,,,,,,,,,,,,,,,,,92.021466938,92.02154160600003,92.02154889299993,92.02673794999998,None,0,None,92.02696308099996,92.02699085400002,None,92.02705244699996,92.02708841999993,None,92.02715046200001,92.02717482699995,None,,,,,,,,,,,,,,,,,,,24,001,15,,2024-04-15_09h11.16.779,replicate_nsd,2023.2.3,60.88311716393717,2024-04-15 09h11.29.092305 -0400,
blank.jpg,19,1,0,0,1,"[9, 19, 31, 42, 56, 68, 69, 70, 71]",,,,,0,91,91,91,96.95304703499994,,,,,,,,,,,,,,,,,,,,,,,,,,,,,,,,,,,,,,,,,,,,,,,,92.02738759499994,92.02746098,92.02746805100003,92.02963731800003,None,0,None,92.02986058900001,92.029889777,None,92.02995133299999,92.02998734300002,None,92.03005010499999,92.03007478199993,None,,,,,,,,,,,,,,,,,,,24,001,15,,2024-04-15_09h11.16.779,replicate_nsd,2023.2.3,60.88311716393717,2024-04-15 09h11.29.092305 -0400,
images/image_603_seed_1.png,20,0,0,0,1,"[9, 19, 31, 42, 56, 68, 69, 70, 71]",,,,,0,92,92,92,96.95304703499994,,,,,,,,,,,,,,,,,,,,,,,,,,,,,,,,,,,,,,,,,,,,,,,,92.03028880599993,92.03036228500002,92.03036935900002,92.03606366600002,None,0,None,92.03629200399996,92.03632147199994,None,92.03638336999995,92.03641963099994,None,92.03648261499995,92.03650702799996,None,,,,,,,,,,,,,,,,,,,24,001,15,,2024-04-15_09h11.16.779,replicate_nsd,2023.2.3,60.88311716393717,2024-04-15 09h11.29.092305 -0400,
images/image_400_seed_1.png,21,0,1,0,1,"[9, 19, 31, 42, 56, 68, 69, 70, 71]",,,,,0,93,93,93,96.95304703499994,,,,,,,,,,,,,,,,,,,,,,,,,,,,,,,,,,,,,,,,,,,,,,,,92.03672196899993,92.03679520399999,92.03680237699996,92.04088741499993,None,0,None,92.04108537699994,92.04111328399995,None,92.04117621699993,92.04120962799993,None,92.04127222599993,92.04129594899996,None,,,,,,,,,,,,,,,,,,,24,001,15,,2024-04-15_09h11.16.779,replicate_nsd,2023.2.3,60.88311716393717,2024-04-15 09h11.29.092305 -0400,
images/image_241_seed_1.png,22,0,0,0,1,"[9, 19, 31, 42, 56, 68, 69, 70, 71]",,,,,0,94,94,94,96.95304703499994,,,,,,,,,,,,,,,,,,,,,,,,,,,,,,,,,,,,,,,,,,,,,,,,92.04149861600001,92.04156046699995,92.04156755999998,92.04673243599996,None,0,None,92.04692956999997,92.04695710399994,None,92.04702031499994,92.047053516,None,92.047116136,92.04714000199999,None,,,,,,,,,,,,,,,,,,,24,001,15,,2024-04-15_09h11.16.779,replicate_nsd,2023.2.3,60.88311716393717,2024-04-15 09h11.29.092305 -0400,
images/image_737_seed_1.png,23,0,0,0,1,"[9, 19, 31, 42, 56, 68, 69, 70, 71]",,,,,0,95,95,95,96.95304703499994,,,,,,,,,,,,,,,,,,,,,,,,,,,,,,,,,,,,,,,,,,,,,,,,92.04734390800002,92.04740691500001,92.04741405499999,92.05276260400001,None,0,None,92.05299539499993,92.05302398999993,None,92.05308663999995,92.05312338099998,None,92.05318663399999,92.05321201100003,None,,,,,,,,,,,,,,,,,,,24,001,15,,2024-04-15_09h11.16.779,replicate_nsd,2023.2.3,60.88311716393717,2024-04-15 09h11.29.092305 -0400,
images/image_93_seed_1.png,24,0,0,0,1,"[9, 19, 31, 42, 56, 68, 69, 70, 71]",,,,,0,96,96,96,96.95304703499994,,,,,,,,,,,,,,,,,,,,,,,,,,,,,,,,,,,,,,,,,,,,,,,,92.05343081000001,92.05350914999997,92.053516393,92.05885665199992,None,0,None,92.05909355999995,92.05912539500002,None,92.059188608,92.05922564699995,None,92.05928934399992,92.05931474800002,None,,,,,,,,,,,,,,,,,,,24,001,15,,2024-04-15_09h11.16.779,replicate_nsd,2023.2.3,60.88311716393717,2024-04-15 09h11.29.092305 -0400,
images/image_260_seed_1.png,25,0,0,0,1,"[9, 19, 31, 42, 56, 68, 69, 70, 71]",,,,,0,97,97,97,96.95304703499994,,,,,,,,,,,,,,,,,,,,,,,,,,,,,,,,,,,,,,,,,,,,,,,,92.05953392499998,92.05961187499997,92.05961889000002,92.06504134099998,None,0,None,92.06526882799994,92.06529695400002,None,92.065360382,92.06539667799996,None,92.06546240699993,92.06548674399994,None,,,,,,,,,,,,,,,,,,,24,001,15,,2024-04-15_09h11.16.779,replicate_nsd,2023.2.3,60.88311716393717,2024-04-15 09h11.29.092305 -0400,
images/image_447_seed_1.png,26,0,0,0,1,"[9, 19, 31, 42, 56, 68, 69, 70, 71]",,,,,0,98,98,98,96.95304703499994,,,,,,,,,,,,,,,,,,,,,,,,,,,,,,,,,,,,,,,,,,,,,,,,92.06570229099998,92.06577666499993,92.06578378099994,92.07103016199994,None,0,None,92.071257834,92.07128717499995,None,92.071349511,92.07138655300002,None,92.07144977799999,92.07147487700001,None,,,,,,,,,,,,,,,,,,,24,001,15,,2024-04-15_09h11.16.779,replicate_nsd,2023.2.3,60.88311716393717,2024-04-15 09h11.29.092305 -0400,
images/image_564_seed_1.png,27,0,0,0,1,"[9, 19, 31, 42, 56, 68, 69, 70, 71]",,,,,0,99,99,99,96.95304703499994,,,,,,,,,,,,,,,,,,,,,,,,,,,,,,,,,,,,,,,,,,,,,,,,92.07169029099998,92.07176362500002,92.07177066199995,92.07662138199998,None,0,None,92.07684816300002,92.07687634299998,None,92.076938574,92.07697457500001,None,92.07703678999997,92.07706127999995,None,,,,,,,,,,,,,,,,,,,24,001,15,,2024-04-15_09h11.16.779,replicate_nsd,2023.2.3,60.88311716393717,2024-04-15 09h11.29.092305 -0400,
images/image_314_seed_1.png,28,0,0,0,1,"[9, 19, 31, 42, 56, 68, 69, 70, 71]",,,,,0,100,100,100,96.95304703499994,,,,,,,,,,,,,,,,,,,,,,,,,,,,,,,,,,,,,,,,,,,,,,,,92.07727493599998,92.07734864299994,92.07735584299996,92.08293353900001,None,0,None,92.083163678,92.08319267599995,None,92.08325510999998,92.08329114799994,None,92.08335384999998,92.08337854199999,None,,,,,,,,,,,,,,,,,,,24,001,15,,2024-04-15_09h11.16.779,replicate_nsd,2023.2.3,60.88311716393717,2024-04-15 09h11.29.092305 -0400,
images/image_681_seed_1.png,29,0,0,0,1,"[9, 19, 31, 42, 56, 68, 69, 70, 71]",,,,,0,101,101,101,96.95304703499994,,,,,,,,,,,,,,,,,,,,,,,,,,,,,,,,,,,,,,,,,,,,,,,,92.083597628,92.08367370600001,92.08368062699992,92.088875745,None,0,None,92.08910073799996,92.08912909599997,None,92.08919171999992,92.08922775299993,None,92.08929012199997,92.08931422,None,,,,,,,,,,,,,,,,,,,24,001,15,,2024-04-15_09h11.16.779,replicate_nsd,2023.2.3,60.88311716393717,2024-04-15 09h11.29.092305 -0400,
images/image_170_seed_1.png,30,0,0,0,1,"[9, 19, 31, 42, 56, 68, 69, 70, 71]",,,,,0,102,102,102,96.95304703499994,,,,,,,,,,,,,,,,,,,,,,,,,,,,,,,,,,,,,,,,,,,,,,,,92.08952792299999,92.08960106099994,92.08960805899994,92.094869173,None,0,None,92.09509408199995,92.09512263399995,None,92.09588789499992,92.09592720599994,None,92.09599437199995,92.09601882699997,None,,,,,,,,,,,,,,,,,,,24,001,15,,2024-04-15_09h11.16.779,replicate_nsd,2023.2.3,60.88311716393717,2024-04-15 09h11.29.092305 -0400,
blank.jpg,31,1,0,0,1,"[9, 19, 31, 42, 56, 68, 69, 70, 71]",,,,,0,103,103,103,96.95304703499994,,,,,,,,,,,,,,,,,,,,,,,,,,,,,,,,,,,,,,,,,,,,,,,,92.09623500399994,92.096310195,92.09631724799999,92.09836223299999,None,0,None,92.09855954800003,92.09858739999993,None,92.09865016399999,92.098685091,None,92.09874725899999,92.098770726,None,,,,,,,,,,,,,,,,,,,24,001,15,,2024-04-15_09h11.16.779,replicate_nsd,2023.2.3,60.88311716393717,2024-04-15 09h11.29.092305 -0400,
images/image_312_seed_1.png,32,0,0,0,1,"[9, 19, 31, 42, 56, 68, 69, 70, 71]",,,,,0,104,104,104,96.95304703499994,,,,,,,,,,,,,,,,,,,,,,,,,,,,,,,,,,,,,,,,,,,,,,,,92.09897896500001,92.09905063899998,92.09905768499993,92.10458717899996,None,0,None,92.10481808700001,92.10484828999995,None,92.10491190099992,92.10494812899992,None,92.10501075899992,92.10503487300002,None,,,,,,,,,,,,,,,,,,,24,001,15,,2024-04-15_09h11.16.779,replicate_nsd,2023.2.3,60.88311716393717,2024-04-15 09h11.29.092305 -0400,
images/image_3_seed_1.png,33,0,0,0,1,"[9, 19, 31, 42, 56, 68, 69, 70, 71]",,,,,0,105,105,105,96.95304703499994,,,,,,,,,,,,,,,,,,,,,,,,,,,,,,,,,,,,,,,,,,,,,,,,92.10525063599994,92.10532890299999,92.10533607899993,92.11076204199992,None,0,None,92.11098927,92.11101757699998,None,92.11107960100003,92.111116068,None,92.11117846399998,92.11120279099998,None,,,,,,,,,,,,,,,,,,,24,001,15,,2024-04-15_09h11.16.779,replicate_nsd,2023.2.3,60.88311716393717,2024-04-15 09h11.29.092305 -0400,
images/image_205_seed_1.png,34,0,0,0,1,"[9, 19, 31, 42, 56, 68, 69, 70, 71]",,,,,0,106,106,106,96.95304703499994,,,,,,,,,,,,,,,,,,,,,,,,,,,,,,,,,,,,,,,,,,,,,,,,92.11141849399996,92.11149099099998,92.11149807999993,92.11696786999994,None,0,None,92.11719510199998,92.117223739,None,92.11728710399996,92.117323145,None,92.11738640499993,92.11741091499994,None,,,,,,,,,,,,,,,,,,,24,001,15,,2024-04-15_09h11.16.779,replicate_nsd,2023.2.3,60.88311716393717,2024-04-15 09h11.29.092305 -0400,
images/image_269_seed_1.png,35,0,0,0,1,"[9, 19, 31, 42, 56, 68, 69, 70, 71]",,,,,0,107,107,107,96.95304703499994,,,,,,,,,,,,,,,,,,,,,,,,,,,,,,,,,,,,,,,,,,,,,,,,92.11762742899998,92.11770144100001,92.11770845000001,92.12291728799994,None,0,None,92.12314434999996,92.12317281899993,None,92.12323606199993,92.12327329200002,None,92.12333559499996,92.12336036599993,None,,,,,,,,,,,,,,,,,,,24,001,15,,2024-04-15_09h11.16.779,replicate_nsd,2023.2.3,60.88311716393717,2024-04-15 09h11.29.092305 -0400,
images/image_271_seed_1.png,36,0,0,0,1,"[9, 19, 31, 42, 56, 68, 69, 70, 71]",,,,,0,108,108,108,96.95304703499994,,,,,,,,,,,,,,,,,,,,,,,,,,,,,,,,,,,,,,,,,,,,,,,,92.12360155299996,92.12367545899997,92.12368249099995,92.128949853,None,0,None,92.129180679,92.12920941499999,None,92.129271959,92.12930837900001,None,92.12937102000001,92.12939488699999,None,,,,,,,,,,,,,,,,,,,24,001,15,,2024-04-15_09h11.16.779,replicate_nsd,2023.2.3,60.88311716393717,2024-04-15 09h11.29.092305 -0400,
images/image_642_seed_1.png,37,0,0,0,1,"[9, 19, 31, 42, 56, 68, 69, 70, 71]",,,,,0,109,109,109,96.95304703499994,,,,,,,,,,,,,,,,,,,,,,,,,,,,,,,,,,,,,,,,,,,,,,,,92.12961085699999,92.12968457699992,92.12969161499996,92.13512430000003,None,0,None,92.13535346799995,92.13538258999995,None,92.13544586399996,92.13548279500003,None,92.13554603499995,92.13557043799995,None,,,,,,,,,,,,,,,,,,,24,001,15,,2024-04-15_09h11.16.779,replicate_nsd,2023.2.3,60.88311716393717,2024-04-15 09h11.29.092305 -0400,
images/image_388_seed_1.png,38,0,1,0,1,"[9, 19, 31, 42, 56, 68, 69, 70, 71]",,,,,0,110,110,110,96.95304703499994,,,,,,,,,,,,,,,,,,,,,,,,,,,,,,,,,,,,,,,,,,,,,,,,92.13578886699997,92.135865352,92.13587225200001,92.13995753699999,None,0,None,92.14016672499997,92.14020458799996,None,92.14026939299993,92.14030348799997,None,92.14036559399995,92.140389196,None,,,,,,,,,,,,,,,,,,,24,001,15,,2024-04-15_09h11.16.779,replicate_nsd,2023.2.3,60.88311716393717,2024-04-15 09h11.29.092305 -0400,
images/image_449_seed_1.png,39,0,0,0,1,"[9, 19, 31, 42, 56, 68, 69, 70, 71]",,,,,0,111,111,111,96.95304703499994,,,,,,,,,,,,,,,,,,,,,,,,,,,,,,,,,,,,,,,,,,,,,,,,92.14059410499999,92.14065756799994,92.1406647,92.14582551599995,None,0,None,92.146053015,92.14608157399994,None,92.14614410399997,92.14618057500002,None,92.14624328399998,92.14626758999998,None,,,,,,,,,,,,,,,,,,,24,001,15,,2024-04-15_09h11.16.779,replicate_nsd,2023.2.3,60.88311716393717,2024-04-15 09h11.29.092305 -0400,
images/image_109_seed_1.png,40,0,0,0,1,"[9, 19, 31, 42, 56, 68, 69, 70, 71]",,,,,0,112,112,112,96.95304703499994,,,,,,,,,,,,,,,,,,,,,,,,,,,,,,,,,,,,,,,,,,,,,,,,92.14648255299994,92.14655988999993,92.14656690300001,92.15072282999995,None,0,None,92.15091998599996,92.15094759199997,None,92.151009467,92.15104342699999,None,92.15110551199996,92.151129234,None,,,,,,,,,,,,,,,,,,,24,001,15,,2024-04-15_09h11.16.779,replicate_nsd,2023.2.3,60.88311716393717,2024-04-15 09h11.29.092305 -0400,
images/image_471_seed_1.png,41,0,0,0,1,"[9, 19, 31, 42, 56, 68, 69, 70, 71]",,,,,0,113,113,113,96.95304703499994,,,,,,,,,,,,,,,,,,,,,,,,,,,,,,,,,,,,,,,,,,,,,,,,92.151336593,92.15140230899999,92.151409371,92.15566743399995,None,0,None,92.15587783499996,92.15590653200002,None,92.15596844899994,92.15600397799994,None,92.15606605999994,92.15608995499997,None,,,,,,,,,,,,,,,,,,,24,001,15,,2024-04-15_09h11.16.779,replicate_nsd,2023.2.3,60.88311716393717,2024-04-15 09h11.29.092305 -0400,
blank.jpg,42,1,0,0,1,"[9, 19, 31, 42, 56, 68, 69, 70, 71]",,,,,0,114,114,114,96.95304703499994,,,,,,,,,,,,,,,,,,,,,,,,,,,,,,,,,,,,,,,,,,,,,,,,92.156299386,92.156370003,92.15637714000002,92.158390629,None,0,None,92.15858580299994,92.15861414799997,None,92.15867512299997,92.15870865699992,None,92.15876982299994,92.158793189,None,,,,,,,,,,,,,,,,,,,24,001,15,,2024-04-15_09h11.16.779,replicate_nsd,2023.2.3,60.88311716393717,2024-04-15 09h11.29.092305 -0400,
images/image_729_seed_1.png,43,0,0,0,1,"[9, 19, 31, 42, 56, 68, 69, 70, 71]",,,,,0,115,115,115,96.95304703499994,,,,,,,,,,,,,,,,,,,,,,,,,,,,,,,,,,,,,,,,,,,,,,,,92.15899781099995,92.15906180100001,92.15906893599993,92.16681907499992,None,0,None,92.16717063700003,92.16722122499993,None,92.16733357199996,92.16739349299996,None,92.16750511700002,92.16754728000001,None,,,,,,,,,,,,,,,,,,,24,001,15,,2024-04-15_09h11.16.779,replicate_nsd,2023.2.3,60.88311716393717,2024-04-15 09h11.29.092305 -0400,
images/image_509_seed_1.png,44,0,0,0,1,"[9, 19, 31, 42, 56, 68, 69, 70, 71]",,,,,0,116,116,116,96.95304703499994,,,,,,,,,,,,,,,,,,,,,,,,,,,,,,,,,,,,,,,,,,,,,,,,92.16790953700001,92.16802102999998,92.16803412699994,92.17571962299996,None,0,None,92.17599317399993,92.17602734299999,None,92.176098895,92.17614059699997,None,92.17621245600003,92.176241087,None,,,,,,,,,,,,,,,,,,,24,001,15,,2024-04-15_09h11.16.779,replicate_nsd,2023.2.3,60.88311716393717,2024-04-15 09h11.29.092305 -0400,
images/image_365_seed_1.png,45,0,0,0,1,"[9, 19, 31, 42, 56, 68, 69, 70, 71]",,,,,0,117,117,117,96.95304703499994,,,,,,,,,,,,,,,,,,,,,,,,,,,,,,,,,,,,,,,,,,,,,,,,92.17648716299993,92.17657115099996,92.17657941699997,92.18177484199998,None,0,None,92.18202817399992,92.18206113399992,None,92.18213297499994,92.18217490899997,None,92.18225079499996,92.18228957399992,None,,,,,,,,,,,,,,,,,,,24,001,15,,2024-04-15_09h11.16.779,replicate_nsd,2023.2.3,60.88311716393717,2024-04-15 09h11.29.092305 -0400,
images/image_571_seed_1.png,46,0,0,0,1,"[9, 19, 31, 42, 56, 68, 69, 70, 71]",,,,,0,118,118,118,96.95304703499994,,,,,,,,,,,,,,,,,,,,,,,,,,,,,,,,,,,,,,,,,,,,,,,,92.18250221099993,92.18257652299997,92.18258350199994,92.18780289699998,None,0,None,92.18803064299993,92.188060199,None,92.18812298199998,92.18815941599996,None,92.18822217299999,92.18824648399993,None,,,,,,,,,,,,,,,,,,,24,001,15,,2024-04-15_09h11.16.779,replicate_nsd,2023.2.3,60.88311716393717,2024-04-15 09h11.29.092305 -0400,
images/image_183_seed_1.png,47,0,0,0,1,"[9, 19, 31, 42, 56, 68, 69, 70, 71]",,,,,0,119,119,119,96.95304703499994,,,,,,,,,,,,,,,,,,,,,,,,,,,,,,,,,,,,,,,,,,,,,,,,92.18846361199996,92.188539634,92.18854670500002,92.19350315999998,None,0,None,92.19372590900002,92.19375400199999,None,92.19381514499992,92.19385139299993,None,92.19391336199999,92.19393718799995,None,,,,,,,,,,,,,,,,,,,24,001,15,,2024-04-15_09h11.16.779,replicate_nsd,2023.2.3,60.88311716393717,2024-04-15 09h11.29.092305 -0400,
images/image_91_seed_1.png,48,0,0,0,1,"[9, 19, 31, 42, 56, 68, 69, 70, 71]",,,,,0,120,120,120,96.95304703499994,,,,,,,,,,,,,,,,,,,,,,,,,,,,,,,,,,,,,,,,,,,,,,,,92.19414952699992,92.19422539300001,92.19423256799996,92.19957494899995,None,0,None,92.199802471,92.19983171799993,None,92.19989376499996,92.19993027800001,None,92.19999241599999,92.20001661599997,None,,,,,,,,,,,,,,,,,,,24,001,15,,2024-04-15_09h11.16.779,replicate_nsd,2023.2.3,60.88311716393717,2024-04-15 09h11.29.092305 -0400,
images/image_403_seed_1.png,49,0,0,0,1,"[9, 19, 31, 42, 56, 68, 69, 70, 71]",,,,,0,121,121,121,96.95304703499994,,,,,,,,,,,,,,,,,,,,,,,,,,,,,,,,,,,,,,,,,,,,,,,,92.20023104899997,92.20030939999992,92.20031654499996,92.20558340299999,None,0,None,92.205808435,92.20583695300002,None,92.20589917400002,92.20593570400001,None,92.20599788999994,92.20602193899992,None,,,,,,,,,,,,,,,,,,,24,001,15,,2024-04-15_09h11.16.779,replicate_nsd,2023.2.3,60.88311716393717,2024-04-15 09h11.29.092305 -0400,
images/image_482_seed_1.png,50,0,0,0,1,"[9, 19, 31, 42, 56, 68, 69, 70, 71]",,,,,0,122,122,122,96.95304703499994,,,,,,,,,,,,,,,,,,,,,,,,,,,,,,,,,,,,,,,,,,,,,,,,92.20623478999994,92.20635126100001,92.20635888499999,92.21171114699996,None,0,None,92.21194072799995,92.21197049199998,None,92.21203306500001,92.21207033600001,None,92.212133515,92.21215871999993,None,,,,,,,,,,,,,,,,,,,24,001,15,,2024-04-15_09h11.16.779,replicate_nsd,2023.2.3,60.88311716393717,2024-04-15 09h11.29.092305 -0400,
images/image_438_seed_1.png,51,0,0,0,1,"[9, 19, 31, 42, 56, 68, 69, 70, 71]",,,,,0,123,123,123,96.95304703499994,,,,,,,,,,,,,,,,,,,,,,,,,,,,,,,,,,,,,,,,,,,,,,,,92.21237672500001,92.21245275799993,92.21245993799994,92.21727177799994,None,0,None,92.217463877,92.217491903,None,92.21755295999992,92.21758742099996,None,92.21764878800002,92.21767221099992,None,,,,,,,,,,,,,,,,,,,24,001,15,,2024-04-15_09h11.16.779,replicate_nsd,2023.2.3,60.88311716393717,2024-04-15 09h11.29.092305 -0400,
images/image_380_seed_1.png,52,0,0,0,1,"[9, 19, 31, 42, 56, 68, 69, 70, 71]",,,,,0,124,124,124,96.95304703499994,,,,,,,,,,,,,,,,,,,,,,,,,,,,,,,,,,,,,,,,,,,,,,,,92.21787398200001,92.21794139899998,92.21794843399994,92.22307061599997,None,0,None,92.22329778999995,92.22332737299996,None,92.22340150299999,92.22344089,None,92.22350473699998,92.22354011999994,None,,,,,,,,,,,,,,,,,,,24,001,15,,2024-04-15_09h11.16.779,replicate_nsd,2023.2.3,60.88311716393717,2024-04-15 09h11.29.092305 -0400,
images/image_472_seed_1.png,53,0,0,0,1,"[9, 19, 31, 42, 56, 68, 69, 70, 71]",,,,,0,125,125,125,96.95304703499994,,,,,,,,,,,,,,,,,,,,,,,,,,,,,,,,,,,,,,,,,,,,,,,,92.22375851100003,92.22383443399997,92.22384189299999,92.228596015,None,0,None,92.22879582600001,92.22882388300002,None,92.22888526700001,92.22891921400003,None,92.22898094200002,92.22900456699995,None,,,,,,,,,,,,,,,,,,,24,001,15,,2024-04-15_09h11.16.779,replicate_nsd,2023.2.3,60.88311716393717,2024-04-15 09h11.29.092305 -0400,
images/image_320_seed_1.png,54,0,0,0,1,"[9, 19, 31, 42, 56, 68, 69, 70, 71]",,,,,0,126,126,126,96.95304703499994,,,,,,,,,,,,,,,,,,,,,,,,,,,,,,,,,,,,,,,,,,,,,,,,92.22921116600003,92.22927582299997,92.22928281399993,92.23430199500001,None,0,None,92.23452093599997,92.23454942199999,None,92.23461031199997,92.23464538099995,None,92.23470626199992,92.23473014000001,None,,,,,,,,,,,,,,,,,,,24,001,15,,2024-04-15_09h11.16.779,replicate_nsd,2023.2.3,60.88311716393717,2024-04-15 09h11.29.092305 -0400,
images/image_125_seed_1.png,55,0,0,0,1,"[9, 19, 31, 42, 56, 68, 69, 70, 71]",,,,,0,127,127,127,96.95304703499994,,,,,,,,,,,,,,,,,,,,,,,,,,,,,,,,,,,,,,,,,,,,,,,,92.23494008199998,92.23501487199997,92.23502182999994,92.24079593299996,None,0,None,92.24103312199998,92.24106624499996,None,92.24115148199996,92.24120184399999,None,92.24129625799992,92.24132966000002,None,,,,,,,,,,,,,,,,,,,24,001,15,,2024-04-15_09h11.16.779,replicate_nsd,2023.2.3,60.88311716393717,2024-04-15 09h11.29.092305 -0400,
blank.jpg,56,1,0,0,1,"[9, 19, 31, 42, 56, 68, 69, 70, 71]",,,,,0,128,128,128,96.95304703499994,,,,,,,,,,,,,,,,,,,,,,,,,,,,,,,,,,,,,,,,,,,,,,,,92.24160470699996,92.24168496099992,92.24169225699995,92.24376780900002,None,0,None,92.24396658299997,92.24399449399994,None,92.24405638399992,92.24409045799996,None,92.24415250599998,92.24417599899994,None,,,,,,,,,,,,,,,,,,,24,001,15,,2024-04-15_09h11.16.779,replicate_nsd,2023.2.3,60.88311716393717,2024-04-15 09h11.29.092305 -0400,
images/image_502_seed_1.png,57,0,0,0,1,"[9, 19, 31, 42, 56, 68, 69, 70, 71]",,,,,0,129,129,129,96.95304703499994,,,,,,,,,,,,,,,,,,,,,,,,,,,,,,,,,,,,,,,,,,,,,,,,92.24438125899997,92.24444584999992,92.24445284399997,92.25022340599992,None,0,None,92.25045331000001,92.25048296399996,None,92.25054501199998,92.25058196999998,None,92.25064396599998,92.25066830799994,None,,,,,,,,,,,,,,,,,,,24,001,15,,2024-04-15_09h11.16.779,replicate_nsd,2023.2.3,60.88311716393717,2024-04-15 09h11.29.092305 -0400,
images/image_169_seed_1.png,58,0,0,0,1,"[9, 19, 31, 42, 56, 68, 69, 70, 71]",,,,,0,130,130,130,96.95304703499994,,,,,,,,,,,,,,,,,,,,,,,,,,,,,,,,,,,,,,,,,,,,,,,,92.25088264299995,92.25096056299992,92.25096780000001,92.25653320599997,None,0,None,92.25677640200001,92.25680662000002,None,92.25689638099993,92.25693560799994,None,92.25700409399997,92.257030396,None,,,,,,,,,,,,,,,,,,,24,001,15,,2024-04-15_09h11.16.779,replicate_nsd,2023.2.3,60.88311716393717,2024-04-15 09h11.29.092305 -0400,
images/image_389_seed_1.png,59,0,0,0,1,"[9, 19, 31, 42, 56, 68, 69, 70, 71]",,,,,0,131,131,131,96.95304703499994,,,,,,,,,,,,,,,,,,,,,,,,,,,,,,,,,,,,,,,,,,,,,,,,92.257249527,92.25732708499993,92.25733427799992,92.26227789099994,None,0,None,92.26250338099999,92.26253635,None,92.26260785,92.26264739800001,None,92.26271902799999,92.26274601900002,None,,,,,,,,,,,,,,,,,,,24,001,15,,2024-04-15_09h11.16.779,replicate_nsd,2023.2.3,60.88311716393717,2024-04-15 09h11.29.092305 -0400,
images/image_109_seed_1.png,60,0,1,0,1,"[9, 19, 31, 42, 56, 68, 69, 70, 71]",,,,,0,132,132,132,96.95304703499994,,,,,,,,,,,,,,,,,,,,,,,,,,,,,,,,,,,,,,,,,,,,,,,,92.26298328899998,92.26305625199996,92.26306451200003,92.26684144699993,None,0,None,92.26703708000002,92.26706508999996,None,92.26712552799995,92.26715978999994,None,92.26722080100001,92.26724471599994,None,,,,,,,,,,,,,,,,,,,24,001,15,,2024-04-15_09h11.16.779,replicate_nsd,2023.2.3,60.88311716393717,2024-04-15 09h11.29.092305 -0400,
images/image_663_seed_1.png,61,0,0,0,1,"[9, 19, 31, 42, 56, 68, 69, 70, 71]",,,,,0,133,133,133,96.95304703499994,,,,,,,,,,,,,,,,,,,,,,,,,,,,,,,,,,,,,,,,,,,,,,,,92.26744811399999,92.26751162699998,92.26751889000002,92.273033844,None,0,None,92.27326236700003,92.273291481,None,92.27335475099994,92.27340274699998,None,92.273467762,92.27349263199994,None,,,,,,,,,,,,,,,,,,,24,001,15,,2024-04-15_09h11.16.779,replicate_nsd,2023.2.3,60.88311716393717,2024-04-15 09h11.29.092305 -0400,
images/image_740_seed_1.png,62,0,0,0,1,"[9, 19, 31, 42, 56, 68, 69, 70, 71]",,,,,0,134,134,134,96.95304703499994,,,,,,,,,,,,,,,,,,,,,,,,,,,,,,,,,,,,,,,,,,,,,,,,92.27372151700001,92.27379705299995,92.273804284,92.27875561299993,None,0,None,92.27896768200003,92.27899654700002,None,92.27905807799993,92.27909346399997,None,92.27915627799996,92.27918023400002,None,,,,,,,,,,,,,,,,,,,24,001,15,,2024-04-15_09h11.16.779,replicate_nsd,2023.2.3,60.88311716393717,2024-04-15 09h11.29.092305 -0400,
images/image_610_seed_1.png,63,0,0,0,1,"[9, 19, 31, 42, 56, 68, 69, 70, 71]",,,,,0,135,135,135,96.95304703499994,,,,,,,,,,,,,,,,,,,,,,,,,,,,,,,,,,,,,,,,,,,,,,,,92.27938979800001,92.27945928099996,92.27946647599993,92.28480118699997,None,0,None,92.28502921199993,92.28505763999999,None,92.28512070599993,92.28515765399993,None,92.28522068699999,92.28524499599996,None,,,,,,,,,,,,,,,,,,,24,001,15,,2024-04-15_09h11.16.779,replicate_nsd,2023.2.3,60.88311716393717,2024-04-15 09h11.29.092305 -0400,
images/image_304_seed_1.png,64,0,1,0,1,"[9, 19, 31, 42, 56, 68, 69, 70, 71]",,,,,0,136,136,136,96.95304703499994,,,,,,,,,,,,,,,,,,,,,,,,,,,,,,,,,,,,,,,,,,,,,,,,92.285460651,92.28553514600003,92.28554229399992,92.28954762299998,None,0,None,92.28976725999996,92.28979631099992,None,92.28985843700002,92.28989412499993,None,92.28995690399995,92.289981442,None,,,,,,,,,,,,,,,,,,,24,001,15,,2024-04-15_09h11.16.779,replicate_nsd,2023.2.3,60.88311716393717,2024-04-15 09h11.29.092305 -0400,
images/image_401_seed_1.png,65,0,0,0,1,"[9, 19, 31, 42, 56, 68, 69, 70, 71]",,,,,0,137,137,137,96.95304703499994,,,,,,,,,,,,,,,,,,,,,,,,,,,,,,,,,,,,,,,,,,,,,,,,92.29021519699995,92.29028809900001,92.29029538099996,92.29577787099993,None,0,None,92.29600459999995,92.29603330099997,None,92.29609434099996,92.296131285,None,92.29619345799995,92.296217448,None,,,,,,,,,,,,,,,,,,,24,001,15,,2024-04-15_09h11.16.779,replicate_nsd,2023.2.3,60.88311716393717,2024-04-15 09h11.29.092305 -0400,
images/image_600_seed_1.png,66,0,0,0,1,"[9, 19, 31, 42, 56, 68, 69, 70, 71]",,,,,0,138,138,138,96.95304703499994,,,,,,,,,,,,,,,,,,,,,,,,,,,,,,,,,,,,,,,,,,,,,,,,92.29643173800002,92.29651009999998,92.29651737400002,92.30173176099993,None,0,None,92.30195396099998,92.30198219700003,None,92.30204386899993,92.30208037499995,None,92.302142248,92.30216615999996,None,,,,,,,,,,,,,,,,,,,24,001,15,,2024-04-15_09h11.16.779,replicate_nsd,2023.2.3,60.88311716393717,2024-04-15 09h11.29.092305 -0400,
images/image_334_seed_1.png,67,0,0,0,1,"[9, 19, 31, 42, 56, 68, 69, 70, 71]",,,,,0,139,139,139,96.95304703499994,,,,,,,,,,,,,,,,,,,,,,,,,,,,,,,,,,,,,,,,,,,,,,,,92.30237945099998,92.30245643499995,92.30246364499999,92.30761319199996,None,0,None,92.30783724699995,92.30786584499992,None,92.30792763699992,92.30796370899998,None,92.30802542899994,92.30804953899997,None,,,,,,,,,,,,,,,,,,,24,001,15,,2024-04-15_09h11.16.779,replicate_nsd,2023.2.3,60.88311716393717,2024-04-15 09h11.29.092305 -0400,
blank.jpg,68,1,0,0,1,"[9, 19, 31, 42, 56, 68, 69, 70, 71]",,,,,0,140,140,140,96.95304703499994,,,,,,,,,,,,,,,,,,,,,,,,,,,,,,,,,,,,,,,,,,,,,,,,92.30826479099994,92.30834296,92.30835012,92.31037789499999,None,0,None,92.31058032599992,92.31060795099995,None,92.31066932800002,92.31070377699996,None,92.31076547800001,92.310789065,None,,,,,,,,,,,,,,,,,,,24,001,15,,2024-04-15_09h11.16.779,replicate_nsd,2023.2.3,60.88311716393717,2024-04-15 09h11.29.092305 -0400,
blank.jpg,69,1,0,0,1,"[9, 19, 31, 42, 56, 68, 69, 70, 71]",,,,,0,141,141,141,96.95304703499994,,,,,,,,,,,,,,,,,,,,,,,,,,,,,,,,,,,,,,,,,,,,,,,,92.31103932099995,92.31110982400003,92.31111703900001,92.31307642599995,None,0,None,92.31326751400002,92.31329527100002,None,92.31335644199999,92.31338941000001,None,92.31345069899999,92.31347394900001,None,,,,,,,,,,,,,,,,,,,24,001,15,,2024-04-15_09h11.16.779,replicate_nsd,2023.2.3,60.88311716393717,2024-04-15 09h11.29.092305 -0400,
blank.jpg,70,1,0,0,1,"[9, 19, 31, 42, 56, 68, 69, 70, 71]",,,,,0,142,142,142,96.95304703499994,,,,,,,,,,,,,,,,,,,,,,,,,,,,,,,,,,,,,,,,,,,,,,,,92.31367592899994,92.31374039799994,92.31374739799992,92.31561374499995,None,0,None,92.31583362699996,92.315862734,None,92.31592460599995,92.315961174,None,92.31602365200001,92.31604795399994,None,,,,,,,,,,,,,,,,,,,24,001,15,,2024-04-15_09h11.16.779,replicate_nsd,2023.2.3,60.88311716393717,2024-04-15 09h11.29.092305 -0400,
blank.jpg,71,1,0,1,1,"[9, 19, 31, 42, 56, 68, 69, 70, 71]",,,,,0,143,143,143,96.95304703499994,,,,,,,,,,,,,,,,,,,,,,,,,,,,,,,,,,,,,,,,,,,,,,,,92.31626234299995,92.31633703199998,92.31634425799996,92.31831099399994,None,0,None,92.31853060499998,92.31855982000002,None,92.31862141299996,92.31865882599993,None,92.31872173199997,92.31874603699998,None,,,,,,,,,,,,,,,,,,,24,001,15,,2024-04-15_09h11.16.779,replicate_nsd,2023.2.3,60.88311716393717,2024-04-15 09h11.29.092305 -0400,
images/image_428_seed_1.png,0,0,0,0,2,"[9, 19, 29, 39, 49, 59, 68, 69, 70, 71]",,,,,0,144,144,144,96.95304703499994,,,,,,,,,,,,,,,,,,,,,,,,,,,,,,,,,,,,,,,,,,,,,,,,92.31895906099999,92.319031688,92.31903902599993,92.32461214199998,None,0,None,92.32483973699993,92.32486920600002,None,92.324931644,92.32496917599997,None,92.325032416,92.32505744100001,None,,,,,,,,,,,,,,,,,,,24,001,15,,2024-04-15_09h11.16.779,replicate_nsd,2023.2.3,60.88311716393717,2024-04-15 09h11.29.092305 -0400,
images/image_30_seed_1.png,1,0,0,0,2,"[9, 19, 29, 39, 49, 59, 68, 69, 70, 71]",,,,,0,145,145,145,96.95304703499994,,,,,,,,,,,,,,,,,,,,,,,,,,,,,,,,,,,,,,,,,,,,,,,,92.32528293199994,92.32536096599995,92.32536796900001,92.330358607,None,0,None,92.33055440499993,92.33058237699993,None,92.33064441299996,92.33067873899995,None,92.33074028499993,92.33076389999997,None,,,,,,,,,,,,,,,,,,,24,001,15,,2024-04-15_09h11.16.779,replicate_nsd,2023.2.3,60.88311716393717,2024-04-15 09h11.29.092305 -0400,
images/image_185_seed_1.png,2,0,0,0,2,"[9, 19, 29, 39, 49, 59, 68, 69, 70, 71]",,,,,0,146,146,146,96.95304703499994,,,,,,,,,,,,,,,,,,,,,,,,,,,,,,,,,,,,,,,,,,,,,,,,92.33097211999996,92.33104696199996,92.33105389000002,92.334865788,None,0,None,92.33506022799997,92.33508802899996,None,92.33514908299992,92.33518326499996,None,92.33524446899992,92.335268176,None,,,,,,,,,,,,,,,,,,,24,001,15,,2024-04-15_09h11.16.779,replicate_nsd,2023.2.3,60.88311716393717,2024-04-15 09h11.29.092305 -0400,
images/image_167_seed_1.png,3,0,0,0,2,"[9, 19, 29, 39, 49, 59, 68, 69, 70, 71]",,,,,0,147,147,147,96.95304703499994,,,,,,,,,,,,,,,,,,,,,,,,,,,,,,,,,,,,,,,,,,,,,,,,92.33547181199992,92.33553400300002,92.335541057,92.34068547899994,None,0,None,92.34091140099997,92.34094070799995,None,92.34100251899997,92.34103882099998,None,92.34110089599994,92.341124487,None,,,,,,,,,,,,,,,,,,,24,001,15,,2024-04-15_09h11.16.779,replicate_nsd,2023.2.3,60.88311716393717,2024-04-15 09h11.29.092305 -0400,
images/image_604_seed_1.png,4,0,0,0,2,"[9, 19, 29, 39, 49, 59, 68, 69, 70, 71]",,,,,0,148,148,148,96.95304703499994,,,,,,,,,,,,,,,,,,,,,,,,,,,,,,,,,,,,,,,,,,,,,,,,92.34133948599992,92.34141256099997,92.34141960699992,92.3462581,None,0,None,92.346480929,92.34651011699998,None,92.34657165199997,92.34660753599996,None,92.346668852,92.34669284799998,None,,,,,,,,,,,,,,,,,,,24,001,15,,2024-04-15_09h11.16.779,replicate_nsd,2023.2.3,60.88311716393717,2024-04-15 09h11.29.092305 -0400,
images/image_471_seed_1.png,5,0,1,0,2,"[9, 19, 29, 39, 49, 59, 68, 69, 70, 71]",,,,,0,149,149,149,96.95304703499994,,,,,,,,,,,,,,,,,,,,,,,,,,,,,,,,,,,,,,,,,,,,,,,,92.34690676899993,92.34698490599999,92.34699200499995,92.35043177199998,None,0,None,92.35062454599995,92.350652233,None,92.35071501799996,92.350748425,None,92.35080990099993,92.35083346900001,None,,,,,,,,,,,,,,,,,,,24,001,15,,2024-04-15_09h11.16.779,replicate_nsd,2023.2.3,60.88311716393717,2024-04-15 09h11.29.092305 -0400,
images/image_458_seed_1.png,6,0,0,0,2,"[9, 19, 29, 39, 49, 59, 68, 69, 70, 71]",,,,,0,150,150,150,96.95304703499994,,,,,,,,,,,,,,,,,,,,,,,,,,,,,,,,,,,,,,,,,,,,,,,,92.35103527299998,92.35110116800001,92.351108382,92.35619195200002,None,0,None,92.35641907599995,92.35644845399997,None,92.35651071500001,92.35654873299995,None,92.35661085100003,92.35663511400003,None,,,,,,,,,,,,,,,,,,,24,001,15,,2024-04-15_09h11.16.779,replicate_nsd,2023.2.3,60.88311716393717,2024-04-15 09h11.29.092305 -0400,
images/image_246_seed_1.png,7,0,0,0,2,"[9, 19, 29, 39, 49, 59, 68, 69, 70, 71]",,,,,0,151,151,151,96.95304703499994,,,,,,,,,,,,,,,,,,,,,,,,,,,,,,,,,,,,,,,,,,,,,,,,92.35687413899996,92.35695242899999,92.35695964799993,92.36167375000002,None,0,None,92.361868061,92.361895699,None,92.36195663199999,92.36199057499994,None,92.36205221599994,92.36207608299992,None,,,,,,,,,,,,,,,,,,,24,001,15,,2024-04-15_09h11.16.779,replicate_nsd,2023.2.3,60.88311716393717,2024-04-15 09h11.29.092305 -0400,
images/image_739_seed_1.png,8,0,0,0,2,"[9, 19, 29, 39, 49, 59, 68, 69, 70, 71]",,,,,0,152,152,152,96.95304703499994,,,,,,,,,,,,,,,,,,,,,,,,,,,,,,,,,,,,,,,,,,,,,,,,92.36227750399996,92.36234031100003,92.36234736400002,92.36759105700003,None,0,None,92.36782059299992,92.36784982400002,None,92.36791254499997,92.36795022399997,None,92.36801241,92.36803669099993,None,,,,,,,,,,,,,,,,,,,24,001,15,,2024-04-15_09h11.16.779,replicate_nsd,2023.2.3,60.88311716393717,2024-04-15 09h11.29.092305 -0400,
blank.jpg,9,1,0,0,2,"[9, 19, 29, 39, 49, 59, 68, 69, 70, 71]",,,,,0,153,153,153,96.95304703499994,,,,,,,,,,,,,,,,,,,,,,,,,,,,,,,,,,,,,,,,,,,,,,,,92.36825230399995,92.36832847999995,92.36833573199999,92.370445851,None,0,None,92.37065721900001,92.370685804,None,92.37075391399992,92.37078942699998,None,92.37085248799997,92.37087659500003,None,,,,,,,,,,,,,,,,,,,24,001,15,,2024-04-15_09h11.16.779,replicate_nsd,2023.2.3,60.88311716393717,2024-04-15 09h11.29.092305 -0400,
images/image_64_seed_1.png,10,0,1,0,2,"[9, 19, 29, 39, 49, 59, 68, 69, 70, 71]",,,,,0,154,154,154,96.95304703499994,,,,,,,,,,,,,,,,,,,,,,,,,,,,,,,,,,,,,,,,,,,,,,,,92.37108602299998,92.37115604799999,92.37116322600002,92.37547932099994,None,0,None,92.37569655599998,92.37572608599999,None,92.37578882000003,92.37582482200003,None,92.37588734099995,92.37591155099994,None,,,,,,,,,,,,,,,,,,,24,001,15,,2024-04-15_09h11.16.779,replicate_nsd,2023.2.3,60.88311716393717,2024-04-15 09h11.29.092305 -0400,
images/image_128_seed_1.png,11,0,0,0,2,"[9, 19, 29, 39, 49, 59, 68, 69, 70, 71]",,,,,0,155,155,155,96.95304703499994,,,,,,,,,,,,,,,,,,,,,,,,,,,,,,,,,,,,,,,,,,,,,,,,92.37612327299996,92.37619389299994,92.37620113100002,92.38108029800003,None,0,None,92.38127202199996,92.38129934400001,None,92.38136080200002,92.38139381299993,None,92.38145627300003,92.38147983099998,None,,,,,,,,,,,,,,,,,,,24,001,15,,2024-04-15_09h11.16.779,replicate_nsd,2023.2.3,60.88311716393717,2024-04-15 09h11.29.092305 -0400,
images/image_194_seed_1.png,12,0,0,0,2,"[9, 19, 29, 39, 49, 59, 68, 69, 70, 71]",,,,,0,156,156,156,96.95304703499994,,,,,,,,,,,,,,,,,,,,,,,,,,,,,,,,,,,,,,,,,,,,,,,,92.38168116600002,92.38174241399997,92.38174947499999,92.38715570299996,None,0,None,92.38738116599995,92.38740997499997,None,92.38747194999996,92.38750766299995,None,92.387569686,92.387593853,None,,,,,,,,,,,,,,,,,,,24,001,15,,2024-04-15_09h11.16.779,replicate_nsd,2023.2.3,60.88311716393717,2024-04-15 09h11.29.092305 -0400,
images/image_596_seed_1.png,13,0,0,0,2,"[9, 19, 29, 39, 49, 59, 68, 69, 70, 71]",,,,,0,157,157,157,96.95304703499994,,,,,,,,,,,,,,,,,,,,,,,,,,,,,,,,,,,,,,,,,,,,,,,,92.38780731899999,92.38788192999993,92.387889008,92.39315011099995,None,0,None,92.39337229299997,92.39340001400001,None,92.39346213599993,92.393498421,None,92.39356090299998,92.39358519299992,None,,,,,,,,,,,,,,,,,,,24,001,15,,2024-04-15_09h11.16.779,replicate_nsd,2023.2.3,60.88311716393717,2024-04-15 09h11.29.092305 -0400,
images/image_0_seed_1.png,14,0,0,0,2,"[9, 19, 29, 39, 49, 59, 68, 69, 70, 71]",,,,,0,158,158,158,96.95304703499994,,,,,,,,,,,,,,,,,,,,,,,,,,,,,,,,,,,,,,,,,,,,,,,,92.39379872699999,92.39387245299997,92.393879524,92.39881289799996,None,0,None,92.39903524299996,92.39906418800001,None,92.39912557399998,92.39916154299999,None,92.39922293099994,92.39924762399994,None,,,,,,,,,,,,,,,,,,,24,001,15,,2024-04-15_09h11.16.779,replicate_nsd,2023.2.3,60.88311716393717,2024-04-15 09h11.29.092305 -0400,
images/image_289_seed_1.png,15,0,0,0,2,"[9, 19, 29, 39, 49, 59, 68, 69, 70, 71]",,,,,0,159,159,159,96.95304703499994,,,,,,,,,,,,,,,,,,,,,,,,,,,,,,,,,,,,,,,,,,,,,,,,92.39946115499993,92.39953648300002,92.39954357900001,92.40490717299997,None,0,None,92.40513218199999,92.40516099699994,None,92.40522277999992,92.40525942800002,None,92.40532309299999,92.405348431,None,,,,,,,,,,,,,,,,,,,24,001,15,,2024-04-15_09h11.16.779,replicate_nsd,2023.2.3,60.88311716393717,2024-04-15 09h11.29.092305 -0400,
images/image_120_seed_1.png,16,0,0,0,2,"[9, 19, 29, 39, 49, 59, 68, 69, 70, 71]",,,,,0,160,160,160,96.95304703499994,,,,,,,,,,,,,,,,,,,,,,,,,,,,,,,,,,,,,,,,,,,,,,,,92.405607519,92.405684469,92.40569156499998,92.41073718199993,None,0,None,92.41096211399997,92.4109909,None,92.41105288400001,92.411088587,None,92.41115112599994,92.41117556300003,None,,,,,,,,,,,,,,,,,,,24,001,15,,2024-04-15_09h11.16.779,replicate_nsd,2023.2.3,60.88311716393717,2024-04-15 09h11.29.092305 -0400,
images/image_592_seed_1.png,17,0,0,0,2,"[9, 19, 29, 39, 49, 59, 68, 69, 70, 71]",,,,,0,161,161,161,96.95304703499994,,,,,,,,,,,,,,,,,,,,,,,,,,,,,,,,,,,,,,,,,,,,,,,,92.411388579,92.41146086999993,92.41146808299993,92.41681426899993,None,0,None,92.41704083100001,92.417070093,None,92.41713273899995,92.41716951499996,None,92.41723183099998,92.41725603499992,None,,,,,,,,,,,,,,,,,,,24,001,15,,2024-04-15_09h11.16.779,replicate_nsd,2023.2.3,60.88311716393717,2024-04-15 09h11.29.092305 -0400,
images/image_267_seed_1.png,18,0,0,0,2,"[9, 19, 29, 39, 49, 59, 68, 69, 70, 71]",,,,,0,162,162,162,96.95304703499994,,,,,,,,,,,,,,,,,,,,,,,,,,,,,,,,,,,,,,,,,,,,,,,,92.41747125799998,92.417545711,92.41755287699993,92.42194876600001,None,0,None,92.42216550199998,92.42219402900002,None,92.42225628099993,92.42229289199997,None,92.42235462299993,92.42237897999996,None,,,,,,,,,,,,,,,,,,,24,001,15,,2024-04-15_09h11.16.779,replicate_nsd,2023.2.3,60.88311716393717,2024-04-15 09h11.29.092305 -0400,
blank.jpg,19,1,0,0,2,"[9, 19, 29, 39, 49, 59, 68, 69, 70, 71]",,,,,0,163,163,163,96.95304703499994,,,,,,,,,,,,,,,,,,,,,,,,,,,,,,,,,,,,,,,,,,,,,,,,92.42258994600002,92.42266141799996,92.42266849600003,92.424662291,None,0,None,92.424861792,92.42488959100001,None,92.424950588,92.42498472699992,None,92.42504604099997,92.42506959899993,None,,,,,,,,,,,,,,,,,,,24,001,15,,2024-04-15_09h11.16.779,replicate_nsd,2023.2.3,60.88311716393717,2024-04-15 09h11.29.092305 -0400,
images/image_738_seed_1.png,20,0,0,0,2,"[9, 19, 29, 39, 49, 59, 68, 69, 70, 71]",,,,,0,164,164,164,96.95304703499994,,,,,,,,,,,,,,,,,,,,,,,,,,,,,,,,,,,,,,,,,,,,,,,,92.42546471100002,92.42557823200002,92.42559102099995,92.43102313999998,None,0,None,92.43125140299992,92.431281259,None,92.43134433299997,92.43138211999997,None,92.43144531199994,92.43147033100001,None,,,,,,,,,,,,,,,,,,,24,001,15,,2024-04-15_09h11.16.779,replicate_nsd,2023.2.3,60.88311716393717,2024-04-15 09h11.29.092305 -0400,
images/image_729_seed_1.png,21,0,1,0,2,"[9, 19, 29, 39, 49, 59, 68, 69, 70, 71]",,,,,0,165,165,165,96.95304703499994,,,,,,,,,,,,,,,,,,,,,,,,,,,,,,,,,,,,,,,,,,,,,,,,92.43168695399993,92.43176232299993,92.43176936099997,92.43574079500002,None,0,None,92.43593347000001,92.43596104599999,None,92.43602310799997,92.43605651299993,None,92.43611815600002,92.43614155399996,None,,,,,,,,,,,,,,,,,,,24,001,15,,2024-04-15_09h11.16.779,replicate_nsd,2023.2.3,60.88311716393717,2024-04-15 09h11.29.092305 -0400,
images/image_354_seed_1.png,22,0,0,0,2,"[9, 19, 29, 39, 49, 59, 68, 69, 70, 71]",,,,,0,166,166,166,96.95304703499994,,,,,,,,,,,,,,,,,,,,,,,,,,,,,,,,,,,,,,,,,,,,,,,,92.43634128299993,92.436401617,92.43640853,92.44146684199995,None,0,None,92.44166074999998,92.44168777499999,None,92.44174892000001,92.44178291799994,None,92.44184472699999,92.44186835899995,None,,,,,,,,,,,,,,,,,,,24,001,15,,2024-04-15_09h11.16.779,replicate_nsd,2023.2.3,60.88311716393717,2024-04-15 09h11.29.092305 -0400,
images/image_15_seed_1.png,23,0,0,0,2,"[9, 19, 29, 39, 49, 59, 68, 69, 70, 71]",,,,,0,167,167,167,96.95304703499994,,,,,,,,,,,,,,,,,,,,,,,,,,,,,,,,,,,,,,,,,,,,,,,,92.44207216999996,92.44214002599995,92.44214721699996,92.44750385199995,None,0,None,92.44778467699996,92.44782513899997,None,92.447895701,92.447937131,None,92.44800725200002,92.44803522400002,None,,,,,,,,,,,,,,,,,,,24,001,15,,2024-04-15_09h11.16.779,replicate_nsd,2023.2.3,60.88311716393717,2024-04-15 09h11.29.092305 -0400,
images/image_196_seed_1.png,24,0,0,0,2,"[9, 19, 29, 39, 49, 59, 68, 69, 70, 71]",,,,,0,168,168,168,96.95304703499994,,,,,,,,,,,,,,,,,,,,,,,,,,,,,,,,,,,,,,,,,,,,,,,,92.44828888799998,92.44837844199992,92.44838744899994,92.45283659199993,None,0,None,92.45303893699997,92.45306726699994,None,92.45312858099999,92.45316329599996,None,92.45322487800001,92.45324860099993,None,,,,,,,,,,,,,,,,,,,24,001,15,,2024-04-15_09h11.16.779,replicate_nsd,2023.2.3,60.88311716393717,2024-04-15 09h11.29.092305 -0400,
images/image_369_seed_1.png,25,0,0,0,2,"[9, 19, 29, 39, 49, 59, 68, 69, 70, 71]",,,,,0,169,169,169,96.95304703499994,,,,,,,,,,,,,,,,,,,,,,,,,,,,,,,,,,,,,,,,,,,,,,,,92.45345409100003,92.45351708299995,92.45352405799997,92.45796532399993,None,0,None,92.45816790999993,92.45819554799994,None,92.45825603999992,92.45829116599998,None,92.45835186299996,92.45837495299997,None,,,,,,,,,,,,,,,,,,,24,001,15,,2024-04-15_09h11.16.779,replicate_nsd,2023.2.3,60.88311716393717,2024-04-15 09h11.29.092305 -0400,
images/image_386_seed_1.png,26,0,0,0,2,"[9, 19, 29, 39, 49, 59, 68, 69, 70, 71]",,,,,0,170,170,170,96.95304703499994,,,,,,,,,,,,,,,,,,,,,,,,,,,,,,,,,,,,,,,,,,,,,,,,92.45857705200001,92.45866176599998,92.458669923,92.46314151899992,None,0,None,92.46333382900002,92.46336060299996,None,92.46342067699993,92.46345419399995,None,92.46351631200002,92.46353874399995,None,,,,,,,,,,,,,,,,,,,24,001,15,,2024-04-15_09h11.16.779,replicate_nsd,2023.2.3,60.88311716393717,2024-04-15 09h11.29.092305 -0400,
images/image_261_seed_1.png,27,0,0,0,2,"[9, 19, 29, 39, 49, 59, 68, 69, 70, 71]",,,,,0,171,171,171,96.95304703499994,,,,,,,,,,,,,,,,,,,,,,,,,,,,,,,,,,,,,,,,,,,,,,,,92.46374014999992,92.463799182,92.463806202,92.46885494899993,None,0,None,92.46905367099998,92.469081609,None,92.46914265599992,92.46917774399992,None,92.46923967399994,92.46926333099998,None,,,,,,,,,,,,,,,,,,,24,001,15,,2024-04-15_09h11.16.779,replicate_nsd,2023.2.3,60.88311716393717,2024-04-15 09h11.29.092305 -0400,
images/image_391_seed_1.png,28,0,0,0,2,"[9, 19, 29, 39, 49, 59, 68, 69, 70, 71]",,,,,0,172,172,172,96.95304703499994,,,,,,,,,,,,,,,,,,,,,,,,,,,,,,,,,,,,,,,,,,,,,,,,92.46946754800001,92.46953220299997,92.46953943599999,92.47449586300002,None,0,None,92.47479682400001,92.47482943199998,None,92.47489509599995,92.47493315299994,None,92.47499596499995,92.475020771,None,,,,,,,,,,,,,,,,,,,24,001,15,,2024-04-15_09h11.16.779,replicate_nsd,2023.2.3,60.88311716393717,2024-04-15 09h11.29.092305 -0400,
blank.jpg,29,1,0,0,2,"[9, 19, 29, 39, 49, 59, 68, 69, 70, 71]",,,,,0,173,173,173,96.95304703499994,,,,,,,,,,,,,,,,,,,,,,,,,,,,,,,,,,,,,,,,,,,,,,,,92.475235505,92.47531122399994,92.47531821199993,92.47976266,None,0,None,92.48002270899997,92.480056472,None,92.48012822299995,92.48017006499992,None,92.48024297999996,92.48027087699995,None,,,,,,,,,,,,,,,,,,,24,001,15,,2024-04-15_09h11.16.779,replicate_nsd,2023.2.3,60.88311716393717,2024-04-15 09h11.29.092305 -0400,
images/image_291_seed_1.png,30,0,0,0,2,"[9, 19, 29, 39, 49, 59, 68, 69, 70, 71]",,,,,0,174,174,174,96.95304703499994,,,,,,,,,,,,,,,,,,,,,,,,,,,,,,,,,,,,,,,,,,,,,,,,92.48051939200002,92.480606298,92.48061468599997,92.48683530999995,None,0,None,92.48709397999994,92.48712902800003,None,92.48720166399994,92.48724434500002,None,92.48731811599998,92.48734631100001,None,,,,,,,,,,,,,,,,,,,24,001,15,,2024-04-15_09h11.16.779,replicate_nsd,2023.2.3,60.88311716393717,2024-04-15 09h11.29.092305 -0400,
images/image_414_seed_1.png,31,0,0,0,2,"[9, 19, 29, 39, 49, 59, 68, 69, 70, 71]",,,,,0,175,175,175,96.95304703499994,,,,,,,,,,,,,,,,,,,,,,,,,,,,,,,,,,,,,,,,,,,,,,,,92.48759133700003,92.48767686999997,92.48768545099995,92.49344452499997,None,0,None,92.49366780399998,92.49369631399998,None,92.49375853100003,92.49379436999993,None,92.493856725,92.49388137599999,None,,,,,,,,,,,,,,,,,,,24,001,15,,2024-04-15_09h11.16.779,replicate_nsd,2023.2.3,60.88311716393717,2024-04-15 09h11.29.092305 -0400,
images/image_36_seed_1.png,32,0,0,0,2,"[9, 19, 29, 39, 49, 59, 68, 69, 70, 71]",,,,,0,176,176,176,96.95304703499994,,,,,,,,,,,,,,,,,,,,,,,,,,,,,,,,,,,,,,,,,,,,,,,,92.49409643499996,92.49417058899996,92.49417781699992,92.49896902299997,None,0,None,92.49919280799998,92.49922147299992,None,92.49928320599997,92.49931959799994,None,92.49938150599996,92.49940609399994,None,,,,,,,,,,,,,,,,,,,24,001,15,,2024-04-15_09h11.16.779,replicate_nsd,2023.2.3,60.88311716393717,2024-04-15 09h11.29.092305 -0400,
