current_image,trial_index,is_blank_trial,is_repeat,is_new_run,run_num,all_blanks_list,practice.thisRepN,practice.thisTrialN,practice.thisN,practice.thisIndex,loop_all_images.thisRepN,loop_all_images.thisTrialN,loop_all_images.thisN,loop_all_images.thisIndex,thisRow.t,notes,set_up.started,set_up.stopped,practice_continue.started,key_resp_6.started,text_6.started,practice_continue.stopped,key_resp_6.keys,key_resp_6.rt,key_resp_6.duration,set_skips_and_correct_key_2.started,set_skips_and_correct_key_2.stopped,practice_trial.started,polygon_3.started,all_keys_pressed_2.started,image_2.started,press_if_repeat_2.started,image_2.stopped,press_if_repeat_2.stopped,polygon_3.stopped,all_keys_pressed_2.stopped,practice_trial.stopped,press_if_repeat_2.keys,press_if_repeat_2.corr,all_keys_pressed_2.keys,blank_trial_2.started,blank_trial_2.stopped,all_keys_pressed_2.rt,all_keys_pressed_2.duration,polygon_4.started,polygon_4.stopped,testing_continue.started,key_resp_7.started,text_7.started,testing_continue.stopped,key_resp_7.keys,key_resp_7.rt,key_resp_7.duration,waiting_fmri.started,key_resp_2.started,text_3.started,waiting_fmri.stopped,key_resp_2.keys,key_resp_2.rt,key_resp_2.duration,set_skips_and_correct_key.started,set_skips_and_correct_key.stopped,trial.started,polygon.started,all_keys_pressed.started,image.started,press_if_repeat.started,image.stopped,press_if_repeat.stopped,polygon.stopped,all_keys_pressed.stopped,trial.stopped,press_if_repeat.keys,press_if_repeat.corr,all_keys_pressed.keys,blank_trial.started,blank_trial.stopped,blank_trial_testing_keys.keys,run_wait2_2.started,run_wait2_2.stopped,key_resp_5.keys,waiting_fmri_2.started,waiting_fmri_2.stopped,key_resp_4.keys,blank_trial_testing_keys.started,polygon_2.started,blank_trial_testing_keys.stopped,polygon_2.stopped,key_resp_5.started,text_5.started,key_resp_5.rt,key_resp_5.duration,key_resp_4.started,text_4.started,key_resp_4.rt,key_resp_4.duration,participant,session,starting_run,,date,expName,psychopyVersion,frameRate,expStart,
,,,,,,,,,,,,,,,,,0.02761952599939832,0.027793521999228687,0.027814897999633104,0.04710894899926643,0.04710894899926643,5.371774765999362,1,5.316720527999678,None,,,,,,,,,,,,,,,,,,,,,,,,,,,,,,,,,,,,,,,,,,,,,,,,,,,,,,,,,,,,,,,,,,,,,,,,26,001,0,,2024-04-15_11h06.23.160,replicate_nsd,2023.2.3,59.983087888359414,2024-04-15 11h06.40.643164 -0400,
practice_images/paired_image_19_1.png,0,0,,,,,0,0,0,0,,,,,5.409751315999529,,,,,,,,,,,5.380037321999225,5.380097747999571,5.38010651499917,5.409751315999529,5.409751315999529,6.40444822399968,6.40444822399968,9.404763060999358,9.404763060999358,9.404763060999358,9.404763060999358,9.388564727999437,None,0,None,9.388975842000036,9.38899570599915,,,,,,,,,,,,,,,,,,,,,,,,,,,,,,,,,,,,,,,,,,,,,,,,,,,,,,,26,001,0,,2024-04-15_11h06.23.160,replicate_nsd,2023.2.3,59.983087888359414,2024-04-15 11h06.40.643164 -0400,
practice_images/paired_image_30_1.png,1,0,,,,,0,1,1,1,,,,,9.404763060999358,,,,,,,,,,,9.38912729599997,9.389167176999763,9.38917241299987,9.404763060999358,9.404763060999358,10.404429176999656,10.404429176999656,13.404835499999535,13.404835499999535,13.404835499999535,13.404835499999535,13.390874904999691,None,0,None,13.391115383999932,13.391138221999427,,,,,,,,,,,,,,,,,,,,,,,,,,,,,,,,,,,,,,,,,,,,,,,,,,,,,,,26,001,0,,2024-04-15_11h06.23.160,replicate_nsd,2023.2.3,59.983087888359414,2024-04-15 11h06.40.643164 -0400,
practice_images/paired_image_15_1.png,2,0,,,,,0,2,2,2,,,,,13.404835499999535,,,,,,,,,,,13.391292543999953,13.391340223000043,13.391346673000044,13.404835499999535,13.404835499999535,14.406882228999166,14.406882228999166,17.404452560999744,17.404452560999744,17.404452560999744,17.404452560999744,17.39033588499933,None,0,"['1', '1']",17.39073506999921,17.390754832999846,"[0.4669776959999581, 0.7229706869993606]","[None, None]",,,,,,,,,,,,,,,,,,,,,,,,,,,,,,,,,,,,,,,,,,,,,,,,,,,,,26,001,0,,2024-04-15_11h06.23.160,replicate_nsd,2023.2.3,59.983087888359414,2024-04-15 11h06.40.643164 -0400,
practice_images/paired_image_4_2.png,3,0,,,,,0,3,3,3,,,,,17.404452560999744,,,,,,,,,,,17.390882988999692,17.39092193599936,17.39092719799919,17.404452560999744,17.404452560999744,18.40448486099922,18.40448486099922,21.404908361999333,21.404908361999333,21.404908361999333,21.404908361999333,21.388333476999833,None,0,None,21.388586995999503,21.38861079399976,,,,,,,,,,,,,,,,,,,,,,,,,,,,,,,,,,,,,,,,,,,,,,,,,,,,,,,26,001,0,,2024-04-15_11h06.23.160,replicate_nsd,2023.2.3,59.983087888359414,2024-04-15 11h06.40.643164 -0400,
practice_images/paired_image_12_1.png,4,0,,,,,0,4,4,4,,,,,21.404908361999333,,,,,,,,,,,21.388769143999525,21.388818367999193,21.388824856999236,21.404908361999333,21.404908361999333,22.404407412999717,22.404407412999717,25.40458432699961,25.40458432699961,25.40458432699961,25.40458432699961,25.388961452999865,None,0,None,25.389384739999514,25.38942464399952,,,,,,,,,,,,,,,,,,,,,,,,,,,,,,,,,,,,,,,,,,,,,,,,,,,,,,,26,001,0,,2024-04-15_11h06.23.160,replicate_nsd,2023.2.3,59.983087888359414,2024-04-15 11h06.40.643164 -0400,
practice_images/paired_image_36_2.png,5,0,,,,,0,5,5,5,,,,,25.40458432699961,,,,,,,,,,,25.389698196999234,25.389782995999667,25.38979462899988,25.40458432699961,25.40458432699961,26.40551101999972,26.40551101999972,29.404924403999757,29.404924403999757,29.404924403999757,29.404924403999757,29.389407307999136,None,0,None,29.389856219999274,29.389904930999364,,,,,,,,,,,,,,,,,,,,,,,,,,,,,,,,,,,,,,,,,,,,,,,,,,,,,,,26,001,0,,2024-04-15_11h06.23.160,replicate_nsd,2023.2.3,59.983087888359414,2024-04-15 11h06.40.643164 -0400,
practice_images/paired_image_28_1.png,6,0,,,,,0,6,6,6,,,,,29.404924403999757,,,,,,,,,,,29.390192072999525,29.390294093999728,29.390306352999687,29.404924403999757,29.404924403999757,30.405679345999488,30.405679345999488,33.40463771099985,33.40463771099985,33.40463771099985,33.40463771099985,33.3889666569994,None,0,None,33.38938658200004,33.389425749999646,,,,,,,,,,,,,,,,,,,,,,,,,,,,,,,,,,,,,,,,,,,,,,,,,,,,,,,26,001,0,,2024-04-15_11h06.23.160,replicate_nsd,2023.2.3,59.983087888359414,2024-04-15 11h06.40.643164 -0400,
practice_images/paired_image_18_1.png,7,0,,,,,0,7,7,7,,,,,33.40463771099985,,,,,,,,,,,33.389695347999805,33.389780704999794,33.38979196799937,33.40463771099985,33.40463771099985,34.405858127999636,34.405858127999636,37.40459018399997,37.40459018399997,37.40459018399997,37.40459018399997,37.388988618999974,None,0,None,37.38940772099977,37.389447246999225,,,,,,,,,,,,,,,,,,,,,,,,,,,,,,,,,,,,,,,,,,,,,,,,,,,,,,,26,001,0,,2024-04-15_11h06.23.160,replicate_nsd,2023.2.3,59.983087888359414,2024-04-15 11h06.40.643164 -0400,
practice_images/paired_image_27_1.png,8,0,,,,,0,8,8,8,,,,,37.40459018399997,,,,,,,,,,,37.389723518999745,37.38980868999988,37.38982033699995,37.40459018399997,37.40459018399997,38.40569133600002,38.40569133600002,41.404379845999756,41.404379845999756,41.404379845999756,41.404379845999756,41.389554288,None,0,None,41.390089556999555,41.39012948399977,,,,,,,,,,,,,,,,,,,,,,,,,,,,,,,,,,,,,,,,,,,,,,,,,,,,,,,26,001,0,,2024-04-15_11h06.23.160,replicate_nsd,2023.2.3,59.983087888359414,2024-04-15 11h06.40.643164 -0400,
practice_images/paired_image_33_1.png,9,0,,,,,0,9,9,9,,,,,41.404379845999756,,,,,,,,,,,41.39040171899978,41.39048680199994,41.390498672999456,41.404379845999756,41.404379845999756,42.40554506599983,42.40554506599983,45.40530597199995,45.40530597199995,45.40530597199995,45.40530597199995,45.388939466999545,None,0,None,45.389361678999194,45.38940264499979,,,,,,,,,,,,,,,,,,,,,,,,,,,,,,,,,,,,,,,,,,,,,,,,,,,,,,,26,001,0,,2024-04-15_11h06.23.160,replicate_nsd,2023.2.3,59.983087888359414,2024-04-15 11h06.40.643164 -0400,
blank.jpg,10,1,,,,,0,10,10,10,,,,,45.40530597199995,,,,,,,,,,,45.389678141999866,45.38976387999992,45.389775497999835,,,,,,,,,45.3951066009995,None,0,None,45.395421421999345,49.43911084799947,,,45.40530597199995,49.45465705099923,,,,,,,,,,,,,,,,,,,,,,,,,,,,,,,,,,,,,,,,,,,,,,,,,,,26,001,0,,2024-04-15_11h06.23.160,replicate_nsd,2023.2.3,59.983087888359414,2024-04-15 11h06.40.643164 -0400,
practice_images/paired_image_22_2.png,11,0,,,,,0,11,11,11,,,,,49.45465705099923,,,,,,,,,,,49.43949436799994,49.4395784469998,49.43959044799976,49.45465705099923,49.45465705099923,50.455591966999236,50.455591966999236,53.454971952999585,53.454971952999585,53.454971952999585,53.454971952999585,53.43865758099946,None,0,None,53.439071281,53.43911161300002,,,,,,,,,,,,,,,,,,,,,,,,,,,,,,,,,,,,,,,,,,,,,,,,,,,,,,,26,001,0,,2024-04-15_11h06.23.160,replicate_nsd,2023.2.3,59.983087888359414,2024-04-15 11h06.40.643164 -0400,
practice_images/paired_image_2_1.png,12,0,,,,,0,12,12,12,,,,,53.454971952999585,,,,,,,,,,,53.43938164499923,53.439465634000044,53.43947688899971,53.454971952999585,53.454971952999585,54.455308916999456,54.455308916999456,57.456426795999505,57.456426795999505,57.456426795999505,57.456426795999505,57.44117539799936,None,0,None,57.44159689699973,57.44163661899984,,,,,,,,,,,,,,,,,,,,,,,,,,,,,,,,,,,,,,,,,,,,,,,,,,,,,,,26,001,0,,2024-04-15_11h06.23.160,replicate_nsd,2023.2.3,59.983087888359414,2024-04-15 11h06.40.643164 -0400,
practice_images/paired_image_20_2.png,13,0,,,,,0,13,13,13,,,,,57.456426795999505,,,,,,,,,,,57.44191092099936,57.44199568099975,57.44200711999929,57.456426795999505,57.456426795999505,58.45558994299972,58.45558994299972,61.45500524599993,61.45500524599993,61.45500524599993,61.45500524599993,61.43918784699963,None,0,None,61.43961122699966,61.439651613000024,,,,,,,,,,,,,,,,,,,,,,,,,,,,,,,,,,,,,,,,,,,,,,,,,,,,,,,26,001,0,,2024-04-15_11h06.23.160,replicate_nsd,2023.2.3,59.983087888359414,2024-04-15 11h06.40.643164 -0400,
practice_images/paired_image_6_2.png,14,0,,,,,0,14,14,14,,,,,61.45500524599993,,,,,,,,,,,61.43992597399938,61.440010793999136,61.44002268799977,61.45500524599993,61.45500524599993,62.455053532999955,62.455053532999955,65.45456721899973,65.45456721899973,65.45456721899973,65.45456721899973,65.43890939999983,None,0,None,65.43933016899973,65.43937076899965,,,,,,,,,,,,,,,,,,,,,,,,,,,,,,,,,,,,,,,,,,,,,,,,,,,,,,,26,001,0,,2024-04-15_11h06.23.160,replicate_nsd,2023.2.3,59.983087888359414,2024-04-15 11h06.40.643164 -0400,
practice_images/paired_image_15_2.png,15,0,,,,,0,15,15,15,,,,,65.45456721899973,,,,,,,,,,,65.43964680599947,65.43973126299989,65.43974289499965,65.45456721899973,65.45456721899973,66.45502875700004,66.45502875700004,69.45463899799961,69.45463899799961,69.45463899799961,69.45463899799961,69.43818352699964,None,0,None,69.43845203799992,69.43847563500003,,,,,,,,,,,,,,,,,,,,,,,,,,,,,,,,,,,,,,,,,,,,,,,,,,,,,,,26,001,0,,2024-04-15_11h06.23.160,replicate_nsd,2023.2.3,59.983087888359414,2024-04-15 11h06.40.643164 -0400,
practice_images/paired_image_24_1.png,16,0,,,,,0,16,16,16,,,,,69.45463899799961,,,,,,,,,,,69.43864873999973,69.43869871699917,69.43870523399983,69.45463899799961,69.45463899799961,70.45498883399978,70.45498883399978,73.4549649799992,73.4549649799992,73.4549649799992,73.4549649799992,73.43914702099937,None,0,None,73.43957372899968,73.43961426499936,,,,,,,,,,,,,,,,,,,,,,,,,,,,,,,,,,,,,,,,,,,,,,,,,,,,,,,26,001,0,,2024-04-15_11h06.23.160,replicate_nsd,2023.2.3,59.983087888359414,2024-04-15 11h06.40.643164 -0400,
practice_images/paired_image_36_1.png,17,0,,,,,0,17,17,17,,,,,73.4549649799992,,,,,,,,,,,73.43989078100003,73.4399772529996,73.43998863399975,73.4549649799992,73.4549649799992,74.45499940899936,74.45499940899936,77.45459614299943,77.45459614299943,77.45459614299943,77.45459614299943,77.43917562499973,None,0,None,77.43959583099968,77.43963601299947,,,,,,,,,,,,,,,,,,,,,,,,,,,,,,,,,,,,,,,,,,,,,,,,,,,,,,,26,001,0,,2024-04-15_11h06.23.160,replicate_nsd,2023.2.3,59.983087888359414,2024-04-15 11h06.40.643164 -0400,
practice_images/paired_image_21_2.png,18,0,,,,,0,18,18,18,,,,,77.45459614299943,,,,,,,,,,,77.43991123599972,77.43999701099983,77.44000877399958,77.45459614299943,77.45459614299943,78.45540572899972,78.45540572899972,81.45473406199926,81.45473406199926,81.45473406199926,81.45473406199926,81.4391337499992,None,0,None,81.43955709799957,81.43959772399921,,,,,,,,,,,,,,,,,,,,,,,,,,,,,,,,,,,,,,,,,,,,,,,,,,,,,,,26,001,0,,2024-04-15_11h06.23.160,replicate_nsd,2023.2.3,59.983087888359414,2024-04-15 11h06.40.643164 -0400,
practice_images/paired_image_29_1.png,19,0,,,,,0,19,19,19,,,,,81.45473406199926,,,,,,,,,,,81.43987489999927,81.43995949199962,81.43997070899968,81.45473406199926,81.45473406199926,82.45505991299979,82.45505991299979,85.4578543839998,85.4578543839998,85.4578543839998,85.4578543839998,85.43891912799972,None,0,None,85.43933817699963,85.43937945699963,,,,,,,,,,,,,,,,,,,,,,,,,,,,,,,,,,,,,,,,,,,,,,,,,,,,,,,26,001,0,,2024-04-15_11h06.23.160,replicate_nsd,2023.2.3,59.983087888359414,2024-04-15 11h06.40.643164 -0400,
,,,,,,,,,,,,,,,,,,,,,,,,,,,,,,,,,,,,,,,,,,,,,,,85.43943724599922,85.4578543839998,85.4578543839998,107.77196039999944,2,22.302103879000242,None,,,,,,,,,,,,,,,,,,,,,,,,,,,,,,,,,,,,,,,,,,,,26,001,0,,2024-04-15_11h06.23.160,replicate_nsd,2023.2.3,59.983087888359414,2024-04-15 11h06.40.643164 -0400,
,,,,,,,,,,,,,,,,,,,,,,,,,,,,,,,,,,,,,,,,,,,,,,,,,,,,,,107.77198546299951,107.78904218499974,107.78904218499974,109.37217028599935,equal,1.582758923000256,None,,,,,,,,,,,,,,,,,,,,,,,,,,,,,,,,,,,,,26,001,0,,2024-04-15_11h06.23.160,replicate_nsd,2023.2.3,59.983087888359414,2024-04-15 11h06.40.643164 -0400,
images/image_677_seed_1.png,0,0,0,0,0,"[9, 19, 29, 39, 49, 59, 68, 69, 70, 71]",,,,,0,0,0,0,109.49216184499983,,,,,,,,,,,,,,,,,,,,,,,,,,,,,,,,,,,,,,,,,,,,,,109.45312661299977,109.45320058899961,109.45320774499942,109.49216184499983,109.49216184499983,110.47212031799972,110.47212031799972,113.473753364,113.473753364,113.473753364,113.473753364,113.45543620299941,None,0,None,113.45710692699959,113.45714747399961,None,113.45784722699955,113.457899989,None,113.45861972999955,113.4586575229996,None,,,,,,,,,,,,,26,001,0,,2024-04-15_11h06.23.160,replicate_nsd,2023.2.3,59.983087888359414,2024-04-15 11h06.40.643164 -0400,
images/image_617_seed_1.png,1,0,0,0,0,"[9, 19, 29, 39, 49, 59, 68, 69, 70, 71]",,,,,0,1,1,1,113.473753364,,,,,,,,,,,,,,,,,,,,,,,,,,,,,,,,,,,,,,,,,,,,,,113.45972384499964,113.45980738699927,113.45981627199944,113.473753364,113.473753364,114.4721467599993,114.4721467599993,117.47129912699984,117.47129912699984,117.47129912699984,117.47129912699984,117.45559093799966,None,0,None,117.45602088999931,117.45606472999953,None,117.4561767489995,117.45623161200001,None,117.45634421899922,117.4563804569998,None,,,,,,,,,,,,,26,001,0,,2024-04-15_11h06.23.160,replicate_nsd,2023.2.3,59.983087888359414,2024-04-15 11h06.40.643164 -0400,
images/image_608_seed_1.png,2,0,0,0,0,"[9, 19, 29, 39, 49, 59, 68, 69, 70, 71]",,,,,0,2,2,2,117.47129912699984,,,,,,,,,,,,,,,,,,,,,,,,,,,,,,,,,,,,,,,,,,,,,,117.4567591999994,117.45687494499998,117.45688741100003,117.47129912699984,117.47129912699984,118.47065510099947,118.47065510099947,121.47118673599925,121.47118673599925,121.47118673599925,121.47118673599925,121.45470237299924,None,0,None,121.4550370829993,121.45507090499996,None,121.45516185199995,121.45520584899987,None,121.45529514699956,121.45532567099963,None,,,,,,,,,,,,,26,001,0,,2024-04-15_11h06.23.160,replicate_nsd,2023.2.3,59.983087888359414,2024-04-15 11h06.40.643164 -0400,
images/image_557_seed_1.png,3,0,0,0,0,"[9, 19, 29, 39, 49, 59, 68, 69, 70, 71]",,,,,0,3,3,3,121.47118673599925,,,,,,,,,,,,,,,,,,,,,,,,,,,,,,,,,,,,,,,,,,,,,,121.45563119999952,121.45572312900003,121.45575239499976,121.47118673599925,121.47118673599925,122.47116431799986,122.47116431799986,125.4739691879995,125.4739691879995,125.4739691879995,125.4739691879995,125.45572588999948,None,0,None,125.45615368499966,125.45619652200003,None,125.4563066009996,125.45636097299939,None,125.45647028499934,125.45650754300004,None,,,,,,,,,,,,,26,001,0,,2024-04-15_11h06.23.160,replicate_nsd,2023.2.3,59.983087888359414,2024-04-15 11h06.40.643164 -0400,
images/image_692_seed_1.png,4,0,0,0,0,"[9, 19, 29, 39, 49, 59, 68, 69, 70, 71]",,,,,0,4,4,4,125.4739691879995,,,,,,,,,,,,,,,,,,,,,,,,,,,,,,,,,,,,,,,,,,,,,,125.45688372299992,125.45700035699974,125.4570134179994,125.4739691879995,125.4739691879995,126.47207580199938,126.47207580199938,129.47224582199942,129.47224582199942,129.47224582199942,129.47224582199942,129.45533448499918,None,0,None,129.45576115599943,129.45580453999992,None,129.45591756699923,129.45597277099932,None,129.45608263799932,129.4561201939996,None,,,,,,,,,,,,,26,001,0,,2024-04-15_11h06.23.160,replicate_nsd,2023.2.3,59.983087888359414,2024-04-15 11h06.40.643164 -0400,
images/image_489_seed_1.png,5,0,0,0,0,"[9, 19, 29, 39, 49, 59, 68, 69, 70, 71]",,,,,0,5,5,5,129.47224582199942,,,,,,,,,,,,,,,,,,,,,,,,,,,,,,,,,,,,,,,,,,,,,,129.4564964559995,129.45661468799972,129.4566275519992,129.47224582199942,129.47224582199942,130.47170505199938,130.47170505199938,133.47182115099986,133.47182115099986,133.47182115099986,133.47182115099986,133.45532058699973,None,0,None,133.45574825699987,133.45579103399996,None,133.4559033129999,133.45595682399926,None,133.45606813199993,133.45610504599972,None,,,,,,,,,,,,,26,001,0,,2024-04-15_11h06.23.160,replicate_nsd,2023.2.3,59.983087888359414,2024-04-15 11h06.40.643164 -0400,
images/image_274_seed_1.png,6,0,0,0,0,"[9, 19, 29, 39, 49, 59, 68, 69, 70, 71]",,,,,0,6,6,6,133.47182115099986,,,,,,,,,,,,,,,,,,,,,,,,,,,,,,,,,,,,,,,,,,,,,,133.45648001499922,133.4565953759993,133.45660809199944,133.47182115099986,133.47182115099986,134.47205217899955,134.47205217899955,137.47463704099937,137.47463704099937,137.47463704099937,137.47463704099937,137.4557160939994,None,0,None,137.45615557899964,137.4561989549993,None,137.45630983299998,137.4563644689997,None,137.45647264999934,137.4565094999998,None,,,,,,,,,,,,,26,001,0,,2024-04-15_11h06.23.160,replicate_nsd,2023.2.3,59.983087888359414,2024-04-15 11h06.40.643164 -0400,
images/image_711_seed_1.png,7,0,0,0,0,"[9, 19, 29, 39, 49, 59, 68, 69, 70, 71]",,,,,0,7,7,7,137.47463704099937,,,,,,,,,,,,,,,,,,,,,,,,,,,,,,,,,,,,,,,,,,,,,,137.45687737699973,137.45699335099926,137.45700585799932,137.47463704099937,137.47463704099937,138.47202576799918,138.47202576799918,141.47147624699937,141.47147624699937,141.47147624699937,141.47147624699937,141.45566374099963,None,0,None,141.45609059299932,141.45613358699939,None,141.45624601999953,141.4562998879992,None,141.4564116519996,141.45644908899976,None,,,,,,,,,,,,,26,001,0,,2024-04-15_11h06.23.160,replicate_nsd,2023.2.3,59.983087888359414,2024-04-15 11h06.40.643164 -0400,
images/image_355_seed_1.png,8,0,0,0,0,"[9, 19, 29, 39, 49, 59, 68, 69, 70, 71]",,,,,0,8,8,8,141.47147624699937,,,,,,,,,,,,,,,,,,,,,,,,,,,,,,,,,,,,,,,,,,,,,,141.45682530499926,141.45694178899976,141.45695439999963,141.47147624699937,141.47147624699937,142.47209972199926,142.47209972199926,145.471643287,145.471643287,145.471643287,145.471643287,145.45567459699942,None,0,None,145.45609876299932,145.45614099999966,None,145.4562515739999,145.45630617999996,None,145.45641639799942,145.45645242499995,None,,,,,,,,,,,,,26,001,0,,2024-04-15_11h06.23.160,replicate_nsd,2023.2.3,59.983087888359414,2024-04-15 11h06.40.643164 -0400,
blank.jpg,9,1,0,0,0,"[9, 19, 29, 39, 49, 59, 68, 69, 70, 71]",,,,,0,9,9,9,145.471643287,,,,,,,,,,,,,,,,,,,,,,,,,,,,,,,,,,,,,,,,,,,,,,145.45682448799926,145.4569398149997,145.45695236699976,,,,,,,,,145.46219450399985,None,0,None,145.46251425699938,149.4551901089999,None,149.45541883399983,149.45547884999996,None,149.4556076859999,149.4556464569996,None,145.471643287,145.471643287,149.47162462199958,149.47162462199958,,,,,,,,,26,001,0,,2024-04-15_11h06.23.160,replicate_nsd,2023.2.3,59.983087888359414,2024-04-15 11h06.40.643164 -0400,
images/image_324_seed_1.png,10,0,0,0,0,"[9, 19, 29, 39, 49, 59, 68, 69, 70, 71]",,,,,0,10,10,10,149.47162462199958,,,,,,,,,,,,,,,,,,,,,,,,,,,,,,,,,,,,,,,,,,,,,,149.45604034899952,149.45615750999968,149.45617018599933,149.47162462199958,149.47162462199958,150.47203246499976,150.47203246499976,153.47110570199948,153.47110570199948,153.47110570199948,153.47110570199948,153.4552904129996,None,0,None,153.45571618399936,153.45576024599995,None,153.455874235,153.4559294139999,None,153.45604110299973,153.45607884999936,None,,,,,,,,,,,,,26,001,0,,2024-04-15_11h06.23.160,replicate_nsd,2023.2.3,59.983087888359414,2024-04-15 11h06.40.643164 -0400,
images/image_123_seed_1.png,11,0,0,0,0,"[9, 19, 29, 39, 49, 59, 68, 69, 70, 71]",,,,,0,11,11,11,153.47110570199948,,,,,,,,,,,,,,,,,,,,,,,,,,,,,,,,,,,,,,,,,,,,,,153.4564563289996,153.45657247799954,153.45658526999978,153.47110570199948,153.47110570199948,154.47213811899928,154.47213811899928,157.4723047489997,157.4723047489997,157.4723047489997,157.4723047489997,157.45563853099975,None,0,None,157.4560660399993,157.45610963999934,None,157.45622075999927,157.45627571499972,None,157.45638705499914,157.45642359199974,None,,,,,,,,,,,,,26,001,0,,2024-04-15_11h06.23.160,replicate_nsd,2023.2.3,59.983087888359414,2024-04-15 11h06.40.643164 -0400,
images/image_585_seed_1.png,12,0,0,0,0,"[9, 19, 29, 39, 49, 59, 68, 69, 70, 71]",,,,,0,12,12,12,157.4723047489997,,,,,,,,,,,,,,,,,,,,,,,,,,,,,,,,,,,,,,,,,,,,,,157.4567986559996,157.45691539699965,157.4569280099995,157.4723047489997,157.4723047489997,158.47158601899991,158.47158601899991,161.4710695169997,161.4710695169997,161.4710695169997,161.4710695169997,161.45540272699964,None,0,None,161.45584172099916,161.45588521599984,None,161.45599811099964,161.45605334899938,None,161.45616484899983,161.45620215799954,None,,,,,,,,,,,,,26,001,0,,2024-04-15_11h06.23.160,replicate_nsd,2023.2.3,59.983087888359414,2024-04-15 11h06.40.643164 -0400,
images/image_699_seed_1.png,13,0,0,0,0,"[9, 19, 29, 39, 49, 59, 68, 69, 70, 71]",,,,,0,13,13,13,161.4710695169997,,,,,,,,,,,,,,,,,,,,,,,,,,,,,,,,,,,,,,,,,,,,,,161.4565984359997,161.45671468899945,161.45672776299944,161.4710695169997,161.4710695169997,162.47206204699978,162.47206204699978,165.47407813799964,165.47407813799964,165.47407813799964,165.47407813799964,165.45564118999937,None,0,None,165.45607075099997,165.45611445599934,None,165.45622778300003,165.45628256099917,None,165.456395016,165.45643173699955,None,,,,,,,,,,,,,26,001,0,,2024-04-15_11h06.23.160,replicate_nsd,2023.2.3,59.983087888359414,2024-04-15 11h06.40.643164 -0400,
images/image_12_seed_1.png,14,0,0,0,0,"[9, 19, 29, 39, 49, 59, 68, 69, 70, 71]",,,,,0,14,14,14,165.47407813799964,,,,,,,,,,,,,,,,,,,,,,,,,,,,,,,,,,,,,,,,,,,,,,165.45680770599938,165.45692358199994,165.45693654799925,165.47407813799964,165.47407813799964,166.47197727799994,166.47197727799994,169.47404617599932,169.47404617599932,169.47404617599932,169.47404617599932,169.45560932099943,None,0,None,169.45603755999946,169.45607999499953,None,169.45619178199922,169.4562463859993,None,169.45635780799967,169.45639509800003,None,,,,,,,,,,,,,26,001,0,,2024-04-15_11h06.23.160,replicate_nsd,2023.2.3,59.983087888359414,2024-04-15 11h06.40.643164 -0400,
images/image_195_seed_1.png,15,0,0,0,0,"[9, 19, 29, 39, 49, 59, 68, 69, 70, 71]",,,,,0,15,15,15,169.47404617599932,,,,,,,,,,,,,,,,,,,,,,,,,,,,,,,,,,,,,,,,,,,,,,169.45677288499974,169.45688968599916,169.4569025639994,169.47404617599932,169.47404617599932,170.4717466889997,170.4717466889997,173.4740419489999,173.4740419489999,173.4740419489999,173.4740419489999,173.45568588699916,None,0,None,173.4561135469994,173.4561568019999,None,173.45626896299927,173.456324322,None,173.45643498299978,173.45647262999955,None,,,,,,,,,,,,,26,001,0,,2024-04-15_11h06.23.160,replicate_nsd,2023.2.3,59.983087888359414,2024-04-15 11h06.40.643164 -0400,
images/image_440_seed_1.png,16,0,0,0,0,"[9, 19, 29, 39, 49, 59, 68, 69, 70, 71]",,,,,0,16,16,16,173.4740419489999,,,,,,,,,,,,,,,,,,,,,,,,,,,,,,,,,,,,,,,,,,,,,,173.45684921699922,173.45696671799942,173.45697972699963,173.4740419489999,173.4740419489999,174.47175738699934,174.47175738699934,177.4707850119994,177.4707850119994,177.4707850119994,177.4707850119994,177.4552906809995,None,0,None,177.4557259179992,177.45576929099934,None,177.45588402399972,177.45593932199972,None,177.45605333599997,177.45609081599923,None,,,,,,,,,,,,,26,001,0,,2024-04-15_11h06.23.160,replicate_nsd,2023.2.3,59.983087888359414,2024-04-15 11h06.40.643164 -0400,
images/image_479_seed_1.png,17,0,0,0,0,"[9, 19, 29, 39, 49, 59, 68, 69, 70, 71]",,,,,0,17,17,17,177.4707850119994,,,,,,,,,,,,,,,,,,,,,,,,,,,,,,,,,,,,,,,,,,,,,,177.45647283499966,177.4565906129992,177.45660344499993,177.4707850119994,177.4707850119994,178.47166656799982,178.47166656799982,181.4711424549996,181.4711424549996,181.4711424549996,181.4711424549996,181.45545376499922,None,0,None,181.4558813699996,181.45592566199957,None,181.45604067099976,181.45609624999997,None,181.45620708299975,181.4562444229996,None,,,,,,,,,,,,,26,001,0,,2024-04-15_11h06.23.160,replicate_nsd,2023.2.3,59.983087888359414,2024-04-15 11h06.40.643164 -0400,
images/image_729_seed_1.png,18,0,0,0,0,"[9, 19, 29, 39, 49, 59, 68, 69, 70, 71]",,,,,0,18,18,18,181.4711424549996,,,,,,,,,,,,,,,,,,,,,,,,,,,,,,,,,,,,,,,,,,,,,,181.45662118899963,181.45673845499914,181.456751318,181.4711424549996,181.4711424549996,182.4710486009999,182.4710486009999,185.47123635199932,185.47123635199932,185.47123635199932,185.47123635199932,185.4549671249997,None,0,None,185.45537322999917,185.4554166909993,None,185.4555307849996,185.45558385099957,None,185.455696215,185.4557338249997,None,,,,,,,,,,,,,26,001,0,,2024-04-15_11h06.23.160,replicate_nsd,2023.2.3,59.983087888359414,2024-04-15 11h06.40.643164 -0400,
blank.jpg,19,1,0,0,0,"[9, 19, 29, 39, 49, 59, 68, 69, 70, 71]",,,,,0,19,19,19,185.47123635199932,,,,,,,,,,,,,,,,,,,,,,,,,,,,,,,,,,,,,,,,,,,,,,185.456110266,185.45622404999995,185.45623686199997,,,,,,,,,185.45919610799956,None,0,None,185.4594791439995,189.45553030299925,None,189.4557413579996,189.455800877,None,189.4559296489997,189.45596857999953,None,185.47123635199932,185.47123635199932,189.4714753949993,189.4714753949993,,,,,,,,,26,001,0,,2024-04-15_11h06.23.160,replicate_nsd,2023.2.3,59.983087888359414,2024-04-15 11h06.40.643164 -0400,
images/image_248_seed_1.png,20,0,0,0,0,"[9, 19, 29, 39, 49, 59, 68, 69, 70, 71]",,,,,0,20,20,20,189.4714753949993,,,,,,,,,,,,,,,,,,,,,,,,,,,,,,,,,,,,,,,,,,,,,,189.45636238599946,189.45647889099928,189.45649153499926,189.4714753949993,189.4714753949993,190.47164096300003,190.47164096300003,193.47113468499992,193.47113468499992,193.47113468499992,193.47113468499992,193.455309123,None,0,None,193.45573702899947,193.45578130299964,None,193.45589312399989,193.4559474179996,None,193.45605812599933,193.45609467799932,None,,,,,,,,,,,,,26,001,0,,2024-04-15_11h06.23.160,replicate_nsd,2023.2.3,59.983087888359414,2024-04-15 11h06.40.643164 -0400,
images/image_684_seed_1.png,21,0,0,0,0,"[9, 19, 29, 39, 49, 59, 68, 69, 70, 71]",,,,,0,21,21,21,193.47113468499992,,,,,,,,,,,,,,,,,,,,,,,,,,,,,,,,,,,,,,,,,,,,,,193.4564675619995,193.4565833789993,193.45659580899974,193.47113468499992,193.47113468499992,194.47177315799945,194.47177315799945,197.47067633699953,197.47067633699953,197.47067633699953,197.47067633699953,197.45521628999995,None,0,None,197.45564683499924,197.4556901899996,None,197.4558035149994,197.45585815899994,None,197.4559707489998,197.4560075569998,None,,,,,,,,,,,,,26,001,0,,2024-04-15_11h06.23.160,replicate_nsd,2023.2.3,59.983087888359414,2024-04-15 11h06.40.643164 -0400,
images/image_586_seed_1.png,22,0,0,0,0,"[9, 19, 29, 39, 49, 59, 68, 69, 70, 71]",,,,,0,22,22,22,197.47067633699953,,,,,,,,,,,,,,,,,,,,,,,,,,,,,,,,,,,,,,,,,,,,,,197.45638614499967,197.45650143999956,197.45651410399933,197.47067633699953,197.47067633699953,198.47163937200003,198.47163937200003,201.47215020799922,201.47215020799922,201.47215020799922,201.47215020799922,201.4557845169993,None,0,None,201.4563236389995,201.456367537,None,201.4564815519998,201.45653711199975,None,201.4566494089995,201.45668665599987,None,,,,,,,,,,,,,26,001,0,,2024-04-15_11h06.23.160,replicate_nsd,2023.2.3,59.983087888359414,2024-04-15 11h06.40.643164 -0400,
images/image_346_seed_1.png,23,0,0,0,0,"[9, 19, 29, 39, 49, 59, 68, 69, 70, 71]",,,,,0,23,23,23,201.47215020799922,,,,,,,,,,,,,,,,,,,,,,,,,,,,,,,,,,,,,,,,,,,,,,201.4570609329994,201.45717657599926,201.45718923599998,201.47215020799922,201.47215020799922,202.471699404,202.471699404,205.47244589399997,205.47244589399997,205.47244589399997,205.47244589399997,205.4555142449999,None,0,None,205.45594001599966,205.45598318999964,None,205.4560955549996,205.456149525,None,205.45626081299997,205.45629788599945,None,,,,,,,,,,,,,26,001,0,,2024-04-15_11h06.23.160,replicate_nsd,2023.2.3,59.983087888359414,2024-04-15 11h06.40.643164 -0400,
images/image_319_seed_1.png,24,0,0,0,0,"[9, 19, 29, 39, 49, 59, 68, 69, 70, 71]",,,,,0,24,24,24,205.47244589399997,,,,,,,,,,,,,,,,,,,,,,,,,,,,,,,,,,,,,,,,,,,,,,205.4566775409994,205.45679507099976,205.45680787999936,205.47244589399997,205.47244589399997,206.47170940499927,206.47170940499927,209.47475705999932,209.47475705999932,209.47475705999932,209.47475705999932,209.4555213699996,None,0,None,209.4559459259999,209.45598944499943,None,209.45610162399953,209.45615611499943,None,209.45626775399978,209.45630508499926,None,,,,,,,,,,,,,26,001,0,,2024-04-15_11h06.23.160,replicate_nsd,2023.2.3,59.983087888359414,2024-04-15 11h06.40.643164 -0400,
images/image_161_seed_1.png,25,0,0,0,0,"[9, 19, 29, 39, 49, 59, 68, 69, 70, 71]",,,,,0,25,25,25,209.47475705999932,,,,,,,,,,,,,,,,,,,,,,,,,,,,,,,,,,,,,,,,,,,,,,209.45668206199935,209.45679838399974,209.4568109919992,209.47475705999932,209.47475705999932,210.47162457299964,210.47162457299964,213.47397011999965,213.47397011999965,213.47397011999965,213.47397011999965,213.45553684599963,None,0,None,213.45596086999922,213.45600365999962,None,213.45611669499976,213.45617175899952,None,213.45628460199987,213.45632244599983,None,,,,,,,,,,,,,26,001,0,,2024-04-15_11h06.23.160,replicate_nsd,2023.2.3,59.983087888359414,2024-04-15 11h06.40.643164 -0400,
images/image_91_seed_1.png,26,0,0,0,0,"[9, 19, 29, 39, 49, 59, 68, 69, 70, 71]",,,,,0,26,26,26,213.47397011999965,,,,,,,,,,,,,,,,,,,,,,,,,,,,,,,,,,,,,,,,,,,,,,213.45669929399992,213.45681546799915,213.456828288,213.47397011999965,213.47397011999965,214.47163512399948,214.47163512399948,217.47061956699963,217.47061956699963,217.47061956699963,217.47061956699963,217.45526284299922,None,0,None,217.45569067299948,217.45573393699942,None,217.4558455159995,217.45590091099984,None,217.45601265999994,217.45605036099914,None,,,,,,,,,,,,,26,001,0,,2024-04-15_11h06.23.160,replicate_nsd,2023.2.3,59.983087888359414,2024-04-15 11h06.40.643164 -0400,
images/image_124_seed_1.png,27,0,0,0,0,"[9, 19, 29, 39, 49, 59, 68, 69, 70, 71]",,,,,0,27,27,27,217.47061956699963,,,,,,,,,,,,,,,,,,,,,,,,,,,,,,,,,,,,,,,,,,,,,,217.45642641099948,217.4565438589998,217.45655646399973,217.47061956699963,217.47061956699963,218.47099673899993,218.47099673899993,221.47136849599974,221.47136849599974,221.47136849599974,221.47136849599974,221.45522608699957,None,0,None,221.45565220499975,221.455694882,None,221.45580749799956,221.45586167299916,None,221.4559743259997,221.45601226500003,None,,,,,,,,,,,,,26,001,0,,2024-04-15_11h06.23.160,replicate_nsd,2023.2.3,59.983087888359414,2024-04-15 11h06.40.643164 -0400,
images/image_566_seed_1.png,28,0,0,0,0,"[9, 19, 29, 39, 49, 59, 68, 69, 70, 71]",,,,,0,28,28,28,221.47136849599974,,,,,,,,,,,,,,,,,,,,,,,,,,,,,,,,,,,,,,,,,,,,,,221.4563892999995,221.45650557799945,221.456518211,221.47136849599974,221.47136849599974,222.47163819399975,222.47163819399975,225.47162355399996,225.47162355399996,225.47162355399996,225.47162355399996,225.45546526099952,None,0,None,225.45609263999995,225.4561354489997,None,225.4562478429998,225.45630184199945,None,225.4564133419999,225.4564503899992,None,,,,,,,,,,,,,26,001,0,,2024-04-15_11h06.23.160,replicate_nsd,2023.2.3,59.983087888359414,2024-04-15 11h06.40.643164 -0400,
blank.jpg,29,1,0,0,0,"[9, 19, 29, 39, 49, 59, 68, 69, 70, 71]",,,,,0,29,29,29,225.47162355399996,,,,,,,,,,,,,,,,,,,,,,,,,,,,,,,,,,,,,,,,,,,,,,225.45682346299964,225.45693947199925,225.45695213099953,,,,,,,,,225.4601917959999,None,0,None,225.46058665199962,229.4552292139997,None,229.45544282799983,229.45550256299975,None,229.4556317609995,229.4556708909995,None,225.47162355399996,225.47162355399996,229.47114268399946,229.47114268399946,,,,,,,,,26,001,0,,2024-04-15_11h06.23.160,replicate_nsd,2023.2.3,59.983087888359414,2024-04-15 11h06.40.643164 -0400,
images/image_697_seed_1.png,30,0,0,0,0,"[9, 19, 29, 39, 49, 59, 68, 69, 70, 71]",,,,,0,30,30,30,229.47114268399946,,,,,,,,,,,,,,,,,,,,,,,,,,,,,,,,,,,,,,,,,,,,,,229.45606899099948,229.45618722799918,229.45620009599952,229.47114268399946,229.47114268399946,230.47168579699974,230.47168579699974,233.47131048199935,233.47131048199935,233.47131048199935,233.47131048199935,233.45534343599957,None,0,None,233.45576968099977,233.45581333299924,None,233.4559250729999,233.45597964399985,None,233.4560891279998,233.4561251969999,None,,,,,,,,,,,,,26,001,0,,2024-04-15_11h06.23.160,replicate_nsd,2023.2.3,59.983087888359414,2024-04-15 11h06.40.643164 -0400,
images/image_9_seed_1.png,31,0,0,0,0,"[9, 19, 29, 39, 49, 59, 68, 69, 70, 71]",,,,,0,31,31,31,233.47131048199935,,,,,,,,,,,,,,,,,,,,,,,,,,,,,,,,,,,,,,,,,,,,,,233.4564937999994,233.45660638699974,233.45661902599932,233.47131048199935,233.47131048199935,234.47161830599998,234.47161830599998,237.47060495499954,237.47060495499954,237.47060495499954,237.47060495499954,237.45521127699976,None,0,None,237.45563624199985,237.45567943699916,None,237.45579277899924,237.45584725299977,None,237.45595895499991,237.45599504999973,None,,,,,,,,,,,,,26,001,0,,2024-04-15_11h06.23.160,replicate_nsd,2023.2.3,59.983087888359414,2024-04-15 11h06.40.643164 -0400,
images/image_619_seed_1.png,32,0,0,0,0,"[9, 19, 29, 39, 49, 59, 68, 69, 70, 71]",,,,,0,32,32,32,237.47060495499954,,,,,,,,,,,,,,,,,,,,,,,,,,,,,,,,,,,,,,,,,,,,,,237.45637016699948,237.45648673300002,237.45649954199962,237.47060495499954,237.47060495499954,238.47165359799965,238.47165359799965,241.47396991299956,241.47396991299956,241.47396991299956,241.47396991299956,241.45517562199984,None,0,None,241.4556036469994,241.45564739999918,None,241.45575870799985,241.45581260399922,None,241.455922999,241.4559603029993,None,,,,,,,,,,,,,26,001,0,,2024-04-15_11h06.23.160,replicate_nsd,2023.2.3,59.983087888359414,2024-04-15 11h06.40.643164 -0400,
images/image_464_seed_1.png,33,0,0,0,0,"[9, 19, 29, 39, 49, 59, 68, 69, 70, 71]",,,,,0,33,33,33,241.47396991299956,,,,,,,,,,,,,,,,,,,,,,,,,,,,,,,,,,,,,,,,,,,,,,241.4563352159994,241.4564509869997,241.45646354199926,241.47396991299956,241.47396991299956,242.47162152199962,242.47162152199962,245.470599622,245.470599622,245.470599622,245.470599622,245.4552074839994,None,0,None,245.45563244699952,245.45567543999914,None,245.4557878179994,245.4558425719997,None,245.45595240700004,245.45598917499956,None,,,,,,,,,,,,,26,001,0,,2024-04-15_11h06.23.160,replicate_nsd,2023.2.3,59.983087888359414,2024-04-15 11h06.40.643164 -0400,
images/image_296_seed_1.png,34,0,0,0,0,"[9, 19, 29, 39, 49, 59, 68, 69, 70, 71]",,,,,0,34,34,34,245.470599622,,,,,,,,,,,,,,,,,,,,,,,,,,,,,,,,,,,,,,,,,,,,,,245.45636628800003,245.45648177599924,245.45649474699985,245.470599622,245.470599622,246.47163135899973,246.47163135899973,249.47054572899924,249.47054572899924,249.47054572899924,249.47054572899924,249.4551616209992,None,0,None,249.45559216899983,249.45563565499924,None,249.45574854699953,249.45580315499956,None,249.45591386499927,249.4559511739999,None,,,,,,,,,,,,,26,001,0,,2024-04-15_11h06.23.160,replicate_nsd,2023.2.3,59.983087888359414,2024-04-15 11h06.40.643164 -0400,
images/image_76_seed_1.png,35,0,0,0,0,"[9, 19, 29, 39, 49, 59, 68, 69, 70, 71]",,,,,0,35,35,35,249.47054572899924,,,,,,,,,,,,,,,,,,,,,,,,,,,,,,,,,,,,,,,,,,,,,,249.45632492099958,249.45644052099942,249.45645317399976,249.47054572899924,249.47054572899924,250.47111670100003,250.47111670100003,253.47447422299956,253.47447422299956,253.47447422299956,253.47447422299956,253.4551697499992,None,0,None,253.45559820199924,253.45564022899998,None,253.45575271500002,253.45580646899998,None,253.4559186739998,253.45595527599926,None,,,,,,,,,,,,,26,001,0,,2024-04-15_11h06.23.160,replicate_nsd,2023.2.3,59.983087888359414,2024-04-15 11h06.40.643164 -0400,
images/image_390_seed_1.png,36,0,0,0,0,"[9, 19, 29, 39, 49, 59, 68, 69, 70, 71]",,,,,0,36,36,36,253.47447422299956,,,,,,,,,,,,,,,,,,,,,,,,,,,,,,,,,,,,,,,,,,,,,,253.45633376999922,253.45645029599928,253.45646281999962,253.47447422299956,253.47447422299956,254.47162327999922,254.47162327999922,257.47111996499916,257.47111996499916,257.47111996499916,257.47111996499916,257.45514789999925,None,0,None,257.45557758999985,257.4556211749996,None,257.45573384699946,257.45578891900004,None,257.45590156899925,257.4559390559998,None,,,,,,,,,,,,,26,001,0,,2024-04-15_11h06.23.160,replicate_nsd,2023.2.3,59.983087888359414,2024-04-15 11h06.40.643164 -0400,
images/image_383_seed_1.png,37,0,0,0,0,"[9, 19, 29, 39, 49, 59, 68, 69, 70, 71]",,,,,0,37,37,37,257.47111996499916,,,,,,,,,,,,,,,,,,,,,,,,,,,,,,,,,,,,,,,,,,,,,,257.456317401,257.45643355099946,257.4564464649993,257.47111996499916,257.47111996499916,258.47155861199917,258.47155861199917,261.47057933199994,261.47057933199994,261.47057933199994,261.47057933199994,261.4551198249992,None,0,None,261.45555090999915,261.45559436199983,None,261.4557092219993,261.45576507499936,None,261.45588022099946,261.4559183149995,None,,,,,,,,,,,,,26,001,0,,2024-04-15_11h06.23.160,replicate_nsd,2023.2.3,59.983087888359414,2024-04-15 11h06.40.643164 -0400,
images/image_521_seed_1.png,38,0,0,0,0,"[9, 19, 29, 39, 49, 59, 68, 69, 70, 71]",,,,,0,38,38,38,261.47057933199994,,,,,,,,,,,,,,,,,,,,,,,,,,,,,,,,,,,,,,,,,,,,,,261.45629790099974,261.45641462099957,261.45642739199957,261.47057933199994,261.47057933199994,262.4716031799999,262.4716031799999,265.47142467899994,265.47142467899994,265.47142467899994,265.47142467899994,265.45513465899967,None,0,None,265.4555736509992,265.4556167309993,None,265.45572884599915,265.45578320000004,None,265.45589501299946,265.4559319159998,None,,,,,,,,,,,,,26,001,0,,2024-04-15_11h06.23.160,replicate_nsd,2023.2.3,59.983087888359414,2024-04-15 11h06.40.643164 -0400,
blank.jpg,39,1,0,0,0,"[9, 19, 29, 39, 49, 59, 68, 69, 70, 71]",,,,,0,39,39,39,265.47142467899994,,,,,,,,,,,,,,,,,,,,,,,,,,,,,,,,,,,,,,,,,,,,,,265.4563092999997,265.4564271199997,265.4564398019993,,,,,,,,,265.4596780359998,None,0,None,265.4600724739994,269.45516385299925,None,269.45537919099934,269.4554397009997,None,269.4555682179998,269.45560712399947,None,265.47142467899994,265.47142467899994,269.47174604999964,269.47174604999964,,,,,,,,,26,001,0,,2024-04-15_11h06.23.160,replicate_nsd,2023.2.3,59.983087888359414,2024-04-15 11h06.40.643164 -0400,
images/image_304_seed_1.png,40,0,0,0,0,"[9, 19, 29, 39, 49, 59, 68, 69, 70, 71]",,,,,0,40,40,40,269.47174604999964,,,,,,,,,,,,,,,,,,,,,,,,,,,,,,,,,,,,,,,,,,,,,,269.4559997209999,269.456115811,269.4561287159995,269.47174604999964,269.47174604999964,270.47122445399964,270.47122445399964,273.47055729299973,273.47055729299973,273.47055729299973,273.47055729299973,273.45522841899947,None,0,None,273.4556535439997,273.45569717499984,None,273.45580950899966,273.45586371599984,None,273.4559745479992,273.4560115859995,None,,,,,,,,,,,,,26,001,0,,2024-04-15_11h06.23.160,replicate_nsd,2023.2.3,59.983087888359414,2024-04-15 11h06.40.643164 -0400,
images/image_18_seed_1.png,41,0,0,0,0,"[9, 19, 29, 39, 49, 59, 68, 69, 70, 71]",,,,,0,41,41,41,273.47055729299973,,,,,,,,,,,,,,,,,,,,,,,,,,,,,,,,,,,,,,,,,,,,,,273.45638498899916,273.45650209999985,273.4565145889992,273.47055729299973,273.47055729299973,274.4715269999997,274.4715269999997,277.4705989219992,277.4705989219992,277.4705989219992,277.4705989219992,277.4550914319998,None,0,None,277.45551769099984,277.455560464,None,277.45567151999967,277.4557273399996,None,277.45583874299973,277.45587642699957,None,,,,,,,,,,,,,26,001,0,,2024-04-15_11h06.23.160,replicate_nsd,2023.2.3,59.983087888359414,2024-04-15 11h06.40.643164 -0400,
images/image_478_seed_1.png,42,0,0,0,0,"[9, 19, 29, 39, 49, 59, 68, 69, 70, 71]",,,,,0,42,42,42,277.4705989219992,,,,,,,,,,,,,,,,,,,,,,,,,,,,,,,,,,,,,,,,,,,,,,277.45625279699925,277.4563684699997,277.45638133099965,277.4705989219992,277.4705989219992,278.471525596,278.471525596,281.4709100709997,281.4709100709997,281.4709100709997,281.4709100709997,281.4549707419992,None,0,None,281.4554143329997,281.4554568529993,None,281.45557066699985,281.45562537299975,None,281.45573813099963,281.4557755349997,None,,,,,,,,,,,,,26,001,0,,2024-04-15_11h06.23.160,replicate_nsd,2023.2.3,59.983087888359414,2024-04-15 11h06.40.643164 -0400,
images/image_718_seed_1.png,43,0,0,0,0,"[9, 19, 29, 39, 49, 59, 68, 69, 70, 71]",,,,,0,43,43,43,281.4709100709997,,,,,,,,,,,,,,,,,,,,,,,,,,,,,,,,,,,,,,,,,,,,,,281.4561560679995,281.45627241499915,281.456285362,281.4709100709997,281.4709100709997,282.4711981849996,282.4711981849996,285.4711488789999,285.4711488789999,285.4711488789999,285.4711488789999,285.4551973099997,None,0,None,285.45562534799956,285.4556679069992,None,285.4557802619993,285.45583577399975,None,285.4559479619993,285.45598526199956,None,,,,,,,,,,,,,26,001,0,,2024-04-15_11h06.23.160,replicate_nsd,2023.2.3,59.983087888359414,2024-04-15 11h06.40.643164 -0400,
images/image_290_seed_1.png,44,0,0,0,0,"[9, 19, 29, 39, 49, 59, 68, 69, 70, 71]",,,,,0,44,44,44,285.4711488789999,,,,,,,,,,,,,,,,,,,,,,,,,,,,,,,,,,,,,,,,,,,,,,285.45636135399945,285.4564791489993,285.4564920599996,285.4711488789999,285.4711488789999,286.4709772769993,286.4709772769993,289.47030445399923,289.47030445399923,289.47030445399923,289.47030445399923,289.4550558379997,None,0,None,289.4554836669995,289.45552644599957,None,289.45563872599996,289.4556936359995,None,289.4558046919992,289.4558424279994,None,,,,,,,,,,,,,26,001,0,,2024-04-15_11h06.23.160,replicate_nsd,2023.2.3,59.983087888359414,2024-04-15 11h06.40.643164 -0400,
images/image_516_seed_1.png,45,0,0,0,0,"[9, 19, 29, 39, 49, 59, 68, 69, 70, 71]",,,,,0,45,45,45,289.47030445399923,,,,,,,,,,,,,,,,,,,,,,,,,,,,,,,,,,,,,,,,,,,,,,289.45622134099995,289.4563377199993,289.4563502889996,289.47030445399923,289.47030445399923,290.4710918239998,290.4710918239998,293.47046825399957,293.47046825399957,293.47046825399957,293.47046825399957,293.4551213429995,None,0,None,293.45554844899925,293.45559156699983,None,293.45570453299933,293.4557581129993,None,293.4558685409993,293.45590605300004,None,,,,,,,,,,,,,26,001,0,,2024-04-15_11h06.23.160,replicate_nsd,2023.2.3,59.983087888359414,2024-04-15 11h06.40.643164 -0400,
images/image_684_seed_1.png,46,0,1,0,0,"[9, 19, 29, 39, 49, 59, 68, 69, 70, 71]",,,,,0,46,46,46,293.47046825399957,,,,,,,,,,,,,,,,,,,,,,,,,,,,,,,,,,,,,,,,,,,,,,293.45628184199995,293.4563980999992,293.4564109519997,293.47046825399957,293.47046825399957,294.4715229609992,294.4715229609992,297.47100209899963,297.47100209899963,297.47100209899963,297.47100209899963,297.4550678159994,None,0,None,297.4554918519998,297.4555354869999,None,297.4556469849995,297.4557017069992,None,297.4558115989994,297.45584873699954,None,,,,,,,,,,,,,26,001,0,,2024-04-15_11h06.23.160,replicate_nsd,2023.2.3,59.983087888359414,2024-04-15 11h06.40.643164 -0400,
images/image_75_seed_1.png,47,0,0,0,0,"[9, 19, 29, 39, 49, 59, 68, 69, 70, 71]",,,,,0,47,47,47,297.47100209899963,,,,,,,,,,,,,,,,,,,,,,,,,,,,,,,,,,,,,,,,,,,,,,297.45622035999986,297.4563337039999,297.4563461509997,297.47100209899963,297.47100209899963,298.4715904499999,298.4715904499999,301.4709252439998,301.4709252439998,301.4709252439998,301.4709252439998,301.4548579909997,None,0,None,301.4552847239993,301.45532798399927,None,301.45543933799945,301.45549274099994,None,301.45560333999947,301.45564060299967,None,,,,,,,,,,,,,26,001,0,,2024-04-15_11h06.23.160,replicate_nsd,2023.2.3,59.983087888359414,2024-04-15 11h06.40.643164 -0400,
images/image_165_seed_1.png,48,0,0,0,0,"[9, 19, 29, 39, 49, 59, 68, 69, 70, 71]",,,,,0,48,48,48,301.4709252439998,,,,,,,,,,,,,,,,,,,,,,,,,,,,,,,,,,,,,,,,,,,,,,301.4560154179999,301.456132155,301.4561448929999,301.4709252439998,301.4709252439998,302.4715291909997,302.4715291909997,305.471431555,305.471431555,305.471431555,305.471431555,305.4549186179993,None,0,None,305.45535158799976,305.45539475199985,None,305.4555072609992,305.4555625409994,None,305.4556745759992,305.4557119179999,None,,,,,,,,,,,,,26,001,0,,2024-04-15_11h06.23.160,replicate_nsd,2023.2.3,59.983087888359414,2024-04-15 11h06.40.643164 -0400,
blank.jpg,49,1,0,0,0,"[9, 19, 29, 39, 49, 59, 68, 69, 70, 71]",,,,,0,49,49,49,305.471431555,,,,,,,,,,,,,,,,,,,,,,,,,,,,,,,,,,,,,,,,,,,,,,305.45608952399925,305.45620643299935,305.45621914599997,,,,,,,,,305.4592319659996,None,0,None,305.4595100759998,309.4552412079993,None,309.4555810849997,309.4556435609993,None,309.4557738939993,309.45581353799935,None,305.471431555,305.471431555,309.47143965299983,309.47143965299983,,,,,,,,,26,001,0,,2024-04-15_11h06.23.160,replicate_nsd,2023.2.3,59.983087888359414,2024-04-15 11h06.40.643164 -0400,
images/image_236_seed_1.png,50,0,0,0,0,"[9, 19, 29, 39, 49, 59, 68, 69, 70, 71]",,,,,0,50,50,50,309.47143965299983,,,,,,,,,,,,,,,,,,,,,,,,,,,,,,,,,,,,,,,,,,,,,,309.45621492699956,309.45633129899943,309.4563442919998,309.47143965299983,309.47143965299983,310.47148698899946,310.47148698899946,313.47062610399917,313.47062610399917,313.47062610399917,313.47062610399917,313.4551834589993,None,0,None,313.4556099859992,313.45565342699956,None,313.4557666389992,313.45582144499986,None,313.45593195999936,313.4559696869992,None,,,,,,,,,,,,,26,001,0,,2024-04-15_11h06.23.160,replicate_nsd,2023.2.3,59.983087888359414,2024-04-15 11h06.40.643164 -0400,
images/image_702_seed_1.png,51,0,0,0,0,"[9, 19, 29, 39, 49, 59, 68, 69, 70, 71]",,,,,0,51,51,51,313.47062610399917,,,,,,,,,,,,,,,,,,,,,,,,,,,,,,,,,,,,,,,,,,,,,,313.4563512099994,313.4564689729996,313.45648183699996,313.47062610399917,313.47062610399917,314.47154104199944,314.47154104199944,317.4709241159999,317.4709241159999,317.4709241159999,317.4709241159999,317.4552063639994,None,0,None,317.455632272,317.4556747179995,None,317.4557881239998,317.4558439269995,None,317.4559547359995,317.45599267599937,None,,,,,,,,,,,,,26,001,0,,2024-04-15_11h06.23.160,replicate_nsd,2023.2.3,59.983087888359414,2024-04-15 11h06.40.643164 -0400,
images/image_133_seed_1.png,52,0,0,0,0,"[9, 19, 29, 39, 49, 59, 68, 69, 70, 71]",,,,,0,52,52,52,317.4709241159999,,,,,,,,,,,,,,,,,,,,,,,,,,,,,,,,,,,,,,,,,,,,,,317.45637284699933,317.45648777399947,317.4565002139998,317.4709241159999,317.4709241159999,318.471462945,318.471462945,321.47083713399934,321.47083713399934,321.47083713399934,321.47083713399934,321.45511211199937,None,0,None,321.455535823,321.45557850099976,None,321.45569028999944,321.455745706,None,321.4558563009996,321.4558933109993,None,,,,,,,,,,,,,26,001,0,,2024-04-15_11h06.23.160,replicate_nsd,2023.2.3,59.983087888359414,2024-04-15 11h06.40.643164 -0400,
images/image_614_seed_1.png,53,0,0,0,0,"[9, 19, 29, 39, 49, 59, 68, 69, 70, 71]",,,,,0,53,53,53,321.47083713399934,,,,,,,,,,,,,,,,,,,,,,,,,,,,,,,,,,,,,,,,,,,,,,321.4562703449992,321.4563866259996,321.45639908299927,321.47083713399934,321.47083713399934,322.4714648979998,322.4714648979998,325.4705158809993,325.4705158809993,325.4705158809993,325.4705158809993,325.4551490119993,None,0,None,325.4555775379995,325.4556197799993,None,325.45573241299917,325.455786945,None,325.45589725599984,325.45593408699915,None,,,,,,,,,,,,,26,001,0,,2024-04-15_11h06.23.160,replicate_nsd,2023.2.3,59.983087888359414,2024-04-15 11h06.40.643164 -0400,
images/image_143_seed_1.png,54,0,0,0,0,"[9, 19, 29, 39, 49, 59, 68, 69, 70, 71]",,,,,0,54,54,54,325.4705158809993,,,,,,,,,,,,,,,,,,,,,,,,,,,,,,,,,,,,,,,,,,,,,,325.4563098179997,325.4564271669997,325.4564396449996,325.4705158809993,325.4705158809993,326.47113513099976,326.47113513099976,329.47059484700003,329.47059484700003,329.47059484700003,329.47059484700003,329.4547094919999,None,0,None,329.45513614599986,329.45517975299936,None,329.4552919379994,329.45534693599984,None,329.4554582799992,329.45549622,None,,,,,,,,,,,,,26,001,0,,2024-04-15_11h06.23.160,replicate_nsd,2023.2.3,59.983087888359414,2024-04-15 11h06.40.643164 -0400,
images/image_518_seed_1.png,55,0,0,0,0,"[9, 19, 29, 39, 49, 59, 68, 69, 70, 71]",,,,,0,55,55,55,329.47059484700003,,,,,,,,,,,,,,,,,,,,,,,,,,,,,,,,,,,,,,,,,,,,,,329.4558729199998,329.455988834,329.45600148499943,329.47059484700003,329.47059484700003,330.4715322109996,330.4715322109996,333.4705403939997,333.4705403939997,333.4705403939997,333.4705403939997,333.4550763009993,None,0,None,333.45550502399965,333.4555484909997,None,333.455660951,333.45571557399944,None,333.4558274199999,333.45586477300003,None,,,,,,,,,,,,,26,001,0,,2024-04-15_11h06.23.160,replicate_nsd,2023.2.3,59.983087888359414,2024-04-15 11h06.40.643164 -0400,
images/image_384_seed_1.png,56,0,0,0,0,"[9, 19, 29, 39, 49, 59, 68, 69, 70, 71]",,,,,0,56,56,56,333.4705403939997,,,,,,,,,,,,,,,,,,,,,,,,,,,,,,,,,,,,,,,,,,,,,,333.4562431509994,333.4563603359993,333.4563729499996,333.4705403939997,333.4705403939997,334.47144244299943,334.47144244299943,337.4707989569997,337.4707989569997,337.4707989569997,337.4707989569997,337.4550957799993,None,0,None,337.4555226329994,337.4555660289998,None,337.455679529,337.4557343839997,None,337.4558450249997,337.4558825409995,None,,,,,,,,,,,,,26,001,0,,2024-04-15_11h06.23.160,replicate_nsd,2023.2.3,59.983087888359414,2024-04-15 11h06.40.643164 -0400,
images/image_669_seed_1.png,57,0,0,0,0,"[9, 19, 29, 39, 49, 59, 68, 69, 70, 71]",,,,,0,57,57,57,337.4707989569997,,,,,,,,,,,,,,,,,,,,,,,,,,,,,,,,,,,,,,,,,,,,,,337.45625904999997,337.45637446,337.45638692800003,337.4707989569997,337.4707989569997,338.47133669199957,338.47133669199957,341.4707467119997,341.4707467119997,341.4707467119997,341.4707467119997,341.45514139199986,None,0,None,341.4555705319999,341.45561431499937,None,341.4557267299997,341.4557809179996,None,341.45589383699917,341.4559312229994,None,,,,,,,,,,,,,26,001,0,,2024-04-15_11h06.23.160,replicate_nsd,2023.2.3,59.983087888359414,2024-04-15 11h06.40.643164 -0400,
images/image_274_seed_1.png,58,0,1,0,0,"[9, 19, 29, 39, 49, 59, 68, 69, 70, 71]",,,,,0,58,58,58,341.4707467119997,,,,,,,,,,,,,,,,,,,,,,,,,,,,,,,,,,,,,,,,,,,,,,341.4563079339996,341.45642425200003,341.4564370779999,341.4707467119997,341.4707467119997,342.4715363689993,342.4715363689993,345.4714274649996,345.4714274649996,345.4714274649996,345.4714274649996,345.4550703269997,None,0,None,345.4554974419998,345.45554112099944,None,345.4556548549999,345.4557101549999,None,345.4558207279997,345.4558590689994,None,,,,,,,,,,,,,26,001,0,,2024-04-15_11h06.23.160,replicate_nsd,2023.2.3,59.983087888359414,2024-04-15 11h06.40.643164 -0400,
blank.jpg,59,1,0,0,0,"[9, 19, 29, 39, 49, 59, 68, 69, 70, 71]",,,,,0,59,59,59,345.4714274649996,,,,,,,,,,,,,,,,,,,,,,,,,,,,,,,,,,,,,,,,,,,,,,345.4562362959996,345.4563530789992,345.45636545399975,,,,,,,,,345.4592407,None,0,None,345.45958774099927,349.45490514299945,None,349.455120568,349.45518024399917,None,349.45530807399973,349.4553463579996,None,345.4714274649996,345.4714274649996,349.470219541,349.470219541,,,,,,,,,26,001,0,,2024-04-15_11h06.23.160,replicate_nsd,2023.2.3,59.983087888359414,2024-04-15 11h06.40.643164 -0400,
images/image_7_seed_1.png,60,0,0,0,0,"[9, 19, 29, 39, 49, 59, 68, 69, 70, 71]",,,,,0,60,60,60,349.470219541,,,,,,,,,,,,,,,,,,,,,,,,,,,,,,,,,,,,,,,,,,,,,,349.4557386029992,349.45585579899944,349.4558685639995,349.470219541,349.470219541,350.4710620779997,350.4710620779997,353.4719396569999,353.4719396569999,353.4719396569999,353.4719396569999,353.45452757399926,None,0,None,353.454954883,353.4549982389999,None,353.45511057299973,353.45516596799916,None,353.4552772799998,353.4553150319998,None,,,,,,,,,,,,,26,001,0,,2024-04-15_11h06.23.160,replicate_nsd,2023.2.3,59.983087888359414,2024-04-15 11h06.40.643164 -0400,
images/image_655_seed_1.png,61,0,0,0,0,"[9, 19, 29, 39, 49, 59, 68, 69, 70, 71]",,,,,0,61,61,61,353.4719396569999,,,,,,,,,,,,,,,,,,,,,,,,,,,,,,,,,,,,,,,,,,,,,,353.45569229299963,353.45580788999996,353.45582040299996,353.4719396569999,353.4719396569999,354.4714786859995,354.4714786859995,357.470214293,357.470214293,357.470214293,357.470214293,357.45503990999987,None,0,None,357.4554691029998,357.45551263799916,None,357.45562568899913,357.45568032999927,None,357.45579249599996,357.45583156999965,None,,,,,,,,,,,,,26,001,0,,2024-04-15_11h06.23.160,replicate_nsd,2023.2.3,59.983087888359414,2024-04-15 11h06.40.643164 -0400,
images/image_681_seed_1.png,62,0,0,0,0,"[9, 19, 29, 39, 49, 59, 68, 69, 70, 71]",,,,,0,62,62,62,357.470214293,,,,,,,,,,,,,,,,,,,,,,,,,,,,,,,,,,,,,,,,,,,,,,357.4562081159993,357.45632458399996,357.45633730199916,357.470214293,357.470214293,358.47113461199933,358.47113461199933,361.47057169099935,361.47057169099935,361.47057169099935,361.47057169099935,361.45470420899983,None,0,None,361.45512992399927,361.45517328499955,None,361.45528668799943,361.45534202199997,None,361.4554531679996,361.455490802,None,,,,,,,,,,,,,26,001,0,,2024-04-15_11h06.23.160,replicate_nsd,2023.2.3,59.983087888359414,2024-04-15 11h06.40.643164 -0400,
images/image_569_seed_1.png,63,0,0,0,0,"[9, 19, 29, 39, 49, 59, 68, 69, 70, 71]",,,,,0,63,63,63,361.47057169099935,,,,,,,,,,,,,,,,,,,,,,,,,,,,,,,,,,,,,,,,,,,,,,361.45586833999914,361.4559850299993,361.45599731999937,361.47057169099935,361.47057169099935,362.4711318039999,362.4711318039999,365.47072498599937,365.47072498599937,365.47072498599937,365.47072498599937,365.45459700799984,None,0,None,365.4550245189994,365.4550678579999,None,365.4551800019999,365.45523483299985,None,365.45534544199927,365.4553828219996,None,,,,,,,,,,,,,26,001,0,,2024-04-15_11h06.23.160,replicate_nsd,2023.2.3,59.983087888359414,2024-04-15 11h06.40.643164 -0400,
images/image_282_seed_1.png,64,0,0,0,0,"[9, 19, 29, 39, 49, 59, 68, 69, 70, 71]",,,,,0,64,64,64,365.47072498599937,,,,,,,,,,,,,,,,,,,,,,,,,,,,,,,,,,,,,,,,,,,,,,365.4557566909998,365.455873719,365.4558863079992,365.47072498599937,365.47072498599937,366.4710155899993,366.4710155899993,369.47021983599916,369.47021983599916,369.47021983599916,369.47021983599916,369.45496284399997,None,0,None,369.4553916519999,369.45543366699985,None,369.45554664499923,369.4556005839995,None,369.45571295899936,369.4557502819998,None,,,,,,,,,,,,,26,001,0,,2024-04-15_11h06.23.160,replicate_nsd,2023.2.3,59.983087888359414,2024-04-15 11h06.40.643164 -0400,
images/image_3_seed_1.png,65,0,0,0,0,"[9, 19, 29, 39, 49, 59, 68, 69, 70, 71]",,,,,0,65,65,65,369.47021983599916,,,,,,,,,,,,,,,,,,,,,,,,,,,,,,,,,,,,,,,,,,,,,,369.4561281869992,369.45624341499934,369.4562558409998,369.47021983599916,369.47021983599916,370.4710681279994,370.4710681279994,373.47040938200007,373.47040938200007,373.47040938200007,373.47040938200007,373.45466964299885,None,0,None,373.4550943559989,373.4551369359997,None,373.4552509719997,373.4553059279988,None,373.4554176540005,373.4554548399992,None,,,,,,,,,,,,,26,001,0,,2024-04-15_11h06.23.160,replicate_nsd,2023.2.3,59.983087888359414,2024-04-15 11h06.40.643164 -0400,
images/image_365_seed_1.png,66,0,0,0,0,"[9, 19, 29, 39, 49, 59, 68, 69, 70, 71]",,,,,0,66,66,66,373.47040938200007,,,,,,,,,,,,,,,,,,,,,,,,,,,,,,,,,,,,,,,,,,,,,,373.45583685199927,373.45595321699875,373.45596580500023,373.47040938200007,373.47040938200007,374.4710831230004,374.4710831230004,377.47031221399993,377.47031221399993,377.47031221399993,377.47031221399993,377.45469526099987,None,0,None,377.455123456999,377.455166497999,None,377.4552779329988,377.45533233899914,None,377.4554447219998,377.455482338999,None,,,,,,,,,,,,,26,001,0,,2024-04-15_11h06.23.160,replicate_nsd,2023.2.3,59.983087888359414,2024-04-15 11h06.40.643164 -0400,
images/image_231_seed_1.png,67,0,0,0,0,"[9, 19, 29, 39, 49, 59, 68, 69, 70, 71]",,,,,0,67,67,67,377.47031221399993,,,,,,,,,,,,,,,,,,,,,,,,,,,,,,,,,,,,,,,,,,,,,,377.45585926999956,377.45597752399954,377.4559903569989,377.47031221399993,377.47031221399993,378.4711092130001,378.4711092130001,381.4710475569991,381.4710475569991,381.4710475569991,381.4710475569991,381.4547144139997,None,0,None,381.4551388609998,381.4551815390005,None,381.45529286300007,381.455346540999,None,381.45545709999897,381.4554942679988,None,,,,,,,,,,,,,26,001,0,,2024-04-15_11h06.23.160,replicate_nsd,2023.2.3,59.983087888359414,2024-04-15 11h06.40.643164 -0400,
blank.jpg,68,1,0,0,0,"[9, 19, 29, 39, 49, 59, 68, 69, 70, 71]",,,,,0,68,68,68,381.4710475569991,,,,,,,,,,,,,,,,,,,,,,,,,,,,,,,,,,,,,,,,,,,,,,381.4558641519998,381.4559800719999,381.4559927680002,,,,,,,,,381.45906958399974,None,0,None,381.45946470499985,385.45489260499926,None,385.4551053189989,385.4551654019997,None,385.4552939789992,385.45533247799904,None,381.4710475569991,381.4710475569991,385.4710943179998,385.4710943179998,,,,,,,,,26,001,0,,2024-04-15_11h06.23.160,replicate_nsd,2023.2.3,59.983087888359414,2024-04-15 11h06.40.643164 -0400,
blank.jpg,69,1,0,0,0,"[9, 19, 29, 39, 49, 59, 68, 69, 70, 71]",,,,,0,69,69,69,385.4710943179998,,,,,,,,,,,,,,,,,,,,,,,,,,,,,,,,,,,,,,,,,,,,,,385.4557293300004,385.4558469879994,385.45585942099933,,,,,,,,,385.45871356099997,None,0,None,385.45920214000034,389.45497417299885,None,389.4551889609993,389.45524954699977,None,389.45537670199883,389.45541615799993,None,385.4710943179998,385.4710943179998,389.4709259459996,389.4709259459996,,,,,,,,,26,001,0,,2024-04-15_11h06.23.160,replicate_nsd,2023.2.3,59.983087888359414,2024-04-15 11h06.40.643164 -0400,
blank.jpg,70,1,0,0,0,"[9, 19, 29, 39, 49, 59, 68, 69, 70, 71]",,,,,0,70,70,70,389.4709259459996,,,,,,,,,,,,,,,,,,,,,,,,,,,,,,,,,,,,,,,,,,,,,,389.4558075719997,389.45592385099917,389.4559366960002,,,,,,,,,389.4586470049999,None,0,None,389.45904588600024,393.4549339799996,None,393.4551473419997,393.45520662299896,None,393.45533592299944,393.4553747409991,None,389.4709259459996,389.4709259459996,393.47121700800017,393.47121700800017,,,,,,,,,26,001,0,,2024-04-15_11h06.23.160,replicate_nsd,2023.2.3,59.983087888359414,2024-04-15 11h06.40.643164 -0400,
blank.jpg,71,1,0,1,0,"[9, 19, 29, 39, 49, 59, 68, 69, 70, 71]",,,,,0,71,71,71,393.47121700800017,,,,,,,,,,,,,,,,,,,,,,,,,,,,,,,,,,,,,,,,,,,,,,393.4557671399998,393.4558855289997,393.45589795699925,,,,,,,,,393.4587535699993,None,0,None,393.4592408039989,397.45493026999975,None,397.45514333199935,506.5874867620005,1,506.5883177279993,508.1044444700001,equal,393.47121700800017,393.47121700800017,397.47245458999896,397.47245458999896,397.47245458999896,397.47245458999896,109.0993694129993,None,506.606166911999,506.606166911999,1.4978672130000632,None,26,001,0,,2024-04-15_11h06.23.160,replicate_nsd,2023.2.3,59.983087888359414,2024-04-15 11h06.40.643164 -0400,
images/image_282_seed_1.png,0,0,1,0,1,"[9, 19, 31, 42, 56, 68, 69, 70, 71]",,,,,0,72,72,72,508.12040289200013,,,,,,,,,,,,,,,,,,,,,,,,,,,,,,,,,,,,,,,,,,,,,,508.10556425600043,508.10565528999905,508.1056641180003,508.12040289200013,508.12040289200013,509.12092620399926,509.12092620399926,512.1200561789992,512.1200561789992,512.1200561789992,512.1200561789992,512.1045796369999,None,0,None,512.1050127629987,512.105057662,None,512.1051721349995,512.1052316719997,None,512.1053456059999,512.105385162,None,,,,,,,,,,,,,26,001,0,,2024-04-15_11h06.23.160,replicate_nsd,2023.2.3,59.983087888359414,2024-04-15 11h06.40.643164 -0400,
images/image_201_seed_1.png,1,0,0,0,1,"[9, 19, 31, 42, 56, 68, 69, 70, 71]",,,,,0,73,73,73,512.1200561789992,,,,,,,,,,,,,,,,,,,,,,,,,,,,,,,,,,,,,,,,,,,,,,512.1057678819998,512.105883794,512.105896351999,512.1200561789992,512.1200561789992,513.1208439749989,513.1208439749989,516.1202772300003,516.1202772300003,516.1202772300003,516.1202772300003,516.1045580329992,None,0,None,516.104982805,516.1050253350004,None,516.1051381090001,516.1051948679997,None,516.1053067169996,516.1053445580001,None,,,,,,,,,,,,,26,001,0,,2024-04-15_11h06.23.160,replicate_nsd,2023.2.3,59.983087888359414,2024-04-15 11h06.40.643164 -0400,
images/image_243_seed_1.png,2,0,0,0,1,"[9, 19, 31, 42, 56, 68, 69, 70, 71]",,,,,0,74,74,74,516.1202772300003,,,,,,,,,,,,,,,,,,,,,,,,,,,,,,,,,,,,,,,,,,,,,,516.1057198879989,516.1058368390004,516.1058494469999,516.1202772300003,516.1202772300003,517.1207283249987,517.1207283249987,520.1203272509993,520.1203272509993,520.1203272509993,520.1203272509993,520.1040667449997,None,0,None,520.1044930539992,520.1045360600001,None,520.1046471520003,520.1047029309993,None,520.1048137149992,520.104851791999,None,,,,,,,,,,,,,26,001,0,,2024-04-15_11h06.23.160,replicate_nsd,2023.2.3,59.983087888359414,2024-04-15 11h06.40.643164 -0400,
images/image_494_seed_1.png,3,0,0,0,1,"[9, 19, 31, 42, 56, 68, 69, 70, 71]",,,,,0,75,75,75,520.1203272509993,,,,,,,,,,,,,,,,,,,,,,,,,,,,,,,,,,,,,,,,,,,,,,520.1052250699995,520.105340655,520.105353044999,520.1203272509993,520.1203272509993,521.1206832389998,521.1206832389998,524.1201951459989,524.1201951459989,524.1201951459989,524.1201951459989,524.1045587899989,None,0,None,524.1049853940003,524.1050284760004,None,524.1051396579987,524.1051963520003,None,524.105306636,524.1053437350001,None,,,,,,,,,,,,,26,001,0,,2024-04-15_11h06.23.160,replicate_nsd,2023.2.3,59.983087888359414,2024-04-15 11h06.40.643164 -0400,
images/image_572_seed_1.png,4,0,0,0,1,"[9, 19, 31, 42, 56, 68, 69, 70, 71]",,,,,0,76,76,76,524.1201951459989,,,,,,,,,,,,,,,,,,,,,,,,,,,,,,,,,,,,,,,,,,,,,,524.1057169269989,524.1058329379994,524.1058454699996,524.1201951459989,524.1201951459989,525.1208708569993,525.1208708569993,528.1202007079992,528.1202007079992,528.1202007079992,528.1202007079992,528.104540839,None,0,None,528.104964872,528.1050075389994,None,528.1051191059996,528.1051757450005,None,528.1052865869988,528.1053239590001,None,,,,,,,,,,,,,26,001,0,,2024-04-15_11h06.23.160,replicate_nsd,2023.2.3,59.983087888359414,2024-04-15 11h06.40.643164 -0400,
images/image_311_seed_1.png,5,0,0,0,1,"[9, 19, 31, 42, 56, 68, 69, 70, 71]",,,,,0,77,77,77,528.1202007079992,,,,,,,,,,,,,,,,,,,,,,,,,,,,,,,,,,,,,,,,,,,,,,528.1056979040004,528.1058147099993,528.1058270510002,528.1202007079992,528.1202007079992,529.1209127029997,529.1209127029997,532.1198684139999,532.1198684139999,532.1198684139999,532.1198684139999,532.1045698620001,None,0,None,532.1049949600001,532.1050378069995,None,532.10515037,532.1052065029999,None,532.1053178279999,532.1053544799997,None,,,,,,,,,,,,,26,001,0,,2024-04-15_11h06.23.160,replicate_nsd,2023.2.3,59.983087888359414,2024-04-15 11h06.40.643164 -0400,
images/image_534_seed_1.png,6,0,0,0,1,"[9, 19, 31, 42, 56, 68, 69, 70, 71]",,,,,0,78,78,78,532.1198684139999,,,,,,,,,,,,,,,,,,,,,,,,,,,,,,,,,,,,,,,,,,,,,,532.1057305649992,532.1058479509993,532.1058607699997,532.1198684139999,532.1198684139999,533.1206589479989,533.1206589479989,536.1197990839992,536.1197990839992,536.1197990839992,536.1197990839992,536.1041426749998,None,0,None,536.1045701549992,536.1046133899999,None,536.1047250499996,536.1047832280001,None,536.1048933919992,536.1049305180004,None,,,,,,,,,,,,,26,001,0,,2024-04-15_11h06.23.160,replicate_nsd,2023.2.3,59.983087888359414,2024-04-15 11h06.40.643164 -0400,
images/image_543_seed_1.png,7,0,0,0,1,"[9, 19, 31, 42, 56, 68, 69, 70, 71]",,,,,0,79,79,79,536.1197990839992,,,,,,,,,,,,,,,,,,,,,,,,,,,,,,,,,,,,,,,,,,,,,,536.1053079689991,536.1054251839996,536.105437713999,536.1197990839992,536.1197990839992,537.120891773,537.120891773,540.1199596749993,540.1199596749993,540.1199596749993,540.1199596749993,540.1044878569992,None,0,None,540.1049114999987,540.1049554130004,None,540.1050662149992,540.1051217299992,None,540.105233070999,540.1052699009997,None,,,,,,,,,,,,,26,001,0,,2024-04-15_11h06.23.160,replicate_nsd,2023.2.3,59.983087888359414,2024-04-15 11h06.40.643164 -0400,
images/image_665_seed_1.png,8,0,0,0,1,"[9, 19, 31, 42, 56, 68, 69, 70, 71]",,,,,0,80,80,80,540.1199596749993,,,,,,,,,,,,,,,,,,,,,,,,,,,,,,,,,,,,,,,,,,,,,,540.1056464009998,540.1057627589998,540.105775389,540.1199596749993,540.1199596749993,541.1208980689989,541.1208980689989,544.1208831280001,544.1208831280001,544.1208831280001,544.1208831280001,544.1044998569996,None,0,None,544.1049262799988,544.1049698779989,None,544.1050821659992,544.1051392429999,None,544.1052499159996,544.1052871489992,None,,,,,,,,,,,,,26,001,0,,2024-04-15_11h06.23.160,replicate_nsd,2023.2.3,59.983087888359414,2024-04-15 11h06.40.643164 -0400,
blank.jpg,9,1,0,0,1,"[9, 19, 31, 42, 56, 68, 69, 70, 71]",,,,,0,81,81,81,544.1208831280001,,,,,,,,,,,,,,,,,,,,,,,,,,,,,,,,,,,,,,,,,,,,,,544.105659118999,544.1057755839993,544.1057883619997,,,,,,,,,544.1092859429991,None,0,None,544.1096801069998,548.1041004079998,None,548.104313984999,548.1043765109989,None,548.1045042940004,548.1045428710004,None,544.1208831280001,544.1208831280001,548.119903458999,548.119903458999,,,,,,,,,26,001,0,,2024-04-15_11h06.23.160,replicate_nsd,2023.2.3,59.983087888359414,2024-04-15 11h06.40.643164 -0400,
images/image_727_seed_1.png,10,0,0,0,1,"[9, 19, 31, 42, 56, 68, 69, 70, 71]",,,,,0,82,82,82,548.119903458999,,,,,,,,,,,,,,,,,,,,,,,,,,,,,,,,,,,,,,,,,,,,,,548.1049365349991,548.1050525629998,548.1050652289996,548.119903458999,548.119903458999,549.120889030999,549.120889030999,552.1202762760004,552.1202762760004,552.1202762760004,552.1202762760004,552.1046532950004,None,0,None,552.1051865249992,552.1052305579997,None,552.1053414540002,552.1053981209989,None,552.1055092120005,552.1055471679992,None,,,,,,,,,,,,,26,001,0,,2024-04-15_11h06.23.160,replicate_nsd,2023.2.3,59.983087888359414,2024-04-15 11h06.40.643164 -0400,
images/image_152_seed_1.png,11,0,0,0,1,"[9, 19, 31, 42, 56, 68, 69, 70, 71]",,,,,0,83,83,83,552.1202762760004,,,,,,,,,,,,,,,,,,,,,,,,,,,,,,,,,,,,,,,,,,,,,,552.1059229429993,552.106040273,552.1060528939997,552.1202762760004,552.1202762760004,553.1205419870003,553.1205419870003,556.120530614,556.120530614,556.120530614,556.120530614,556.1043964330001,None,0,None,556.1048268039995,556.1048694239998,None,556.1049821180004,556.1050380239994,None,556.1051512279992,556.1051887599988,None,,,,,,,,,,,,,26,001,0,,2024-04-15_11h06.23.160,replicate_nsd,2023.2.3,59.983087888359414,2024-04-15 11h06.40.643164 -0400,
images/image_25_seed_1.png,12,0,0,0,1,"[9, 19, 31, 42, 56, 68, 69, 70, 71]",,,,,0,84,84,84,556.120530614,,,,,,,,,,,,,,,,,,,,,,,,,,,,,,,,,,,,,,,,,,,,,,556.1055709680004,556.1056874679998,556.1056999539996,556.120530614,556.120530614,557.1208689539999,557.1208689539999,560.1201117379987,560.1201117379987,560.1201117379987,560.1201117379987,560.1044743780003,None,0,None,560.1049046970002,560.1049476179996,None,560.1050608200003,560.1051174410004,None,560.1052293840003,560.1052668129996,None,,,,,,,,,,,,,26,001,0,,2024-04-15_11h06.23.160,replicate_nsd,2023.2.3,59.983087888359414,2024-04-15 11h06.40.643164 -0400,
images/image_655_seed_1.png,13,0,1,0,1,"[9, 19, 31, 42, 56, 68, 69, 70, 71]",,,,,0,85,85,85,560.1201117379987,,,,,,,,,,,,,,,,,,,,,,,,,,,,,,,,,,,,,,,,,,,,,,560.1056421180001,560.1057587129999,560.1057714259987,560.1201117379987,560.1201117379987,561.1205719959999,561.1205719959999,564.1199443240002,564.1199443240002,564.1199443240002,564.1199443240002,564.1040787239999,None,0,None,564.1045112219999,564.1045558139995,None,564.1046689060004,564.1047272449996,None,564.1048401650005,564.1048778839995,None,,,,,,,,,,,,,26,001,0,,2024-04-15_11h06.23.160,replicate_nsd,2023.2.3,59.983087888359414,2024-04-15 11h06.40.643164 -0400,
images/image_600_seed_1.png,14,0,0,0,1,"[9, 19, 31, 42, 56, 68, 69, 70, 71]",,,,,0,86,86,86,564.1199443240002,,,,,,,,,,,,,,,,,,,,,,,,,,,,,,,,,,,,,,,,,,,,,,564.1052575920003,564.105373901999,564.1053868119998,564.1199443240002,564.1199443240002,565.1205650350003,565.1205650350003,568.1197758029994,568.1197758029994,568.1197758029994,568.1197758029994,568.104471867,None,0,None,568.104896507999,568.1049395819991,None,568.105051478,568.1051082100003,None,568.1052200779995,568.1052579909992,None,,,,,,,,,,,,,26,001,0,,2024-04-15_11h06.23.160,replicate_nsd,2023.2.3,59.983087888359414,2024-04-15 11h06.40.643164 -0400,
images/image_420_seed_1.png,15,0,0,0,1,"[9, 19, 31, 42, 56, 68, 69, 70, 71]",,,,,0,87,87,87,568.1197758029994,,,,,,,,,,,,,,,,,,,,,,,,,,,,,,,,,,,,,,,,,,,,,,568.1056308379993,568.1057474299996,568.1057597099989,568.1197758029994,568.1197758029994,569.1202260279988,569.1202260279988,572.1196196370001,572.1196196370001,572.1196196370001,572.1196196370001,572.104475533999,None,0,None,572.1049017570003,572.1049447120004,None,572.1050565289988,572.1051125479989,None,572.1052233009996,572.1052608520004,None,,,,,,,,,,,,,26,001,0,,2024-04-15_11h06.23.160,replicate_nsd,2023.2.3,59.983087888359414,2024-04-15 11h06.40.643164 -0400,
images/image_312_seed_1.png,16,0,0,0,1,"[9, 19, 31, 42, 56, 68, 69, 70, 71]",,,,,0,88,88,88,572.1196196370001,,,,,,,,,,,,,,,,,,,,,,,,,,,,,,,,,,,,,,,,,,,,,,572.1056406730004,572.105756772,572.1057692159993,572.1196196370001,572.1196196370001,573.1206084389996,573.1206084389996,576.1198970229998,576.1198970229998,576.1198970229998,576.1198970229998,576.1041710459995,None,0,None,576.1045993159987,576.1046426339999,None,576.1047547580001,576.1048107200004,None,576.1049212859998,576.1049584430002,None,,,,,,,,,,,,,26,001,0,,2024-04-15_11h06.23.160,replicate_nsd,2023.2.3,59.983087888359414,2024-04-15 11h06.40.643164 -0400,
images/image_607_seed_1.png,17,0,0,0,1,"[9, 19, 31, 42, 56, 68, 69, 70, 71]",,,,,0,89,89,89,576.1198970229998,,,,,,,,,,,,,,,,,,,,,,,,,,,,,,,,,,,,,,,,,,,,,,576.1053315520003,576.1054476360005,576.105460585999,576.1198970229998,576.1198970229998,577.1202639269995,577.1202639269995,580.1201183859994,580.1201183859994,580.1201183859994,580.1201183859994,580.1043413039988,None,0,None,580.1047676979997,580.1048108260002,None,580.104923289,580.1049795189992,None,580.1050914419993,580.1051290609994,None,,,,,,,,,,,,,26,001,0,,2024-04-15_11h06.23.160,replicate_nsd,2023.2.3,59.983087888359414,2024-04-15 11h06.40.643164 -0400,
images/image_515_seed_1.png,18,0,0,0,1,"[9, 19, 31, 42, 56, 68, 69, 70, 71]",,,,,0,90,90,90,580.1201183859994,,,,,,,,,,,,,,,,,,,,,,,,,,,,,,,,,,,,,,,,,,,,,,580.1055053689997,580.1056219069997,580.1056348189995,580.1201183859994,580.1201183859994,581.1204970959989,581.1204970959989,584.1206495799997,584.1206495799997,584.1206495799997,584.1206495799997,584.1044012719994,None,0,None,584.1048263960001,584.1048687729999,None,584.1049827299994,584.1050386669995,None,584.1051511869991,584.1051890149993,None,,,,,,,,,,,,,26,001,0,,2024-04-15_11h06.23.160,replicate_nsd,2023.2.3,59.983087888359414,2024-04-15 11h06.40.643164 -0400,
blank.jpg,19,1,0,0,1,"[9, 19, 31, 42, 56, 68, 69, 70, 71]",,,,,0,91,91,91,584.1206495799997,,,,,,,,,,,,,,,,,,,,,,,,,,,,,,,,,,,,,,,,,,,,,,584.1055651039987,584.1056813369996,584.1056940609997,,,,,,,,,584.1087712560002,None,0,None,584.1090852670004,588.1043859909987,None,588.1046012499992,588.1046623559996,None,588.1047938840002,588.1048339079989,None,584.1206495799997,584.1206495799997,588.1206145140004,588.1206145140004,,,,,,,,,26,001,0,,2024-04-15_11h06.23.160,replicate_nsd,2023.2.3,59.983087888359414,2024-04-15 11h06.40.643164 -0400,
images/image_23_seed_1.png,20,0,0,0,1,"[9, 19, 31, 42, 56, 68, 69, 70, 71]",,,,,0,92,92,92,588.1206145140004,,,,,,,,,,,,,,,,,,,,,,,,,,,,,,,,,,,,,,,,,,,,,,588.1052311700005,588.1053464199995,588.1053595009998,588.1206145140004,588.1206145140004,589.1203851179998,589.1203851179998,592.119951618999,592.119951618999,592.119951618999,592.119951618999,592.1040773749992,None,0,None,592.1045033859991,592.1045474399998,None,592.1046596460001,592.1047157849989,None,592.1048276820002,592.1048647759999,None,,,,,,,,,,,,,26,001,0,,2024-04-15_11h06.23.160,replicate_nsd,2023.2.3,59.983087888359414,2024-04-15 11h06.40.643164 -0400,
images/image_277_seed_1.png,21,0,0,0,1,"[9, 19, 31, 42, 56, 68, 69, 70, 71]",,,,,0,93,93,93,592.119951618999,,,,,,,,,,,,,,,,,,,,,,,,,,,,,,,,,,,,,,,,,,,,,,592.1052416959992,592.1053574849993,592.105369732999,592.119951618999,592.119951618999,593.1205308600001,593.1205308600001,596.1197304630005,596.1197304630005,596.1197304630005,596.1197304630005,596.1040114449988,None,0,None,596.1044382620003,596.10448154,None,596.1045929369993,596.104648434999,None,596.1047588799993,596.1047957430001,None,,,,,,,,,,,,,26,001,0,,2024-04-15_11h06.23.160,replicate_nsd,2023.2.3,59.983087888359414,2024-04-15 11h06.40.643164 -0400,
images/image_108_seed_1.png,22,0,0,0,1,"[9, 19, 31, 42, 56, 68, 69, 70, 71]",,,,,0,94,94,94,596.1197304630005,,,,,,,,,,,,,,,,,,,,,,,,,,,,,,,,,,,,,,,,,,,,,,596.1051701449996,596.1052859369993,596.105298511,596.1197304630005,596.1197304630005,597.1205296899989,597.1205296899989,600.1196080030004,600.1196080030004,600.1196080030004,600.1196080030004,600.104036924,None,0,None,600.1044656510003,600.1045084819998,None,600.1046199720004,600.1046760770005,None,600.1047863069998,600.1048226530002,None,,,,,,,,,,,,,26,001,0,,2024-04-15_11h06.23.160,replicate_nsd,2023.2.3,59.983087888359414,2024-04-15 11h06.40.643164 -0400,
images/image_472_seed_1.png,23,0,0,0,1,"[9, 19, 31, 42, 56, 68, 69, 70, 71]",,,,,0,95,95,95,600.1196080030004,,,,,,,,,,,,,,,,,,,,,,,,,,,,,,,,,,,,,,,,,,,,,,600.1051940870002,600.1053099419987,600.1053226789991,600.1196080030004,600.1196080030004,601.1208113100001,601.1208113100001,604.1197162850003,604.1197162850003,604.1197162850003,604.1197162850003,604.1043754009988,None,0,None,604.1048072249996,604.1048509969987,None,604.1049645370003,604.1050219609988,None,604.1051341849998,604.1051721339991,None,,,,,,,,,,,,,26,001,0,,2024-04-15_11h06.23.160,replicate_nsd,2023.2.3,59.983087888359414,2024-04-15 11h06.40.643164 -0400,
images/image_617_seed_1.png,24,0,1,0,1,"[9, 19, 31, 42, 56, 68, 69, 70, 71]",,,,,0,96,96,96,604.1197162850003,,,,,,,,,,,,,,,,,,,,,,,,,,,,,,,,,,,,,,,,,,,,,,604.1055550549991,604.1056718830005,604.1056844989998,604.1197162850003,604.1197162850003,605.1204939509989,605.1204939509989,608.1196046240002,608.1196046240002,608.1196046240002,608.1196046240002,608.1043944249996,None,0,None,608.1048206449996,608.1048638969987,None,608.1049760779988,608.1050328860001,None,608.10514306,608.105180565999,None,,,,,,,,,,,,,26,001,0,,2024-04-15_11h06.23.160,replicate_nsd,2023.2.3,59.983087888359414,2024-04-15 11h06.40.643164 -0400,
images/image_199_seed_1.png,25,0,0,0,1,"[9, 19, 31, 42, 56, 68, 69, 70, 71]",,,,,0,97,97,97,608.1196046240002,,,,,,,,,,,,,,,,,,,,,,,,,,,,,,,,,,,,,,,,,,,,,,608.1055569279997,608.1056736499995,608.1056866589988,608.1196046240002,608.1196046240002,609.1204886779997,609.1204886779997,612.1203250999988,612.1203250999988,612.1203250999988,612.1203250999988,612.1038546870004,None,0,None,612.1042779159998,612.104320901999,None,612.1044314709998,612.1044886010004,None,612.1045993669995,612.1046363249989,None,,,,,,,,,,,,,26,001,0,,2024-04-15_11h06.23.160,replicate_nsd,2023.2.3,59.983087888359414,2024-04-15 11h06.40.643164 -0400,
images/image_692_seed_1.png,26,0,1,0,1,"[9, 19, 31, 42, 56, 68, 69, 70, 71]",,,,,0,98,98,98,612.1203250999988,,,,,,,,,,,,,,,,,,,,,,,,,,,,,,,,,,,,,,,,,,,,,,612.105010371999,612.1051268379997,612.1051393809994,612.1203250999988,612.1203250999988,613.1205568160003,613.1205568160003,616.1199187589991,616.1199187589991,616.1199187589991,616.1199187589991,616.1036532039998,None,0,None,616.1040832819999,616.1041266519987,None,616.1042388400001,616.1042957169993,None,616.104406991999,616.1044445749994,None,,,,,,,,,,,,,26,001,0,,2024-04-15_11h06.23.160,replicate_nsd,2023.2.3,59.983087888359414,2024-04-15 11h06.40.643164 -0400,
images/image_302_seed_1.png,27,0,0,0,1,"[9, 19, 31, 42, 56, 68, 69, 70, 71]",,,,,0,99,99,99,616.1199187589991,,,,,,,,,,,,,,,,,,,,,,,,,,,,,,,,,,,,,,,,,,,,,,616.1048246030005,616.1049376259998,616.1049505760002,616.1199187589991,616.1199187589991,617.1204775440001,617.1204775440001,620.1203390129995,620.1203390129995,620.1203390129995,620.1203390129995,620.1043845219992,None,0,None,620.1048113389988,620.1048538079995,None,620.1049641239988,620.1050203849991,None,620.105130979,620.1051674899991,None,,,,,,,,,,,,,26,001,0,,2024-04-15_11h06.23.160,replicate_nsd,2023.2.3,59.983087888359414,2024-04-15 11h06.40.643164 -0400,
images/image_458_seed_1.png,28,0,0,0,1,"[9, 19, 31, 42, 56, 68, 69, 70, 71]",,,,,0,100,100,100,620.1203390129995,,,,,,,,,,,,,,,,,,,,,,,,,,,,,,,,,,,,,,,,,,,,,,620.1055446629998,620.1056613609999,620.1056741049997,620.1203390129995,620.1203390129995,621.1204710029997,621.1204710029997,624.1196380330002,624.1196380330002,624.1196380330002,624.1196380330002,624.1043387649988,None,0,None,624.1047654209997,624.1048080809996,None,624.1049187739991,624.1049750040002,None,624.1050849709991,624.1051216100004,None,,,,,,,,,,,,,26,001,0,,2024-04-15_11h06.23.160,replicate_nsd,2023.2.3,59.983087888359414,2024-04-15 11h06.40.643164 -0400,
images/image_636_seed_1.png,29,0,0,0,1,"[9, 19, 31, 42, 56, 68, 69, 70, 71]",,,,,0,101,101,101,624.1196380330002,,,,,,,,,,,,,,,,,,,,,,,,,,,,,,,,,,,,,,,,,,,,,,624.1054933539999,624.1056095499989,624.1056223920004,624.1196380330002,624.1196380330002,625.1204384880002,625.1204384880002,628.1196244700004,628.1196244700004,628.1196244700004,628.1196244700004,628.1040228009988,None,0,None,628.1044481789995,628.1044907129999,None,628.10460212,628.1046595349999,None,628.1047710229996,628.1048093520003,None,,,,,,,,,,,,,26,001,0,,2024-04-15_11h06.23.160,replicate_nsd,2023.2.3,59.983087888359414,2024-04-15 11h06.40.643164 -0400,
images/image_154_seed_1.png,30,0,0,0,1,"[9, 19, 31, 42, 56, 68, 69, 70, 71]",,,,,0,102,102,102,628.1196244700004,,,,,,,,,,,,,,,,,,,,,,,,,,,,,,,,,,,,,,,,,,,,,,628.1051842729994,628.105301268999,628.105314086999,628.1196244700004,628.1196244700004,629.1205690949992,629.1205690949992,632.1202793009998,632.1202793009998,632.1202793009998,632.1202793009998,632.1041972639996,None,0,None,632.1047350159988,632.1047783180002,None,632.1048903489991,632.1049463939999,None,632.1050573449993,632.1050948819993,None,,,,,,,,,,,,,26,001,0,,2024-04-15_11h06.23.160,replicate_nsd,2023.2.3,59.983087888359414,2024-04-15 11h06.40.643164 -0400,
blank.jpg,31,1,0,0,1,"[9, 19, 31, 42, 56, 68, 69, 70, 71]",,,,,0,103,103,103,632.1202793009998,,,,,,,,,,,,,,,,,,,,,,,,,,,,,,,,,,,,,,,,,,,,,,632.1054667959997,632.1055836169999,632.1055964469997,,,,,,,,,632.1087284139994,None,0,None,632.1090697170002,636.1042605490002,None,636.1044773639987,636.1045397919988,None,636.1046690879994,636.1047083689991,None,632.1202793009998,632.1202793009998,636.119344241999,636.119344241999,,,,,,,,,26,001,0,,2024-04-15_11h06.23.160,replicate_nsd,2023.2.3,59.983087888359414,2024-04-15 11h06.40.643164 -0400,
images/image_125_seed_1.png,32,0,0,0,1,"[9, 19, 31, 42, 56, 68, 69, 70, 71]",,,,,0,104,104,104,636.119344241999,,,,,,,,,,,,,,,,,,,,,,,,,,,,,,,,,,,,,,,,,,,,,,636.1051061159997,636.1052234109993,636.1052360430003,636.119344241999,636.119344241999,637.1201915319998,637.1201915319998,640.11960894,640.11960894,640.11960894,640.11960894,640.1039834259991,None,0,None,640.1044089429997,640.1044523319997,None,640.1045646929997,640.1046219119999,None,640.1047338119988,640.1047708539991,None,,,,,,,,,,,,,26,001,0,,2024-04-15_11h06.23.160,replicate_nsd,2023.2.3,59.983087888359414,2024-04-15 11h06.40.643164 -0400,
images/image_158_seed_1.png,33,0,0,0,1,"[9, 19, 31, 42, 56, 68, 69, 70, 71]",,,,,0,105,105,105,640.11960894,,,,,,,,,,,,,,,,,,,,,,,,,,,,,,,,,,,,,,,,,,,,,,640.1051474289998,640.1052621159997,640.1052746469995,640.11960894,640.11960894,641.1205324169987,641.1205324169987,644.1196926199991,644.1196926199991,644.1196926199991,644.1196926199991,644.104374135999,None,0,None,644.1048075109993,644.1048508860003,None,644.1049664049988,644.1050232639991,None,644.1051370869991,644.1051748230002,None,,,,,,,,,,,,,26,001,0,,2024-04-15_11h06.23.160,replicate_nsd,2023.2.3,59.983087888359414,2024-04-15 11h06.40.643164 -0400,
images/image_326_seed_1.png,34,0,0,0,1,"[9, 19, 31, 42, 56, 68, 69, 70, 71]",,,,,0,106,106,106,644.1196926199991,,,,,,,,,,,,,,,,,,,,,,,,,,,,,,,,,,,,,,,,,,,,,,644.1055545620002,644.1056711130004,644.1056837550004,644.1196926199991,644.1196926199991,645.1204947730002,645.1204947730002,648.1196458409995,648.1196458409995,648.1196458409995,648.1196458409995,648.104483576999,None,0,None,648.1050253329995,648.1050678729989,None,648.1051795389994,648.1052364419993,None,648.105346201999,648.105384122,None,,,,,,,,,,,,,26,001,0,,2024-04-15_11h06.23.160,replicate_nsd,2023.2.3,59.983087888359414,2024-04-15 11h06.40.643164 -0400,
images/image_388_seed_1.png,35,0,0,0,1,"[9, 19, 31, 42, 56, 68, 69, 70, 71]",,,,,0,107,107,107,648.1196458409995,,,,,,,,,,,,,,,,,,,,,,,,,,,,,,,,,,,,,,,,,,,,,,648.105759910999,648.1058755039994,648.1058882460002,648.1196458409995,648.1196458409995,649.1205274040003,649.1205274040003,652.1196461309992,652.1196461309992,652.1196461309992,652.1196461309992,652.1038652730003,None,0,None,652.1042939899999,652.1043371389987,None,652.1044511669988,652.104508208,None,652.1046203599999,652.104658278,None,,,,,,,,,,,,,26,001,0,,2024-04-15_11h06.23.160,replicate_nsd,2023.2.3,59.983087888359414,2024-04-15 11h06.40.643164 -0400,
images/image_48_seed_1.png,36,0,0,0,1,"[9, 19, 31, 42, 56, 68, 69, 70, 71]",,,,,0,108,108,108,652.1196461309992,,,,,,,,,,,,,,,,,,,,,,,,,,,,,,,,,,,,,,,,,,,,,,652.1050352229995,652.1051511749993,652.1051640299993,652.1196461309992,652.1196461309992,653.120438762,653.120438762,656.1192521470002,656.1192521470002,656.1192521470002,656.1192521470002,656.1042577890003,None,0,None,656.1046826999991,656.1047262259999,None,656.1048392419998,656.1048953720001,None,656.1050071059999,656.1050446729987,None,,,,,,,,,,,,,26,001,0,,2024-04-15_11h06.23.160,replicate_nsd,2023.2.3,59.983087888359414,2024-04-15 11h06.40.643164 -0400,
images/image_690_seed_1.png,37,0,0,0,1,"[9, 19, 31, 42, 56, 68, 69, 70, 71]",,,,,0,109,109,109,656.1192521470002,,,,,,,,,,,,,,,,,,,,,,,,,,,,,,,,,,,,,,,,,,,,,,656.105421835,656.1055384699994,656.105551007,656.1192521470002,656.1192521470002,657.120208712,657.120208712,660.1195466529989,660.1195466529989,660.1195466529989,660.1195466529989,660.1043102249987,None,0,None,660.1047368999989,660.1047790100001,None,660.1048912549995,660.1049482919989,None,660.1050605269993,660.105097996,None,,,,,,,,,,,,,26,001,0,,2024-04-15_11h06.23.160,replicate_nsd,2023.2.3,59.983087888359414,2024-04-15 11h06.40.643164 -0400,
images/image_79_seed_1.png,38,0,0,0,1,"[9, 19, 31, 42, 56, 68, 69, 70, 71]",,,,,0,110,110,110,660.1195466529989,,,,,,,,,,,,,,,,,,,,,,,,,,,,,,,,,,,,,,,,,,,,,,660.1054722169993,660.1055873320001,660.1055999939999,660.1195466529989,660.1195466529989,661.120458079,661.120458079,664.1206216239989,664.1206216239989,664.1206216239989,664.1206216239989,664.1042723199989,None,0,None,664.1049596739995,664.1050042429997,None,664.1051197209999,664.1051753519987,None,664.1052888710001,664.1053258129996,None,,,,,,,,,,,,,26,001,0,,2024-04-15_11h06.23.160,replicate_nsd,2023.2.3,59.983087888359414,2024-04-15 11h06.40.643164 -0400,
images/image_449_seed_1.png,39,0,0,0,1,"[9, 19, 31, 42, 56, 68, 69, 70, 71]",,,,,0,111,111,111,664.1206216239989,,,,,,,,,,,,,,,,,,,,,,,,,,,,,,,,,,,,,,,,,,,,,,664.1057025629998,664.1058189100004,664.1058313470003,664.1206216239989,664.1206216239989,665.120413396,665.120413396,668.119633676999,668.119633676999,668.119633676999,668.119633676999,668.1054102569997,None,0,None,668.1056774079989,668.1057325479997,None,668.105831290999,668.1059425309995,None,668.1059932949993,668.1060104869994,None,,,,,,,,,,,,,26,001,0,,2024-04-15_11h06.23.160,replicate_nsd,2023.2.3,59.983087888359414,2024-04-15 11h06.40.643164 -0400,
images/image_118_seed_1.png,40,0,0,0,1,"[9, 19, 31, 42, 56, 68, 69, 70, 71]",,,,,0,112,112,112,668.119633676999,,,,,,,,,,,,,,,,,,,,,,,,,,,,,,,,,,,,,,,,,,,,,,668.1061901209996,668.1062465430005,668.1062523870005,668.119633676999,668.119633676999,669.1196627589998,669.1196627589998,672.119371662,672.119371662,672.119371662,672.119371662,672.1038348410002,None,0,None,672.1042558499994,672.1042981230003,None,672.1044078369996,672.1044639499996,None,672.104573613,672.1046112599997,None,,,,,,,,,,,,,26,001,0,,2024-04-15_11h06.23.160,replicate_nsd,2023.2.3,59.983087888359414,2024-04-15 11h06.40.643164 -0400,
images/image_289_seed_1.png,41,0,0,0,1,"[9, 19, 31, 42, 56, 68, 69, 70, 71]",,,,,0,113,113,113,672.119371662,,,,,,,,,,,,,,,,,,,,,,,,,,,,,,,,,,,,,,,,,,,,,,672.1049836339989,672.105099982,672.1051127329993,672.119371662,672.119371662,673.1202958119993,673.1202958119993,676.1194507829987,676.1194507829987,676.1194507829987,676.1194507829987,676.102669808999,None,0,None,676.102865797,676.1028860719998,None,676.1029369560001,676.1029635260002,None,676.1030142529999,676.1030317669993,None,,,,,,,,,,,,,26,001,0,,2024-04-15_11h06.23.160,replicate_nsd,2023.2.3,59.983087888359414,2024-04-15 11h06.40.643164 -0400,
blank.jpg,42,1,0,0,1,"[9, 19, 31, 42, 56, 68, 69, 70, 71]",,,,,0,114,114,114,676.1194507829987,,,,,,,,,,,,,,,,,,,,,,,,,,,,,,,,,,,,,,,,,,,,,,676.1032071310001,676.1033980889988,676.1034044139997,,,,,,,,,676.1050388679996,None,0,None,676.1051962359998,680.1038646729994,None,680.1040795649988,680.104141677999,None,680.1042701879996,680.104309155,None,676.1194507829987,676.1194507829987,680.1196260239994,680.1196260239994,,,,,,,,,26,001,0,,2024-04-15_11h06.23.160,replicate_nsd,2023.2.3,59.983087888359414,2024-04-15 11h06.40.643164 -0400,
images/image_371_seed_1.png,43,0,0,0,1,"[9, 19, 31, 42, 56, 68, 69, 70, 71]",,,,,0,115,115,115,680.1196260239994,,,,,,,,,,,,,,,,,,,,,,,,,,,,,,,,,,,,,,,,,,,,,,680.1047009459999,680.1048174529988,680.1048300530001,680.1196260239994,680.1196260239994,681.1204032969999,681.1204032969999,684.1192734839988,684.1192734839988,684.1192734839988,684.1192734839988,684.1039407789995,None,0,None,684.1043617689993,684.1044057509989,None,684.1045163950002,684.1045727239998,None,684.1046823489996,684.1047197709995,None,,,,,,,,,,,,,26,001,0,,2024-04-15_11h06.23.160,replicate_nsd,2023.2.3,59.983087888359414,2024-04-15 11h06.40.643164 -0400,
images/image_392_seed_1.png,44,0,0,0,1,"[9, 19, 31, 42, 56, 68, 69, 70, 71]",,,,,0,116,116,116,684.1192734839988,,,,,,,,,,,,,,,,,,,,,,,,,,,,,,,,,,,,,,,,,,,,,,684.1050899889997,684.1052071729991,684.105220202,684.1192734839988,684.1192734839988,685.1204347009989,685.1204347009989,688.1194329339996,688.1194329339996,688.1194329339996,688.1194329339996,688.1039289500004,None,0,None,688.104346746999,688.1043900469995,None,688.1045007430002,688.1045569389989,None,688.1046663759989,688.1047036599994,None,,,,,,,,,,,,,26,001,0,,2024-04-15_11h06.23.160,replicate_nsd,2023.2.3,59.983087888359414,2024-04-15 11h06.40.643164 -0400,
images/image_462_seed_1.png,45,0,0,0,1,"[9, 19, 31, 42, 56, 68, 69, 70, 71]",,,,,0,117,117,117,688.1194329339996,,,,,,,,,,,,,,,,,,,,,,,,,,,,,,,,,,,,,,,,,,,,,,688.105073581999,688.105189938,688.1052030640003,688.1194329339996,688.1194329339996,689.1205451440001,689.1205451440001,692.119335084999,692.119335084999,692.119335084999,692.119335084999,692.1040387590001,None,0,None,692.1044608499997,692.1045032490001,None,692.1046131959993,692.1046693589997,None,692.104782385999,692.1048199279994,None,,,,,,,,,,,,,26,001,0,,2024-04-15_11h06.23.160,replicate_nsd,2023.2.3,59.983087888359414,2024-04-15 11h06.40.643164 -0400,
images/image_93_seed_1.png,46,0,0,0,1,"[9, 19, 31, 42, 56, 68, 69, 70, 71]",,,,,0,118,118,118,692.119335084999,,,,,,,,,,,,,,,,,,,,,,,,,,,,,,,,,,,,,,,,,,,,,,692.1051910679998,692.1053057609988,692.105318603999,692.119335084999,692.119335084999,693.1204274390002,693.1204274390002,696.1196586719998,696.1196586719998,696.1196586719998,696.1196586719998,696.103732313999,None,0,None,696.1041525839992,696.1041944449989,None,696.1043044969992,696.1043608580003,None,696.1044697590005,696.1045063689999,None,,,,,,,,,,,,,26,001,0,,2024-04-15_11h06.23.160,replicate_nsd,2023.2.3,59.983087888359414,2024-04-15 11h06.40.643164 -0400,
images/image_580_seed_1.png,47,0,0,0,1,"[9, 19, 31, 42, 56, 68, 69, 70, 71]",,,,,0,119,119,119,696.1196586719998,,,,,,,,,,,,,,,,,,,,,,,,,,,,,,,,,,,,,,,,,,,,,,696.1048736649991,696.1049896040004,696.1050020049988,696.1196586719998,696.1196586719998,697.120498635999,697.120498635999,700.1194165059987,700.1194165059987,700.1194165059987,700.1194165059987,700.1040545939995,None,0,None,700.1044766239993,700.1045186560004,None,700.1046288549987,700.1046857719994,None,700.1047963500005,700.1048331599995,None,,,,,,,,,,,,,26,001,0,,2024-04-15_11h06.23.160,replicate_nsd,2023.2.3,59.983087888359414,2024-04-15 11h06.40.643164 -0400,
images/image_733_seed_1.png,48,0,0,0,1,"[9, 19, 31, 42, 56, 68, 69, 70, 71]",,,,,0,120,120,120,700.1194165059987,,,,,,,,,,,,,,,,,,,,,,,,,,,,,,,,,,,,,,,,,,,,,,700.1052069340003,700.1053222190003,700.1053349350004,700.1194165059987,700.1194165059987,701.1203437469994,701.1203437469994,704.1195076469994,704.1195076469994,704.1195076469994,704.1195076469994,704.1040045400005,None,0,None,704.1044264190004,704.1044680569994,None,704.104576923999,704.104634022,None,704.1047431049992,704.1047800220003,None,,,,,,,,,,,,,26,001,0,,2024-04-15_11h06.23.160,replicate_nsd,2023.2.3,59.983087888359414,2024-04-15 11h06.40.643164 -0400,
images/image_50_seed_1.png,49,0,0,0,1,"[9, 19, 31, 42, 56, 68, 69, 70, 71]",,,,,0,121,121,121,704.1195076469994,,,,,,,,,,,,,,,,,,,,,,,,,,,,,,,,,,,,,,,,,,,,,,704.1051525849998,704.1052689030003,704.1052815999992,704.1195076469994,704.1195076469994,705.12011781,705.12011781,708.1193536999999,708.1193536999999,708.1193536999999,708.1193536999999,708.1039163389996,None,0,None,708.1043375919999,708.1043800129992,None,708.1044899209992,708.1045458379995,None,708.1046547819988,708.1046912959991,None,,,,,,,,,,,,,26,001,0,,2024-04-15_11h06.23.160,replicate_nsd,2023.2.3,59.983087888359414,2024-04-15 11h06.40.643164 -0400,
images/image_113_seed_1.png,50,0,0,0,1,"[9, 19, 31, 42, 56, 68, 69, 70, 71]",,,,,0,122,122,122,708.1193536999999,,,,,,,,,,,,,,,,,,,,,,,,,,,,,,,,,,,,,,,,,,,,,,708.1050654589999,708.1051818870001,708.1051942929989,708.1193536999999,708.1193536999999,709.1204825559998,709.1204825559998,712.1204996619999,712.1204996619999,712.1204996619999,712.1204996619999,712.1039730969987,None,0,None,712.1043922600002,712.1044345899991,None,712.1045445629989,712.1046017249992,None,712.1047115990004,712.1047491469999,None,,,,,,,,,,,,,26,001,0,,2024-04-15_11h06.23.160,replicate_nsd,2023.2.3,59.983087888359414,2024-04-15 11h06.40.643164 -0400,
images/image_314_seed_1.png,51,0,0,0,1,"[9, 19, 31, 42, 56, 68, 69, 70, 71]",,,,,0,123,123,123,712.1204996619999,,,,,,,,,,,,,,,,,,,,,,,,,,,,,,,,,,,,,,,,,,,,,,712.1051197879988,712.1052360699996,712.1052487899997,712.1204996619999,712.1204996619999,713.1204067790004,713.1204067790004,716.1192629159996,716.1192629159996,716.1192629159996,716.1192629159996,716.103566361,None,0,None,716.1039865969997,716.1040290860001,None,716.1041385810004,716.1041944259996,None,716.1043034800005,716.1043406360004,None,,,,,,,,,,,,,26,001,0,,2024-04-15_11h06.23.160,replicate_nsd,2023.2.3,59.983087888359414,2024-04-15 11h06.40.643164 -0400,
images/image_266_seed_1.png,52,0,0,0,1,"[9, 19, 31, 42, 56, 68, 69, 70, 71]",,,,,0,124,124,124,716.1192629159996,,,,,,,,,,,,,,,,,,,,,,,,,,,,,,,,,,,,,,,,,,,,,,716.1047100300002,716.1048262450004,716.1048392449993,716.1192629159996,716.1192629159996,717.1199911019994,717.1199911019994,720.1197346289991,720.1197346289991,720.1197346289991,720.1197346289991,720.1037905419998,None,0,None,720.104214093999,720.1042570239988,None,720.1043688680002,720.1044259680002,None,720.104537743,720.104575461999,None,,,,,,,,,,,,,26,001,0,,2024-04-15_11h06.23.160,replicate_nsd,2023.2.3,59.983087888359414,2024-04-15 11h06.40.643164 -0400,
images/image_646_seed_1.png,53,0,0,0,1,"[9, 19, 31, 42, 56, 68, 69, 70, 71]",,,,,0,125,125,125,720.1197346289991,,,,,,,,,,,,,,,,,,,,,,,,,,,,,,,,,,,,,,,,,,,,,,720.1049534229987,720.1050692640001,720.1050819949996,720.1197346289991,720.1197346289991,721.1203998780002,721.1203998780002,724.1201049739993,724.1201049739993,724.1201049739993,724.1201049739993,724.1040076249992,None,0,None,724.104431460999,724.1044741490005,None,724.104582693999,724.1046389860003,None,724.104748664,724.1047850340001,None,,,,,,,,,,,,,26,001,0,,2024-04-15_11h06.23.160,replicate_nsd,2023.2.3,59.983087888359414,2024-04-15 11h06.40.643164 -0400,
images/image_304_seed_1.png,54,0,1,0,1,"[9, 19, 31, 42, 56, 68, 69, 70, 71]",,,,,0,126,126,126,724.1201049739993,,,,,,,,,,,,,,,,,,,,,,,,,,,,,,,,,,,,,,,,,,,,,,724.1051560309988,724.1052712419987,724.1052839969998,724.1201049739993,724.1201049739993,725.1204354580004,725.1204354580004,728.1192130709987,728.1192130709987,728.1192130709987,728.1192130709987,728.1037048380003,None,0,None,728.1041265749991,728.1041689140002,None,728.1042784580004,728.1043339850003,None,728.1044451199996,728.1044819580002,None,,,,,,,,,,,,,26,001,0,,2024-04-15_11h06.23.160,replicate_nsd,2023.2.3,59.983087888359414,2024-04-15 11h06.40.643164 -0400,
images/image_55_seed_1.png,55,0,0,0,1,"[9, 19, 31, 42, 56, 68, 69, 70, 71]",,,,,0,127,127,127,728.1192130709987,,,,,,,,,,,,,,,,,,,,,,,,,,,,,,,,,,,,,,,,,,,,,,728.1048510309993,728.1049662829992,728.1049788379987,728.1192130709987,728.1192130709987,729.1202866530002,729.1202866530002,732.120335272999,732.120335272999,732.120335272999,732.120335272999,732.1039971589998,None,0,None,732.1044222469991,732.1044654639991,None,732.1045789999989,732.1046341849997,None,732.1047462139995,732.1047836999987,None,,,,,,,,,,,,,26,001,0,,2024-04-15_11h06.23.160,replicate_nsd,2023.2.3,59.983087888359414,2024-04-15 11h06.40.643164 -0400,
blank.jpg,56,1,0,0,1,"[9, 19, 31, 42, 56, 68, 69, 70, 71]",,,,,0,128,128,128,732.120335272999,,,,,,,,,,,,,,,,,,,,,,,,,,,,,,,,,,,,,,,,,,,,,,732.1051623549993,732.105280541,732.1052935409989,,,,,,,,,732.1081092989989,None,0,None,732.1084243040004,736.1038926099991,None,736.1041044989997,736.1041676209989,None,736.1042934899997,736.1043319729997,None,732.120335272999,732.120335272999,736.1190922749993,736.1190922749993,,,,,,,,,26,001,0,,2024-04-15_11h06.23.160,replicate_nsd,2023.2.3,59.983087888359414,2024-04-15 11h06.40.643164 -0400,
images/image_600_seed_1.png,57,0,1,0,1,"[9, 19, 31, 42, 56, 68, 69, 70, 71]",,,,,0,129,129,129,736.1190922749993,,,,,,,,,,,,,,,,,,,,,,,,,,,,,,,,,,,,,,,,,,,,,,736.1047210719989,736.1048377999996,736.1048504640003,736.1190922749993,736.1190922749993,737.1201342289987,737.1201342289987,740.119605337999,740.119605337999,740.119605337999,740.119605337999,740.1039843010003,None,0,None,740.1044023979994,740.1044442370003,None,740.104552105,740.1046079360003,None,740.1047158040001,740.1047519809999,None,,,,,,,,,,,,,26,001,0,,2024-04-15_11h06.23.160,replicate_nsd,2023.2.3,59.983087888359414,2024-04-15 11h06.40.643164 -0400,
images/image_223_seed_1.png,58,0,0,0,1,"[9, 19, 31, 42, 56, 68, 69, 70, 71]",,,,,0,130,130,130,740.119605337999,,,,,,,,,,,,,,,,,,,,,,,,,,,,,,,,,,,,,,,,,,,,,,740.1051182369993,740.1052334849992,740.1052459450002,740.119605337999,740.119605337999,741.1203803289991,741.1203803289991,744.119247949,744.119247949,744.119247949,744.119247949,744.1039870919994,None,0,None,744.1044089449988,744.1044507070001,None,744.1045599749996,744.104616949,None,744.1047272340002,744.1047641509995,None,,,,,,,,,,,,,26,001,0,,2024-04-15_11h06.23.160,replicate_nsd,2023.2.3,59.983087888359414,2024-04-15 11h06.40.643164 -0400,
images/image_533_seed_1.png,59,0,0,0,1,"[9, 19, 31, 42, 56, 68, 69, 70, 71]",,,,,0,131,131,131,744.119247949,,,,,,,,,,,,,,,,,,,,,,,,,,,,,,,,,,,,,,,,,,,,,,744.1051342169994,744.1052503840001,744.105262916999,744.119247949,744.119247949,745.1201194049991,745.1201194049991,748.1191377269988,748.1191377269988,748.1191377269988,748.1191377269988,748.1039239029997,None,0,None,748.1043486050003,748.1043907639996,None,748.1045005239994,748.1045560589992,None,748.1046656069993,748.1047022370003,None,,,,,,,,,,,,,26,001,0,,2024-04-15_11h06.23.160,replicate_nsd,2023.2.3,59.983087888359414,2024-04-15 11h06.40.643164 -0400,
images/image_625_seed_1.png,60,0,0,0,1,"[9, 19, 31, 42, 56, 68, 69, 70, 71]",,,,,0,132,132,132,748.1191377269988,,,,,,,,,,,,,,,,,,,,,,,,,,,,,,,,,,,,,,,,,,,,,,748.1050746649998,748.1051914010004,748.1052043460004,748.1191377269988,748.1191377269988,749.1198758150003,749.1198758150003,752.1192236779989,752.1192236779989,752.1192236779989,752.1192236779989,752.1035794689997,None,0,None,752.1040037919993,752.1040478799987,None,752.1041584630002,752.1042145560004,None,752.1043272440002,752.1043644170004,None,,,,,,,,,,,,,26,001,0,,2024-04-15_11h06.23.160,replicate_nsd,2023.2.3,59.983087888359414,2024-04-15 11h06.40.643164 -0400,
images/image_63_seed_1.png,61,0,0,0,1,"[9, 19, 31, 42, 56, 68, 69, 70, 71]",,,,,0,133,133,133,752.1192236779989,,,,,,,,,,,,,,,,,,,,,,,,,,,,,,,,,,,,,,,,,,,,,,752.104735461,752.1048512149991,752.1048639319997,752.1192236779989,752.1192236779989,753.1199758410003,753.1199758410003,756.1192045579992,756.1192045579992,756.1192045579992,756.1192045579992,756.1039123449991,None,0,None,756.1043417009987,756.1043847990004,None,756.1044966569989,756.1045532749995,None,756.1046655310001,756.104703596,None,,,,,,,,,,,,,26,001,0,,2024-04-15_11h06.23.160,replicate_nsd,2023.2.3,59.983087888359414,2024-04-15 11h06.40.643164 -0400,
images/image_218_seed_1.png,62,0,0,0,1,"[9, 19, 31, 42, 56, 68, 69, 70, 71]",,,,,0,134,134,134,756.1192045579992,,,,,,,,,,,,,,,,,,,,,,,,,,,,,,,,,,,,,,,,,,,,,,756.1050790810004,756.105195696,756.1052084359999,756.1192045579992,756.1192045579992,757.1201417869997,757.1201417869997,760.1196504139989,760.1196504139989,760.1196504139989,760.1196504139989,760.1035248339995,None,0,None,760.1039536320004,760.1039969459998,None,760.1041081539988,760.1041656529997,None,760.1042775189999,760.104314745,None,,,,,,,,,,,,,26,001,0,,2024-04-15_11h06.23.160,replicate_nsd,2023.2.3,59.983087888359414,2024-04-15 11h06.40.643164 -0400,
images/image_151_seed_1.png,63,0,0,0,1,"[9, 19, 31, 42, 56, 68, 69, 70, 71]",,,,,0,135,135,135,760.1196504139989,,,,,,,,,,,,,,,,,,,,,,,,,,,,,,,,,,,,,,,,,,,,,,760.1046964139987,760.1048123529999,760.1048247269991,760.1196504139989,760.1196504139989,761.120053401999,761.120053401999,764.1193759469988,764.1193759469988,764.1193759469988,764.1193759469988,764.1039617480001,None,0,None,764.1043811969994,764.1044236159996,None,764.1045343440001,764.1045909149998,None,764.1047031790004,764.1047409389994,None,,,,,,,,,,,,,26,001,0,,2024-04-15_11h06.23.160,replicate_nsd,2023.2.3,59.983087888359414,2024-04-15 11h06.40.643164 -0400,
images/image_630_seed_1.png,64,0,0,0,1,"[9, 19, 31, 42, 56, 68, 69, 70, 71]",,,,,0,136,136,136,764.1193759469988,,,,,,,,,,,,,,,,,,,,,,,,,,,,,,,,,,,,,,,,,,,,,,764.1051194419997,764.1052357789995,764.1052481129991,764.1193759469988,764.1193759469988,765.1199534810003,765.1199534810003,768.119006429999,768.119006429999,768.119006429999,768.119006429999,768.1036089150002,None,0,None,768.1040330409996,768.1040765990001,None,768.1041894279988,768.1042462779988,None,768.1043581020003,768.1043962429994,None,,,,,,,,,,,,,26,001,0,,2024-04-15_11h06.23.160,replicate_nsd,2023.2.3,59.983087888359414,2024-04-15 11h06.40.643164 -0400,
images/image_34_seed_1.png,65,0,0,0,1,"[9, 19, 31, 42, 56, 68, 69, 70, 71]",,,,,0,137,137,137,768.119006429999,,,,,,,,,,,,,,,,,,,,,,,,,,,,,,,,,,,,,,,,,,,,,,768.104772875,768.1048891749997,768.1049019549991,768.119006429999,768.119006429999,769.1200299449993,769.1200299449993,772.1191300499995,772.1191300499995,772.1191300499995,772.1191300499995,772.1038976319996,None,0,None,772.1043206039994,772.1043636529994,None,772.1044733969993,772.1045296880002,None,772.104638679999,772.1046751979993,None,,,,,,,,,,,,,26,001,0,,2024-04-15_11h06.23.160,replicate_nsd,2023.2.3,59.983087888359414,2024-04-15 11h06.40.643164 -0400,
images/image_578_seed_1.png,66,0,0,0,1,"[9, 19, 31, 42, 56, 68, 69, 70, 71]",,,,,0,138,138,138,772.1191300499995,,,,,,,,,,,,,,,,,,,,,,,,,,,,,,,,,,,,,,,,,,,,,,772.1050426019992,772.1051569899992,772.1051696569994,772.1191300499995,772.1191300499995,773.1202945570003,773.1202945570003,776.1192197069995,776.1192197069995,776.1192197069995,776.1192197069995,776.1038478449991,None,0,None,776.1042686410001,776.1043116740002,None,776.1044213610003,776.104477588,None,776.1045875309992,776.1046248179991,None,,,,,,,,,,,,,26,001,0,,2024-04-15_11h06.23.160,replicate_nsd,2023.2.3,59.983087888359414,2024-04-15 11h06.40.643164 -0400,
