current_image,trial_index,is_blank_trial,is_repeat,is_new_run,run_num,all_blanks_list,practice.thisRepN,practice.thisTrialN,practice.thisN,practice.thisIndex,loop_all_images.thisRepN,loop_all_images.thisTrialN,loop_all_images.thisN,loop_all_images.thisIndex,thisRow.t,notes,set_up.started,set_up.stopped,practice_continue.started,key_resp_6.started,text_6.started,practice_continue.stopped,key_resp_6.keys,key_resp_6.rt,key_resp_6.duration,set_skips_and_correct_key_2.started,set_skips_and_correct_key_2.stopped,practice_trial.started,polygon_3.started,all_keys_pressed_2.started,image_2.started,press_if_repeat_2.started,image_2.stopped,press_if_repeat_2.stopped,polygon_3.stopped,all_keys_pressed_2.stopped,practice_trial.stopped,press_if_repeat_2.keys,press_if_repeat_2.corr,all_keys_pressed_2.keys,blank_trial_2.started,blank_trial_2.stopped,polygon_4.started,polygon_4.stopped,testing_continue.started,key_resp_7.started,text_7.started,testing_continue.stopped,key_resp_7.keys,key_resp_7.rt,key_resp_7.duration,waiting_fmri.started,key_resp_2.started,text_3.started,waiting_fmri.stopped,key_resp_2.keys,key_resp_2.rt,key_resp_2.duration,set_skips_and_correct_key.started,set_skips_and_correct_key.stopped,trial.started,trial.stopped,press_if_repeat.keys,press_if_repeat.corr,all_keys_pressed.keys,blank_trial.started,blank_trial.stopped,blank_trial_testing_keys.keys,run_wait2_2.started,run_wait2_2.stopped,key_resp_5.keys,waiting_fmri_2.started,waiting_fmri_2.stopped,key_resp_4.keys,participant,session,starting_run,,date,expName,psychopyVersion,frameRate,expStart,
,,,,,,,,,,,,,,,,,0.02700740599539131,0.0271559190005064,0.027164274993992876,0.046573007995903026,0.046573007995903026,156.38522661099705,1,156.3303609160066,None,,,,,,,,,,,,,,,,,,,,,,,,,,,,,,,,,,,,,,,,,,,,,,,,,,36,001,15,,2024-04-22_16h47.32.499,replicate_nsd,2023.2.3,60.27137294335628,2024-04-22 16h47.48.623931 -0400,
practice_images/w_auditorium1.jpg,0,0,,,,,0,0,0,0,,,,,156.46542644199508,,,,,,,,,,,156.4158605959965,156.41597750199435,156.41599135199795,156.46542644199508,156.46542644199508,157.45266890199855,157.45266890199855,160.45238029799657,160.45238029799657,160.45238029799657,160.45238029799657,160.43608184899495,None,0,None,160.43796055699931,160.43801041799452,,,,,,,,,,,,,,,,,,,,,,,,,,,,,,,,,36,001,15,,2024-04-22_16h47.32.499,replicate_nsd,2023.2.3,60.27137294335628,2024-04-22 16h47.48.623931 -0400,
practice_images/w_bedroom1.jpg,1,0,,,,,0,1,1,1,,,,,160.45238029799657,,,,,,,,,,,160.43829451899364,160.4383849779988,160.43839718599338,160.45238029799657,160.45238029799657,161.45181554900046,161.45181554900046,164.4525997449964,164.4525997449964,164.4525997449964,164.4525997449964,164.43596332299785,None,0,None,164.43628188299772,164.4363161339934,,,,,,,,,,,,,,,,,,,,,,,,,,,,,,,,,36,001,15,,2024-04-22_16h47.32.499,replicate_nsd,2023.2.3,60.27137294335628,2024-04-22 16h47.48.623931 -0400,
practice_images/w_kitchen2.jpg,2,0,,,,,0,2,2,2,,,,,164.4525997449964,,,,,,,,,,,164.43653602300037,164.43660648099467,164.43661614499433,164.4525997449964,164.4525997449964,165.45232964199386,165.45232964199386,168.45253871199384,168.45253871199384,168.45253871199384,168.45253871199384,168.435982666997,None,0,None,168.43637500499608,168.43641810899862,,,,,,,,,,,,,,,,,,,,,,,,,,,,,,,,,36,001,15,,2024-04-22_16h47.32.499,replicate_nsd,2023.2.3,60.27137294335628,2024-04-22 16h47.48.623931 -0400,
practice_images/w_auditorium2.jpg,3,0,,,,,0,3,3,3,,,,,168.45253871199384,,,,,,,,,,,168.4366914209968,168.43677942399518,168.436791412998,168.45253871199384,168.45253871199384,169.45213197999692,169.45213197999692,172.45262801899662,172.45262801899662,172.45262801899662,172.45262801899662,172.43569715099875,None,0,None,172.43609109599493,172.43613456999446,,,,,,,,,,,,,,,,,,,,,,,,,,,,,,,,,36,001,15,,2024-04-22_16h47.32.499,replicate_nsd,2023.2.3,60.27137294335628,2024-04-22 16h47.48.623931 -0400,
practice_images/w_boardwalk1.jpg,4,0,,,,,0,4,4,4,,,,,172.45262801899662,,,,,,,,,,,172.43640881299507,172.43649605999963,172.43650791399705,172.45262801899662,172.45262801899662,173.4523377489968,173.4523377489968,176.45228777699958,176.45228777699958,176.45228777699958,176.45228777699958,176.4358408709959,None,0,None,176.4362312719968,176.4362747349951,,,,,,,,,,,,,,,,,,,,,,,,,,,,,,,,,36,001,15,,2024-04-22_16h47.32.499,replicate_nsd,2023.2.3,60.27137294335628,2024-04-22 16h47.48.623931 -0400,
practice_images/w_kitchen1.jpg,5,0,,,,,0,5,5,5,,,,,176.45228777699958,,,,,,,,,,,176.4365499839987,176.4366362369983,176.436648253999,176.45228777699958,176.45228777699958,177.45489831599843,177.45489831599843,180.4524178319989,180.4524178319989,180.4524178319989,180.4524178319989,180.43553798399807,None,0,None,180.43594059699535,180.43598280999868,,,,,,,,,,,,,,,,,,,,,,,,,,,,,,,,,36,001,15,,2024-04-22_16h47.32.499,replicate_nsd,2023.2.3,60.27137294335628,2024-04-22 16h47.48.623931 -0400,
practice_images/w_boardwalk2.jpg,6,0,,,,,0,6,6,6,,,,,180.4524178319989,,,,,,,,,,,180.43625210499886,180.4363373219967,180.43634941699565,180.4524178319989,180.4524178319989,181.4523022039939,181.4523022039939,184.45252652699855,184.45252652699855,184.45252652699855,184.45252652699855,184.43592036299378,None,0,None,184.43631091099815,184.4363528709946,,,,,,,,,,,,,,,,,,,,,,,,,,,,,,,,,36,001,15,,2024-04-22_16h47.32.499,replicate_nsd,2023.2.3,60.27137294335628,2024-04-22 16h47.48.623931 -0400,
practice_images/w_bedroom2.jpg,7,0,,,,,0,7,7,7,,,,,184.45252652699855,,,,,,,,,,,184.43662345099438,184.4367105739948,184.43672196499392,184.45252652699855,184.45252652699855,185.4522267020002,185.4522267020002,188.4524666429934,188.4524666429934,188.4524666429934,188.4524666429934,188.43580945799476,None,0,None,188.43620015699707,188.43624243799422,,,,,,,,,,,,,,,,,,,,,,,,,,,,,,,,,36,001,15,,2024-04-22_16h47.32.499,replicate_nsd,2023.2.3,60.27137294335628,2024-04-22 16h47.48.623931 -0400,
practice_images/w_auditorium2.jpg,8,0,,,,,0,8,8,8,,,,,188.4524666429934,,,,,,,,,,,188.43651403699914,188.43660115699458,188.43661311399774,188.4524666429934,188.4524666429934,189.45247736400052,189.45247736400052,192.4522439239954,192.4522439239954,192.4522439239954,192.4522439239954,192.435625954,None,0,None,192.4360153949965,192.43605826299608,,,,,,,,,,,,,,,,,,,,,,,,,,,,,,,,,36,001,15,,2024-04-22_16h47.32.499,replicate_nsd,2023.2.3,60.27137294335628,2024-04-22 16h47.48.623931 -0400,
practice_images/w_monument2.jpg,9,0,,,,,0,9,9,9,,,,,192.4522439239954,,,,,,,,,,,192.43633207599487,192.4364180959965,192.43642968299537,192.4522439239954,192.4522439239954,193.45228365299408,193.45228365299408,196.4522729129967,196.4522729129967,196.4522729129967,196.4522729129967,196.4359468699986,None,0,None,196.43633755999326,196.4363806009933,,,,,,,,,,,,,,,,,,,,,,,,,,,,,,,,,36,001,15,,2024-04-22_16h47.32.499,replicate_nsd,2023.2.3,60.27137294335628,2024-04-22 16h47.48.623931 -0400,
blank.jpg,10,1,,,,,0,10,10,10,,,,,196.4522729129967,,,,,,,,,,,196.4366515799993,196.43673887799378,196.43675075799547,,,,,,,,,196.4415666069981,None,0,None,196.4418448389988,200.48592688499775,196.4522729129967,200.50250231499376,,,,,,,,,,,,,,,,,,,,,,,,,,,,,,,36,001,15,,2024-04-22_16h47.32.499,replicate_nsd,2023.2.3,60.27137294335628,2024-04-22 16h47.48.623931 -0400,
practice_images/w_bedroom2.jpg,11,0,,,,,0,11,11,11,,,,,200.50250231499376,,,,,,,,,,,200.48628323199955,200.48636789900047,200.48638017999474,200.50250231499376,200.50250231499376,201.50247123399458,201.50247123399458,204.5024797799997,204.5024797799997,204.5024797799997,204.5024797799997,204.48594628399587,None,0,None,204.4863392479965,204.48638254699472,,,,,,,,,,,,,,,,,,,,,,,,,,,,,,,,,36,001,15,,2024-04-22_16h47.32.499,replicate_nsd,2023.2.3,60.27137294335628,2024-04-22 16h47.48.623931 -0400,
practice_images/w_kitchen1.jpg,12,0,,,,,0,12,12,12,,,,,204.5024797799997,,,,,,,,,,,204.48665669699403,204.48674354499963,204.48675542699493,204.5024797799997,204.5024797799997,205.50227207999706,205.50227207999706,208.5024651519998,208.5024651519998,208.5024651519998,208.5024651519998,208.48592928599828,None,0,None,208.48632786300004,208.48637182299717,,,,,,,,,,,,,,,,,,,,,,,,,,,,,,,,,36,001,15,,2024-04-22_16h47.32.499,replicate_nsd,2023.2.3,60.27137294335628,2024-04-22 16h47.48.623931 -0400,
practice_images/w_auditorium1.jpg,13,0,,,,,0,13,13,13,,,,,208.5024651519998,,,,,,,,,,,208.48664758199448,208.48673530399537,208.4867471739999,208.5024651519998,208.5024651519998,209.50190496199502,209.50190496199502,212.50213527499727,212.50213527499727,212.50213527499727,212.50213527499727,212.48587195899745,None,0,None,212.4862621669963,212.4863044119993,,,,,,,,,,,,,,,,,,,,,,,,,,,,,,,,,36,001,15,,2024-04-22_16h47.32.499,replicate_nsd,2023.2.3,60.27137294335628,2024-04-22 16h47.48.623931 -0400,
practice_images/w_monument1.jpg,14,0,,,,,0,14,14,14,,,,,212.50213527499727,,,,,,,,,,,212.48657920599362,212.4866672759963,212.48667920599837,212.50213527499727,212.50213527499727,213.50215765999747,213.50215765999747,216.50246358499862,216.50246358499862,216.50246358499862,216.50246358499862,216.4858927479945,None,0,None,216.48628574199392,216.48632882299717,,,,,,,,,,,,,,,,,,,,,,,,,,,,,,,,,36,001,15,,2024-04-22_16h47.32.499,replicate_nsd,2023.2.3,60.27137294335628,2024-04-22 16h47.48.623931 -0400,
practice_images/w_bedroom1.jpg,15,0,,,,,0,15,15,15,,,,,216.50246358499862,,,,,,,,,,,216.48660444299458,216.4866914459999,216.48670311299793,216.50246358499862,216.50246358499862,217.50245825899765,217.50245825899765,220.5024643519937,220.5024643519937,220.5024643519937,220.5024643519937,220.4859048340004,None,0,None,220.48629789099505,220.4863403039999,,,,,,,,,,,,,,,,,,,,,,,,,,,,,,,,,36,001,15,,2024-04-22_16h47.32.499,replicate_nsd,2023.2.3,60.27137294335628,2024-04-22 16h47.48.623931 -0400,
practice_images/w_monument2.jpg,16,0,,,,,0,16,16,16,,,,,220.5024643519937,,,,,,,,,,,220.48661565499788,220.48670297399804,220.48671471899434,220.5024643519937,220.5024643519937,221.50246309299837,221.50246309299837,224.5022299589982,224.5022299589982,224.5022299589982,224.5022299589982,224.48553487000027,None,0,None,224.48594344299636,224.48598729299556,,,,,,,,,,,,,,,,,,,,,,,,,,,,,,,,,36,001,15,,2024-04-22_16h47.32.499,replicate_nsd,2023.2.3,60.27137294335628,2024-04-22 16h47.48.623931 -0400,
practice_images/w_boardwalk2.jpg,17,0,,,,,0,17,17,17,,,,,224.5022299589982,,,,,,,,,,,224.48627038999985,224.48635818899493,224.48637031699764,224.5022299589982,224.5022299589982,225.50213637699926,225.50213637699926,228.5019481729978,228.5019481729978,228.5019481729978,228.5019481729978,228.4859265499981,None,0,None,228.48632157999964,228.48636483399605,,,,,,,,,,,,,,,,,,,,,,,,,,,,,,,,,36,001,15,,2024-04-22_16h47.32.499,replicate_nsd,2023.2.3,60.27137294335628,2024-04-22 16h47.48.623931 -0400,
practice_images/w_boardwalk1.jpg,18,0,,,,,0,18,18,18,,,,,228.5019481729978,,,,,,,,,,,228.48664404900046,228.48673115599377,228.48674319499696,228.5019481729978,228.5019481729978,229.5020790369963,229.5020790369963,232.5020802269937,232.5020802269937,232.5020802269937,232.5020802269937,232.48561048899865,None,0,None,232.48600469499797,232.48604856799648,,,,,,,,,,,,,,,,,,,,,,,,,,,,,,,,,36,001,15,,2024-04-22_16h47.32.499,replicate_nsd,2023.2.3,60.27137294335628,2024-04-22 16h47.48.623931 -0400,
practice_images/w_kitchen2.jpg,19,0,,,,,0,19,19,19,,,,,232.5020802269937,,,,,,,,,,,232.48631594199833,232.48638611799834,232.48639578599978,232.5020802269937,232.5020802269937,233.5021599929969,233.5021599929969,236.50415891000011,236.50415891000011,236.50415891000011,236.50415891000011,236.4858707569947,None,0,None,236.4862679969956,236.48631132699666,,,,,,,,,,,,,,,,,,,,,,,,,,,,,,,,,36,001,15,,2024-04-22_16h47.32.499,replicate_nsd,2023.2.3,60.27137294335628,2024-04-22 16h47.48.623931 -0400,
,,,,,,,,,,,,,,,,,,,,,,,,,,,,,,,,,,,,,,,,,,,,,236.48637035299907,236.50415891000011,236.50415891000011,264.35185732799437,2,27.836780485995405,None,,,,,,,,,,,,,,,,,,,,,,,,36,001,15,,2024-04-22_16h47.32.499,replicate_nsd,2023.2.3,60.27137294335628,2024-04-22 16h47.48.623931 -0400,
,,,,,,,,,,,,,,,,,,,,,,,,,,,,,,,,,,,,,,,,,,,,,,,,,,,,264.3518905489982,264.36851215299976,264.36851215299976,267.51816985699406,equal,3.140418694005348,None,,,,,,,,,,,,,,,,,36,001,15,,2024-04-22_16h47.32.499,replicate_nsd,2023.2.3,60.27137294335628,2024-04-22 16h47.48.623931 -0400,
images/image_499_seed_1.png,0,0,0,0,0,"[9, 19, 29, 39, 49, 59, 68, 69, 70, 71]",,,,,0,0,0,0,278.1313217959978,,,,,,,,,,,,,,,,,,,,,,,,,,,,,,,,,,,,,,,,,,,,267.5908960389934,267.59095620099833,267.59096301599493,267.60704015399824,None,0,None,267.608446926999,267.608485318,None,267.6090417899977,267.6090892209977,None,267.6096607329964,267.6096915879971,None,36,001,15,,2024-04-22_16h47.32.499,replicate_nsd,2023.2.3,60.27137294335628,2024-04-22 16h47.48.623931 -0400,
images/image_362_seed_1.png,1,0,0,0,0,"[9, 19, 29, 39, 49, 59, 68, 69, 70, 71]",,,,,0,1,1,1,278.1313217959978,,,,,,,,,,,,,,,,,,,,,,,,,,,,,,,,,,,,,,,,,,,,267.61032848600007,267.61042401699524,267.61043208000046,267.62502204799966,None,0,None,267.6252084089938,267.6252345219982,None,267.6252938769976,267.6253264839979,None,267.6253857479969,267.6254086849949,None,36,001,15,,2024-04-22_16h47.32.499,replicate_nsd,2023.2.3,60.27137294335628,2024-04-22 16h47.48.623931 -0400,
images/image_691_seed_1.png,2,0,0,0,0,"[9, 19, 29, 39, 49, 59, 68, 69, 70, 71]",,,,,0,2,2,2,278.1313217959978,,,,,,,,,,,,,,,,,,,,,,,,,,,,,,,,,,,,,,,,,,,,267.62560411400045,267.625662309998,267.62566930299363,267.63947828999517,None,0,None,267.63967128199874,267.6396978049961,None,267.6397586069943,267.63979101899895,None,267.6398521459996,267.63987571899634,None,36,001,15,,2024-04-22_16h47.32.499,replicate_nsd,2023.2.3,60.27137294335628,2024-04-22 16h47.48.623931 -0400,
images/image_67_seed_1.png,3,0,0,0,0,"[9, 19, 29, 39, 49, 59, 68, 69, 70, 71]",,,,,0,3,3,3,278.1313217959978,,,,,,,,,,,,,,,,,,,,,,,,,,,,,,,,,,,,,,,,,,,,267.6400756899966,267.6401326589985,267.6401398129965,267.6551795539999,None,0,None,267.65540349799994,267.6554346269986,None,267.6555064409986,267.6555437019997,None,267.6556153049969,267.65564293499483,None,36,001,15,,2024-04-22_16h47.32.499,replicate_nsd,2023.2.3,60.27137294335628,2024-04-22 16h47.48.623931 -0400,
images/image_378_seed_1.png,4,0,0,0,0,"[9, 19, 29, 39, 49, 59, 68, 69, 70, 71]",,,,,0,4,4,4,278.1313217959978,,,,,,,,,,,,,,,,,,,,,,,,,,,,,,,,,,,,,,,,,,,,267.65587630099617,267.65594237299956,267.6559505729965,267.6717356109948,None,0,None,267.6719589109998,267.671990113995,None,267.6720615509985,267.67209880199516,None,267.67216939499485,267.6721963050004,None,36,001,15,,2024-04-22_16h47.32.499,replicate_nsd,2023.2.3,60.27137294335628,2024-04-22 16h47.48.623931 -0400,
images/image_534_seed_1.png,5,0,0,0,0,"[9, 19, 29, 39, 49, 59, 68, 69, 70, 71]",,,,,0,5,5,5,278.1313217959978,,,,,,,,,,,,,,,,,,,,,,,,,,,,,,,,,,,,,,,,,,,,267.6724279369955,267.6724943119989,267.67250262099697,267.6875314389981,None,0,None,267.6877538839981,267.6877847929936,None,267.68785517099604,267.6878920119998,None,267.68796304699936,267.68799011999363,None,36,001,15,,2024-04-22_16h47.32.499,replicate_nsd,2023.2.3,60.27137294335628,2024-04-22 16h47.48.623931 -0400,
images/image_426_seed_1.png,6,0,0,0,0,"[9, 19, 29, 39, 49, 59, 68, 69, 70, 71]",,,,,0,6,6,6,278.1313217959978,,,,,,,,,,,,,,,,,,,,,,,,,,,,,,,,,,,,,,,,,,,,267.6882216629965,267.6882874589937,267.68829596099386,267.7037319640003,None,0,None,267.70401274499454,267.70405154099717,None,267.7041407209981,267.7041870529938,None,267.70427699099673,267.70431150399963,None,36,001,15,,2024-04-22_16h47.32.499,replicate_nsd,2023.2.3,60.27137294335628,2024-04-22 16h47.48.623931 -0400,
images/image_655_seed_1.png,7,0,0,0,0,"[9, 19, 29, 39, 49, 59, 68, 69, 70, 71]",,,,,0,7,7,7,278.1313217959978,,,,,,,,,,,,,,,,,,,,,,,,,,,,,,,,,,,,,,,,,,,,267.70460069999535,267.7046822909979,267.7046926559997,267.72227714199835,None,0,None,267.72255822199804,267.7225966729966,None,267.7226860249939,267.7227326159991,None,267.7228216539952,267.7228558949937,None,36,001,15,,2024-04-22_16h47.32.499,replicate_nsd,2023.2.3,60.27137294335628,2024-04-22 16h47.48.623931 -0400,
images/image_425_seed_1.png,8,0,0,0,0,"[9, 19, 29, 39, 49, 59, 68, 69, 70, 71]",,,,,0,8,8,8,278.1313217959978,,,,,,,,,,,,,,,,,,,,,,,,,,,,,,,,,,,,,,,,,,,,267.72314462199574,267.7232266589999,267.7232369829944,267.74078861799353,None,0,None,267.7410668179946,267.7411053449978,None,267.74119371599954,267.74123992599925,None,267.74132916599774,267.7413631909949,None,36,001,15,,2024-04-22_16h47.32.499,replicate_nsd,2023.2.3,60.27137294335628,2024-04-22 16h47.48.623931 -0400,
blank.jpg,9,1,0,0,0,"[9, 19, 29, 39, 49, 59, 68, 69, 70, 71]",,,,,0,9,9,9,278.1313217959978,,,,,,,,,,,,,,,,,,,,,,,,,,,,,,,,,,,,,,,,,,,,267.74166221399355,267.74175132899836,267.74176202299714,267.74502258199936,None,0,None,267.7452475109967,267.74527871499595,None,267.7453496359958,267.74538735599344,None,267.74546559900045,267.74549367199506,None,36,001,15,,2024-04-22_16h47.32.499,replicate_nsd,2023.2.3,60.27137294335628,2024-04-22 16h47.48.623931 -0400,
images/image_736_seed_1.png,10,0,0,0,0,"[9, 19, 29, 39, 49, 59, 68, 69, 70, 71]",,,,,0,10,10,10,278.1313217959978,,,,,,,,,,,,,,,,,,,,,,,,,,,,,,,,,,,,,,,,,,,,267.7457253439934,267.7457916939966,267.7458003809952,267.76141303499753,None,0,None,267.76163642999745,267.7616674509991,None,267.7617376559938,267.7617795879996,None,267.7618521080003,267.76187987400044,None,36,001,15,,2024-04-22_16h47.32.499,replicate_nsd,2023.2.3,60.27137294335628,2024-04-22 16h47.48.623931 -0400,
images/image_487_seed_1.png,11,0,0,0,0,"[9, 19, 29, 39, 49, 59, 68, 69, 70, 71]",,,,,0,11,11,11,278.1313217959978,,,,,,,,,,,,,,,,,,,,,,,,,,,,,,,,,,,,,,,,,,,,267.76211355399573,267.76218097399396,267.762189352994,267.7780336009964,None,0,None,267.77825653099717,267.7782882190004,None,267.7783593579952,267.778396883994,None,267.7784685679944,267.7784960709978,None,36,001,15,,2024-04-22_16h47.32.499,replicate_nsd,2023.2.3,60.27137294335628,2024-04-22 16h47.48.623931 -0400,
images/image_382_seed_1.png,12,0,0,0,0,"[9, 19, 29, 39, 49, 59, 68, 69, 70, 71]",,,,,0,12,12,12,278.1313217959978,,,,,,,,,,,,,,,,,,,,,,,,,,,,,,,,,,,,,,,,,,,,267.77872925199335,267.7787970339996,267.7788054989942,267.79433766899456,None,0,None,267.79461830999935,267.79465862699726,None,267.79474761399615,267.79479409600026,None,267.79488370199397,267.79491817099915,None,36,001,15,,2024-04-22_16h47.32.499,replicate_nsd,2023.2.3,60.27137294335628,2024-04-22 16h47.48.623931 -0400,
images/image_250_seed_1.png,13,0,0,0,0,"[9, 19, 29, 39, 49, 59, 68, 69, 70, 71]",,,,,0,13,13,13,278.1313217959978,,,,,,,,,,,,,,,,,,,,,,,,,,,,,,,,,,,,,,,,,,,,267.79521730299894,267.7952998279943,267.79531038799905,267.81222436499957,None,0,None,267.8124467959933,267.8124781659935,None,267.8125493039988,267.8125868709976,None,267.8126583669946,267.8126862279969,None,36,001,15,,2024-04-22_16h47.32.499,replicate_nsd,2023.2.3,60.27137294335628,2024-04-22 16h47.48.623931 -0400,
images/image_430_seed_1.png,14,0,0,0,0,"[9, 19, 29, 39, 49, 59, 68, 69, 70, 71]",,,,,0,14,14,14,278.1313217959978,,,,,,,,,,,,,,,,,,,,,,,,,,,,,,,,,,,,,,,,,,,,267.81292654299614,267.8129938899947,267.81300199799443,267.8315944549977,None,0,None,267.8318738579983,267.83191269699455,None,267.83200254999974,267.8320497349996,None,267.8321386989992,267.8321805749947,None,36,001,15,,2024-04-22_16h47.32.499,replicate_nsd,2023.2.3,60.27137294335628,2024-04-22 16h47.48.623931 -0400,
images/image_735_seed_1.png,15,0,0,0,0,"[9, 19, 29, 39, 49, 59, 68, 69, 70, 71]",,,,,0,15,15,15,278.1313217959978,,,,,,,,,,,,,,,,,,,,,,,,,,,,,,,,,,,,,,,,,,,,267.8324746529979,267.832557087997,267.8325675419983,267.84799965199636,None,0,None,267.84828100499726,267.8483199170005,None,267.8484080939961,267.84845510299783,None,267.84854346499924,267.8485774199944,None,36,001,15,,2024-04-22_16h47.32.499,replicate_nsd,2023.2.3,60.27137294335628,2024-04-22 16h47.48.623931 -0400,
images/paired_image_676_1.png,16,0,0,0,0,"[9, 19, 29, 39, 49, 59, 68, 69, 70, 71]",,,,,0,16,16,16,278.1313217959978,,,,,,,,,,,,,,,,,,,,,,,,,,,,,,,,,,,,,,,,,,,,267.848866938999,267.84894930500013,267.84895969399804,267.8667497389979,None,0,None,267.8669718569945,267.86700293899776,None,267.867073454996,267.8671106299953,None,267.86718189599924,267.8672092849956,None,36,001,15,,2024-04-22_16h47.32.499,replicate_nsd,2023.2.3,60.27137294335628,2024-04-22 16h47.48.623931 -0400,
images/image_374_seed_1.png,17,0,0,0,0,"[9, 19, 29, 39, 49, 59, 68, 69, 70, 71]",,,,,0,17,17,17,278.1313217959978,,,,,,,,,,,,,,,,,,,,,,,,,,,,,,,,,,,,,,,,,,,,267.86744120999356,267.8675076589934,267.8675161959982,267.8806198079983,None,0,None,267.8808115369975,267.88083794999693,None,267.88089890399715,267.8809309149947,None,267.8809913649966,267.8810164289971,None,36,001,15,,2024-04-22_16h47.32.499,replicate_nsd,2023.2.3,60.27137294335628,2024-04-22 16h47.48.623931 -0400,
images/image_298_seed_1.png,18,0,0,0,0,"[9, 19, 29, 39, 49, 59, 68, 69, 70, 71]",,,,,0,18,18,18,278.1313217959978,,,,,,,,,,,,,,,,,,,,,,,,,,,,,,,,,,,,,,,,,,,,267.88122254499467,267.8812799429943,267.88128707899887,267.89519034699333,None,0,None,267.89541477499733,267.8954456949941,None,267.89551689699874,267.8955546569996,None,267.8956260979976,267.8956541219959,None,36,001,15,,2024-04-22_16h47.32.499,replicate_nsd,2023.2.3,60.27137294335628,2024-04-22 16h47.48.623931 -0400,
blank.jpg,19,1,0,0,0,"[9, 19, 29, 39, 49, 59, 68, 69, 70, 71]",,,,,0,19,19,19,278.1313217959978,,,,,,,,,,,,,,,,,,,,,,,,,,,,,,,,,,,,,,,,,,,,267.8958870009956,267.8959532749941,267.895961684997,267.8987846309974,None,0,None,267.89901024599385,267.89904152199597,None,267.8991129709975,267.89915046799433,None,267.8992219379943,267.8992493209953,None,36,001,15,,2024-04-22_16h47.32.499,replicate_nsd,2023.2.3,60.27137294335628,2024-04-22 16h47.48.623931 -0400,
images/image_268_seed_1.png,20,0,0,0,0,"[9, 19, 29, 39, 49, 59, 68, 69, 70, 71]",,,,,0,20,20,20,278.1313217959978,,,,,,,,,,,,,,,,,,,,,,,,,,,,,,,,,,,,,,,,,,,,267.89948770399496,267.89955465199455,267.8995631709986,267.9118997189944,None,0,None,267.9120931899961,267.91211968199786,None,267.91218137699616,267.9122132639968,None,267.91227481499664,267.91229832099634,None,36,001,15,,2024-04-22_16h47.32.499,replicate_nsd,2023.2.3,60.27137294335628,2024-04-22 16h47.48.623931 -0400,
images/image_48_seed_1.png,21,0,0,0,0,"[9, 19, 29, 39, 49, 59, 68, 69, 70, 71]",,,,,0,21,21,21,278.1313217959978,,,,,,,,,,,,,,,,,,,,,,,,,,,,,,,,,,,,,,,,,,,,267.91249988999334,267.91255681099574,267.9125639549966,267.92595686599816,None,0,None,267.9264484390005,267.92649714699655,None,267.92662191499403,267.92668123899784,None,267.9267931199938,267.9268363529991,None,36,001,15,,2024-04-22_16h47.32.499,replicate_nsd,2023.2.3,60.27137294335628,2024-04-22 16h47.48.623931 -0400,
images/image_540_seed_1.png,22,0,0,0,0,"[9, 19, 29, 39, 49, 59, 68, 69, 70, 71]",,,,,0,22,22,22,278.1313217959978,,,,,,,,,,,,,,,,,,,,,,,,,,,,,,,,,,,,,,,,,,,,267.92720006899617,267.9273034449943,267.9273166759958,267.9453810349951,None,0,None,267.94566798899905,267.94570725099766,None,267.94579662699834,267.94584412199765,None,267.9459323899937,267.945967104999,None,36,001,15,,2024-04-22_16h47.32.499,replicate_nsd,2023.2.3,60.27137294335628,2024-04-22 16h47.48.623931 -0400,
images/image_645_seed_1.png,23,0,0,0,0,"[9, 19, 29, 39, 49, 59, 68, 69, 70, 71]",,,,,0,23,23,23,278.1313217959978,,,,,,,,,,,,,,,,,,,,,,,,,,,,,,,,,,,,,,,,,,,,267.9462655479947,267.9463497079996,267.9463599640003,267.9631886339994,None,0,None,267.96348171299906,267.9635209709959,None,267.9636185749987,267.963665929994,None,267.9637571209969,267.9638019269987,None,36,001,15,,2024-04-22_16h47.32.499,replicate_nsd,2023.2.3,60.27137294335628,2024-04-22 16h47.48.623931 -0400,
images/image_265_seed_1.png,24,0,0,0,0,"[9, 19, 29, 39, 49, 59, 68, 69, 70, 71]",,,,,0,24,24,24,278.1313217959978,,,,,,,,,,,,,,,,,,,,,,,,,,,,,,,,,,,,,,,,,,,,267.96411139299744,267.96419446199434,267.964204924996,267.9797029369947,None,0,None,267.9799874819946,267.9800260129996,None,267.9801146539976,267.9801639099969,None,267.9802537289943,267.9802876169997,None,36,001,15,,2024-04-22_16h47.32.499,replicate_nsd,2023.2.3,60.27137294335628,2024-04-22 16h47.48.623931 -0400,
images/image_604_seed_1.png,25,0,0,0,0,"[9, 19, 29, 39, 49, 59, 68, 69, 70, 71]",,,,,0,25,25,25,278.1313217959978,,,,,,,,,,,,,,,,,,,,,,,,,,,,,,,,,,,,,,,,,,,,267.9806018189993,267.9806855610004,267.9806957969995,267.99789506899833,None,0,None,267.99818542799767,267.9982243659979,None,267.99831505899783,267.99836308099475,None,267.9984518189958,267.998486217999,None,36,001,15,,2024-04-22_16h47.32.499,replicate_nsd,2023.2.3,60.27137294335628,2024-04-22 16h47.48.623931 -0400,
images/image_625_seed_1.png,26,0,0,0,0,"[9, 19, 29, 39, 49, 59, 68, 69, 70, 71]",,,,,0,26,26,26,278.1313217959978,,,,,,,,,,,,,,,,,,,,,,,,,,,,,,,,,,,,,,,,,,,,267.99877531699894,267.9988579359997,267.99886831899494,268.0155454729975,None,0,None,268.01577013899805,268.01580140299484,None,268.0158723889981,268.0159101859972,None,268.015980280994,268.0160078439949,None,36,001,15,,2024-04-22_16h47.32.499,replicate_nsd,2023.2.3,60.27137294335628,2024-04-22 16h47.48.623931 -0400,
images/image_225_seed_1.png,27,0,0,0,0,"[9, 19, 29, 39, 49, 59, 68, 69, 70, 71]",,,,,0,27,27,27,278.1313217959978,,,,,,,,,,,,,,,,,,,,,,,,,,,,,,,,,,,,,,,,,,,,268.016245918996,268.0163133899987,268.0163217759982,268.03143970499514,None,0,None,268.03172055199684,268.03175885499513,None,268.03184829499514,268.031894587999,None,268.0319832919995,268.03201735999755,None,36,001,15,,2024-04-22_16h47.32.499,replicate_nsd,2023.2.3,60.27137294335628,2024-04-22 16h47.48.623931 -0400,
images/image_141_seed_1.png,28,0,0,0,0,"[9, 19, 29, 39, 49, 59, 68, 69, 70, 71]",,,,,0,28,28,28,278.1313217959978,,,,,,,,,,,,,,,,,,,,,,,,,,,,,,,,,,,,,,,,,,,,268.0323059699949,268.0323880599972,268.03239852499973,268.0498926910004,None,0,None,268.05011627199565,268.05014697399747,None,268.05021797999507,268.05025596299674,None,268.05032763299823,268.05035498799407,None,36,001,15,,2024-04-22_16h47.32.499,replicate_nsd,2023.2.3,60.27137294335628,2024-04-22 16h47.48.623931 -0400,
blank.jpg,29,1,0,0,0,"[9, 19, 29, 39, 49, 59, 68, 69, 70, 71]",,,,,0,29,29,29,278.1313217959978,,,,,,,,,,,,,,,,,,,,,,,,,,,,,,,,,,,,,,,,,,,,268.05058544799977,268.0506525949968,268.0506609189979,268.0535266109946,None,0,None,268.05374996799947,268.0537809419984,None,268.05385170299996,268.0538900149986,None,268.05396124099934,268.0539890069995,None,36,001,15,,2024-04-22_16h47.32.499,replicate_nsd,2023.2.3,60.27137294335628,2024-04-22 16h47.48.623931 -0400,
images/image_134_seed_1.png,30,0,0,0,0,"[9, 19, 29, 39, 49, 59, 68, 69, 70, 71]",,,,,0,30,30,30,278.1313217959978,,,,,,,,,,,,,,,,,,,,,,,,,,,,,,,,,,,,,,,,,,,,268.0542237929985,268.05428938699333,268.05429772599746,268.0696532019938,None,0,None,268.069879001996,268.0699098939949,None,268.06998208099685,268.0700200020001,None,268.0700918000002,268.0701190749969,None,36,001,15,,2024-04-22_16h47.32.499,replicate_nsd,2023.2.3,60.27137294335628,2024-04-22 16h47.48.623931 -0400,
images/image_600_seed_1.png,31,0,0,0,0,"[9, 19, 29, 39, 49, 59, 68, 69, 70, 71]",,,,,0,31,31,31,278.1313217959978,,,,,,,,,,,,,,,,,,,,,,,,,,,,,,,,,,,,,,,,,,,,268.07035890800034,268.0704254469965,268.070433942994,268.0859033949964,None,0,None,268.086129077994,268.086160463994,None,268.0862323900001,268.0862699379941,None,268.08634178999637,268.0863692779967,None,36,001,15,,2024-04-22_16h47.32.499,replicate_nsd,2023.2.3,60.27137294335628,2024-04-22 16h47.48.623931 -0400,
images/w_runway2.jpg,32,0,0,0,0,"[9, 19, 29, 39, 49, 59, 68, 69, 70, 71]",,,,,0,32,32,32,278.1313217959978,,,,,,,,,,,,,,,,,,,,,,,,,,,,,,,,,,,,,,,,,,,,268.0866106839967,268.0866823969991,268.0866907460004,268.0921183869941,None,0,None,268.09234120999463,268.0923717199985,None,268.0924421709933,268.0924795669998,None,268.0925501149977,268.09257707999495,None,36,001,15,,2024-04-22_16h47.32.499,replicate_nsd,2023.2.3,60.27137294335628,2024-04-22 16h47.48.623931 -0400,
images/image_206_seed_1.png,33,0,0,0,0,"[9, 19, 29, 39, 49, 59, 68, 69, 70, 71]",,,,,0,33,33,33,278.1313217959978,,,,,,,,,,,,,,,,,,,,,,,,,,,,,,,,,,,,,,,,,,,,268.09280752299674,268.09287387099903,268.0928819559995,268.1091962049977,None,0,None,268.10942182199506,268.10945299399464,None,268.10952511899814,268.10956323599385,None,268.1096342039964,268.10966198099777,None,36,001,15,,2024-04-22_16h47.32.499,replicate_nsd,2023.2.3,60.27137294335628,2024-04-22 16h47.48.623931 -0400,
images/image_76_seed_1.png,34,0,0,0,0,"[9, 19, 29, 39, 49, 59, 68, 69, 70, 71]",,,,,0,34,34,34,278.1313217959978,,,,,,,,,,,,,,,,,,,,,,,,,,,,,,,,,,,,,,,,,,,,268.1098951499953,268.10996301599516,268.10997132399643,268.1261210369994,None,0,None,268.12631871799385,268.1263458309986,None,268.1264068780001,268.12644049799565,None,268.12650973799464,268.1265339129968,None,36,001,15,,2024-04-22_16h47.32.499,replicate_nsd,2023.2.3,60.27137294335628,2024-04-22 16h47.48.623931 -0400,
images/image_597_seed_1.png,35,0,0,0,0,"[9, 19, 29, 39, 49, 59, 68, 69, 70, 71]",,,,,0,35,35,35,278.1313217959978,,,,,,,,,,,,,,,,,,,,,,,,,,,,,,,,,,,,,,,,,,,,268.1267416949995,268.1268024799938,268.12680963899766,268.1410560469958,None,0,None,268.14156317799643,268.1416128899946,None,268.1417807549951,268.1418457749969,None,268.1419602209935,268.142004248999,None,36,001,15,,2024-04-22_16h47.32.499,replicate_nsd,2023.2.3,60.27137294335628,2024-04-22 16h47.48.623931 -0400,
images/image_286_seed_1.png,36,0,0,0,0,"[9, 19, 29, 39, 49, 59, 68, 69, 70, 71]",,,,,0,36,36,36,278.1313217959978,,,,,,,,,,,,,,,,,,,,,,,,,,,,,,,,,,,,,,,,,,,,268.1423835949972,268.14251314499415,268.14252687599947,268.1621212600003,None,0,None,268.1624178879938,268.1624568989937,None,268.1625512959945,268.1625990829998,None,268.1626883439967,268.1627273519989,None,36,001,15,,2024-04-22_16h47.32.499,replicate_nsd,2023.2.3,60.27137294335628,2024-04-22 16h47.48.623931 -0400,
images/image_82_seed_1.png,37,0,0,0,0,"[9, 19, 29, 39, 49, 59, 68, 69, 70, 71]",,,,,0,37,37,37,278.1313217959978,,,,,,,,,,,,,,,,,,,,,,,,,,,,,,,,,,,,,,,,,,,,268.1630265459971,268.1631114089978,268.16312199399545,268.1788613109966,None,0,None,268.17909448599676,268.1791260999962,None,268.1792441459984,268.17928293699515,None,268.17935565399966,268.17938400799903,None,36,001,15,,2024-04-22_16h47.32.499,replicate_nsd,2023.2.3,60.27137294335628,2024-04-22 16h47.48.623931 -0400,
images/image_247_seed_1.png,38,0,0,0,0,"[9, 19, 29, 39, 49, 59, 68, 69, 70, 71]",,,,,0,38,38,38,278.1313217959978,,,,,,,,,,,,,,,,,,,,,,,,,,,,,,,,,,,,,,,,,,,,268.17961940199893,268.1796947749972,268.1797034629999,268.1951225439989,None,0,None,268.1953477930001,268.19537908599887,None,268.1954509999996,268.19548896599736,None,268.19556132799335,268.19558925399906,None,36,001,15,,2024-04-22_16h47.32.499,replicate_nsd,2023.2.3,60.27137294335628,2024-04-22 16h47.48.623931 -0400,
blank.jpg,39,1,0,0,0,"[9, 19, 29, 39, 49, 59, 68, 69, 70, 71]",,,,,0,39,39,39,278.1313217959978,,,,,,,,,,,,,,,,,,,,,,,,,,,,,,,,,,,,,,,,,,,,268.19582320399786,268.19589070599613,268.1958991379943,268.19885622099537,None,0,None,268.1990795829988,268.1991105220004,None,268.199181320997,268.1992196270003,None,268.1992977649934,268.19932636500016,None,36,001,15,,2024-04-22_16h47.32.499,replicate_nsd,2023.2.3,60.27137294335628,2024-04-22 16h47.48.623931 -0400,
images/image_361_seed_1.png,40,0,0,0,0,"[9, 19, 29, 39, 49, 59, 68, 69, 70, 71]",,,,,0,40,40,40,278.1313217959978,,,,,,,,,,,,,,,,,,,,,,,,,,,,,,,,,,,,,,,,,,,,268.199561632995,268.1996287399961,268.1996372009962,268.2151442779941,None,0,None,268.21536993599875,268.21540151899535,None,268.2154724619977,268.215515965996,None,268.2155889949936,268.2156161419989,None,36,001,15,,2024-04-22_16h47.32.499,replicate_nsd,2023.2.3,60.27137294335628,2024-04-22 16h47.48.623931 -0400,
images/19_0.png,41,0,0,0,0,"[9, 19, 29, 39, 49, 59, 68, 69, 70, 71]",,,,,0,41,41,41,278.1313217959978,,,,,,,,,,,,,,,,,,,,,,,,,,,,,,,,,,,,,,,,,,,,268.21585955299815,268.2159264429938,268.2159347669949,268.2238033879985,None,0,None,268.22399583999504,268.2240224909983,None,268.2240838449943,268.2241168740002,None,268.22418474000006,268.22420884399617,None,36,001,15,,2024-04-22_16h47.32.499,replicate_nsd,2023.2.3,60.27137294335628,2024-04-22 16h47.48.623931 -0400,
images/image_301_seed_1.png,42,0,0,0,0,"[9, 19, 29, 39, 49, 59, 68, 69, 70, 71]",,,,,0,42,42,42,278.1313217959978,,,,,,,,,,,,,,,,,,,,,,,,,,,,,,,,,,,,,,,,,,,,268.2244099639938,268.2244670639993,268.22447430899774,268.23896052599594,None,0,None,268.2391542039986,268.23918079899886,None,268.239242276999,268.23927474299853,None,268.23933604699414,268.239359565996,None,36,001,15,,2024-04-22_16h47.32.499,replicate_nsd,2023.2.3,60.27137294335628,2024-04-22 16h47.48.623931 -0400,
images/image_363_seed_1.png,43,0,0,0,0,"[9, 19, 29, 39, 49, 59, 68, 69, 70, 71]",,,,,0,43,43,43,278.1313217959978,,,,,,,,,,,,,,,,,,,,,,,,,,,,,,,,,,,,,,,,,,,,268.23955941999884,268.239616259998,268.2396235339984,268.25338038399786,None,0,None,268.2535720079977,268.25359880899487,None,268.2536597539947,268.25369244899775,None,268.25375409499975,268.2537777139951,None,36,001,15,,2024-04-22_16h47.32.499,replicate_nsd,2023.2.3,60.27137294335628,2024-04-22 16h47.48.623931 -0400,
images/image_275_seed_1.png,44,0,0,0,0,"[9, 19, 29, 39, 49, 59, 68, 69, 70, 71]",,,,,0,44,44,44,278.1313217959978,,,,,,,,,,,,,,,,,,,,,,,,,,,,,,,,,,,,,,,,,,,,268.253977458,268.25403574499796,268.2540428020002,268.2703372909964,None,0,None,268.2706154079933,268.27065415299876,None,268.2707434269978,268.27079010899615,None,268.2708796730003,268.2709142649983,None,36,001,15,,2024-04-22_16h47.32.499,replicate_nsd,2023.2.3,60.27137294335628,2024-04-22 16h47.48.623931 -0400,
images/image_19_seed_1.png,45,0,0,0,0,"[9, 19, 29, 39, 49, 59, 68, 69, 70, 71]",,,,,0,45,45,45,278.1313217959978,,,,,,,,,,,,,,,,,,,,,,,,,,,,,,,,,,,,,,,,,,,,268.2712117899937,268.2712952189977,268.2713055159984,268.2885051089979,None,0,None,268.2887820420001,268.2888207079959,None,268.2889101769979,268.28896614199766,None,268.28905822599336,268.28909303499677,None,36,001,15,,2024-04-22_16h47.32.499,replicate_nsd,2023.2.3,60.27137294335628,2024-04-22 16h47.48.623931 -0400,
images/image_54_seed_1.png,46,0,0,0,0,"[9, 19, 29, 39, 49, 59, 68, 69, 70, 71]",,,,,0,46,46,46,278.1313217959978,,,,,,,,,,,,,,,,,,,,,,,,,,,,,,,,,,,,,,,,,,,,268.28938149999885,268.289463188994,268.28947346499626,268.30591428099433,None,0,None,268.30619418999413,268.30623280399595,None,268.30632212699857,268.3063686339956,None,268.3064577719997,268.3065002519943,None,36,001,15,,2024-04-22_16h47.32.499,replicate_nsd,2023.2.3,60.27137294335628,2024-04-22 16h47.48.623931 -0400,
images/image_188_seed_1.png,47,0,0,0,0,"[9, 19, 29, 39, 49, 59, 68, 69, 70, 71]",,,,,0,47,47,47,278.1313217959978,,,,,,,,,,,,,,,,,,,,,,,,,,,,,,,,,,,,,,,,,,,,268.3067927079974,268.3068756270004,268.30688609899516,268.3237071149997,None,0,None,268.32398694699805,268.3240253289987,None,268.3241138069934,268.32415924999805,None,268.32424852899567,268.324282870999,None,36,001,15,,2024-04-22_16h47.32.499,replicate_nsd,2023.2.3,60.27137294335628,2024-04-22 16h47.48.623931 -0400,
images/image_648_seed_1.png,48,0,0,0,0,"[9, 19, 29, 39, 49, 59, 68, 69, 70, 71]",,,,,0,48,48,48,278.1313217959978,,,,,,,,,,,,,,,,,,,,,,,,,,,,,,,,,,,,,,,,,,,,268.3245713449942,268.32465361999493,268.3246637589982,268.3419517239963,None,0,None,268.342175922,268.3422069879962,None,268.3422786729934,268.34231611399446,None,268.34238849099347,268.3424165039978,None,36,001,15,,2024-04-22_16h47.32.499,replicate_nsd,2023.2.3,60.27137294335628,2024-04-22 16h47.48.623931 -0400,
blank.jpg,49,1,0,0,0,"[9, 19, 29, 39, 49, 59, 68, 69, 70, 71]",,,,,0,49,49,49,278.1313217959978,,,,,,,,,,,,,,,,,,,,,,,,,,,,,,,,,,,,,,,,,,,,268.3426490569982,268.34271555899613,268.34272394699656,268.3455765059989,None,0,None,268.3458016069999,268.3458324769963,None,268.3459035199994,268.34594164699956,None,268.34601405499416,268.3460416819944,None,36,001,15,,2024-04-22_16h47.32.499,replicate_nsd,2023.2.3,60.27137294335628,2024-04-22 16h47.48.623931 -0400,
images/image_227_seed_1.png,50,0,0,0,0,"[9, 19, 29, 39, 49, 59, 68, 69, 70, 71]",,,,,0,50,50,50,278.1313217959978,,,,,,,,,,,,,,,,,,,,,,,,,,,,,,,,,,,,,,,,,,,,268.34627639199607,268.34634193599777,268.34635008499754,268.36316636499396,None,0,None,268.3633928079944,268.36342561499623,None,268.3634975399982,268.36353481799597,None,268.36360663199594,268.3636401149997,None,36,001,15,,2024-04-22_16h47.32.499,replicate_nsd,2023.2.3,60.27137294335628,2024-04-22 16h47.48.623931 -0400,
images/image_585_seed_1.png,51,0,0,0,0,"[9, 19, 29, 39, 49, 59, 68, 69, 70, 71]",,,,,0,51,51,51,278.1313217959978,,,,,,,,,,,,,,,,,,,,,,,,,,,,,,,,,,,,,,,,,,,,268.3638867829941,268.3639644759969,268.36397304499405,268.3799826989998,None,0,None,268.3804963309958,268.3805469079962,None,268.38067468299414,268.380734939994,None,268.38084737299505,268.3808907979983,None,36,001,15,,2024-04-22_16h47.32.499,replicate_nsd,2023.2.3,60.27137294335628,2024-04-22 16h47.48.623931 -0400,
images/image_435_seed_1.png,52,0,0,0,0,"[9, 19, 29, 39, 49, 59, 68, 69, 70, 71]",,,,,0,52,52,52,278.1313217959978,,,,,,,,,,,,,,,,,,,,,,,,,,,,,,,,,,,,,,,,,,,,268.38125501600007,268.38135998999496,268.3813724349966,268.39669945700007,None,0,None,268.3969247779969,268.39695524399576,None,268.3970270439968,268.39706463499897,None,268.39715513999545,268.3971831719973,None,36,001,15,,2024-04-22_16h47.32.499,replicate_nsd,2023.2.3,60.27137294335628,2024-04-22 16h47.48.623931 -0400,
images/image_649_seed_1.png,53,0,0,0,0,"[9, 19, 29, 39, 49, 59, 68, 69, 70, 71]",,,,,0,53,53,53,278.1313217959978,,,,,,,,,,,,,,,,,,,,,,,,,,,,,,,,,,,,,,,,,,,,268.3974319629997,268.39750056899356,268.3975088409934,268.41008425199834,None,0,None,268.4102761309987,268.41030257999955,None,268.4103633409977,268.4103955869941,None,268.4104562129942,268.4104799689958,None,36,001,15,,2024-04-22_16h47.32.499,replicate_nsd,2023.2.3,60.27137294335628,2024-04-22 16h47.48.623931 -0400,
images/image_432_seed_1.png,54,0,0,0,0,"[9, 19, 29, 39, 49, 59, 68, 69, 70, 71]",,,,,0,54,54,54,278.1313217959978,,,,,,,,,,,,,,,,,,,,,,,,,,,,,,,,,,,,,,,,,,,,268.4106798569992,268.410737238999,268.4107442069944,268.4251246989952,None,0,None,268.42532526799914,268.4253519949998,None,268.425413580997,268.4254454279944,None,268.4255074169996,268.4255308549982,None,36,001,15,,2024-04-22_16h47.32.499,replicate_nsd,2023.2.3,60.27137294335628,2024-04-22 16h47.48.623931 -0400,
images/image_80_seed_1.png,55,0,0,0,0,"[9, 19, 29, 39, 49, 59, 68, 69, 70, 71]",,,,,0,55,55,55,278.1313217959978,,,,,,,,,,,,,,,,,,,,,,,,,,,,,,,,,,,,,,,,,,,,268.42573695600004,268.425793685994,268.42580096199526,268.439648845997,None,0,None,268.4398713999981,268.4399023980004,None,268.43997309699625,268.44001013399975,None,268.44008191600005,268.44010975899437,None,36,001,15,,2024-04-22_16h47.32.499,replicate_nsd,2023.2.3,60.27137294335628,2024-04-22 16h47.48.623931 -0400,
images/image_322_seed_1.png,56,0,0,0,0,"[9, 19, 29, 39, 49, 59, 68, 69, 70, 71]",,,,,0,56,56,56,278.1313217959978,,,,,,,,,,,,,,,,,,,,,,,,,,,,,,,,,,,,,,,,,,,,268.4403464469942,268.4404125509973,268.4404207519983,268.45638554099423,None,0,None,268.4566651139976,268.45670337599586,None,268.45679277799354,268.45683921199816,None,268.45692792499904,268.4569622509953,None,36,001,15,,2024-04-22_16h47.32.499,replicate_nsd,2023.2.3,60.27137294335628,2024-04-22 16h47.48.623931 -0400,
images/image_59_seed_1.png,57,0,0,0,0,"[9, 19, 29, 39, 49, 59, 68, 69, 70, 71]",,,,,0,57,57,57,278.1313217959978,,,,,,,,,,,,,,,,,,,,,,,,,,,,,,,,,,,,,,,,,,,,268.45731839699874,268.45740057099465,268.45741086699854,268.4740810749936,None,0,None,268.4743593669991,268.47439789399505,None,268.4744871589937,268.47453604600014,None,268.4746271499971,268.47466126799554,None,36,001,15,,2024-04-22_16h47.32.499,replicate_nsd,2023.2.3,60.27137294335628,2024-04-22 16h47.48.623931 -0400,
images/w_yoga_studio2.jpg,58,0,0,0,0,"[9, 19, 29, 39, 49, 59, 68, 69, 70, 71]",,,,,0,58,58,58,278.1313217959978,,,,,,,,,,,,,,,,,,,,,,,,,,,,,,,,,,,,,,,,,,,,268.4749507069937,268.47503348199825,268.47504350899544,268.4803628949958,None,0,None,268.48066805999406,268.4807073849952,None,268.4807968649984,268.4808445649978,None,268.4809341069995,268.48096769499534,None,36,001,15,,2024-04-22_16h47.32.499,replicate_nsd,2023.2.3,60.27137294335628,2024-04-22 16h47.48.623931 -0400,
blank.jpg,59,1,0,0,0,"[9, 19, 29, 39, 49, 59, 68, 69, 70, 71]",,,,,0,59,59,59,278.1313217959978,,,,,,,,,,,,,,,,,,,,,,,,,,,,,,,,,,,,,,,,,,,,268.48125812299986,268.4813400409985,268.48135013699357,268.48390002700035,None,0,None,268.48412315699534,268.4841543980001,None,268.4842262940001,268.4842639130002,None,268.4843349619987,268.4843625739959,None,36,001,15,,2024-04-22_16h47.32.499,replicate_nsd,2023.2.3,60.27137294335628,2024-04-22 16h47.48.623931 -0400,
images/image_233_seed_1.png,60,0,0,0,0,"[9, 19, 29, 39, 49, 59, 68, 69, 70, 71]",,,,,0,60,60,60,278.1313217959978,,,,,,,,,,,,,,,,,,,,,,,,,,,,,,,,,,,,,,,,,,,,268.48460201199487,268.48466796999855,268.4846761309964,268.50140483499854,None,0,None,268.5016296159956,268.50166079699557,None,268.5017315019941,268.5017691949979,None,268.5018399879991,268.50186768599815,None,36,001,15,,2024-04-22_16h47.32.499,replicate_nsd,2023.2.3,60.27137294335628,2024-04-22 16h47.48.623931 -0400,
images/image_511_seed_1.png,61,0,0,0,0,"[9, 19, 29, 39, 49, 59, 68, 69, 70, 71]",,,,,0,61,61,61,278.1313217959978,,,,,,,,,,,,,,,,,,,,,,,,,,,,,,,,,,,,,,,,,,,,268.50209915499727,268.5021661849969,268.5021744080004,268.51727752799343,None,0,None,268.51750025399815,268.51753126499534,None,268.5176022779997,268.51763946400024,None,268.5177233709983,268.5177508489942,None,36,001,15,,2024-04-22_16h47.32.499,replicate_nsd,2023.2.3,60.27137294335628,2024-04-22 16h47.48.623931 -0400,
images/image_252_seed_1.png,62,0,0,0,0,"[9, 19, 29, 39, 49, 59, 68, 69, 70, 71]",,,,,0,62,62,62,278.1313217959978,,,,,,,,,,,,,,,,,,,,,,,,,,,,,,,,,,,,,,,,,,,,268.51798317899375,268.5180490569983,268.51805718199466,268.53469758099527,None,0,None,268.5349762159967,268.5350145679986,None,268.53510268999526,268.5351494619972,None,268.53523919500003,268.53527382500033,None,36,001,15,,2024-04-22_16h47.32.499,replicate_nsd,2023.2.3,60.27137294335628,2024-04-22 16h47.48.623931 -0400,
images/image_661_seed_1.png,63,0,0,0,0,"[9, 19, 29, 39, 49, 59, 68, 69, 70, 71]",,,,,0,63,63,63,278.1313217959978,,,,,,,,,,,,,,,,,,,,,,,,,,,,,,,,,,,,,,,,,,,,268.53557134199946,268.535654239,268.5356644679996,268.5779573069958,None,0,None,268.57844225900044,268.578491758999,None,268.5786044879933,268.57866458499484,None,268.57877626599657,268.5788198309965,None,36,001,15,,2024-04-22_16h47.32.499,replicate_nsd,2023.2.3,60.27137294335628,2024-04-22 16h47.48.623931 -0400,
images/image_653_seed_1.png,64,0,0,0,0,"[9, 19, 29, 39, 49, 59, 68, 69, 70, 71]",,,,,0,64,64,64,278.1313217959978,,,,,,,,,,,,,,,,,,,,,,,,,,,,,,,,,,,,,,,,,,,,268.5792077299993,268.5793194709986,268.5793325849954,268.59743552199507,None,0,None,268.5976582469957,268.59768910300045,None,268.5977599789985,268.5977973129993,None,268.5978685309965,268.5978961009969,None,36,001,15,,2024-04-22_16h47.32.499,replicate_nsd,2023.2.3,60.27137294335628,2024-04-22 16h47.48.623931 -0400,
images/w_gym1.jpg,65,0,0,0,0,"[9, 19, 29, 39, 49, 59, 68, 69, 70, 71]",,,,,0,65,65,65,278.1313217959978,,,,,,,,,,,,,,,,,,,,,,,,,,,,,,,,,,,,,,,,,,,,268.59813172400027,268.5981999729993,268.598208479998,268.60302528499597,None,0,None,268.60325155499595,268.603282778,None,268.6033539189957,268.60339195299457,None,268.60346305399435,268.60349233499437,None,36,001,15,,2024-04-22_16h47.32.499,replicate_nsd,2023.2.3,60.27137294335628,2024-04-22 16h47.48.623931 -0400,
images/image_671_seed_1.png,66,0,0,0,0,"[9, 19, 29, 39, 49, 59, 68, 69, 70, 71]",,,,,0,66,66,66,278.1313217959978,,,,,,,,,,,,,,,,,,,,,,,,,,,,,,,,,,,,,,,,,,,,268.60372621799615,268.6037933039988,268.60380133099534,268.6218981209968,None,0,None,268.62209659999644,268.6221241210005,None,268.6221857279961,268.62221823699656,None,268.6222800599935,268.6223039949982,None,36,001,15,,2024-04-22_16h47.32.499,replicate_nsd,2023.2.3,60.27137294335628,2024-04-22 16h47.48.623931 -0400,
images/image_179_seed_1.png,67,0,0,0,0,"[9, 19, 29, 39, 49, 59, 68, 69, 70, 71]",,,,,0,67,67,67,278.1313217959978,,,,,,,,,,,,,,,,,,,,,,,,,,,,,,,,,,,,,,,,,,,,268.62251057200046,268.62256799999886,268.622575071,268.635667398994,None,0,None,268.63586997799575,268.6358964819956,None,268.63595820099727,268.6359907160004,None,268.63605257499876,268.63607610699546,None,36,001,15,,2024-04-22_16h47.32.499,replicate_nsd,2023.2.3,60.27137294335628,2024-04-22 16h47.48.623931 -0400,
blank.jpg,68,1,0,0,0,"[9, 19, 29, 39, 49, 59, 68, 69, 70, 71]",,,,,0,68,68,68,278.1313217959978,,,,,,,,,,,,,,,,,,,,,,,,,,,,,,,,,,,,,,,,,,,,268.6362776409951,268.6363349809981,268.636342136997,268.6389973089972,None,0,None,268.6391972059937,268.6392241739959,None,268.6392858609979,268.6393182190004,None,268.63938047999545,268.6394039239967,None,36,001,15,,2024-04-22_16h47.32.499,replicate_nsd,2023.2.3,60.27137294335628,2024-04-22 16h47.48.623931 -0400,
blank.jpg,69,1,0,0,0,"[9, 19, 29, 39, 49, 59, 68, 69, 70, 71]",,,,,0,69,69,69,278.1313217959978,,,,,,,,,,,,,,,,,,,,,,,,,,,,,,,,,,,,,,,,,,,,268.63960460700036,268.63966130599874,268.63966838999477,268.64164244999847,None,0,None,268.641836332994,268.6418624269936,None,268.64192275199457,268.64195495399326,None,268.64201767899795,268.6420411259969,None,36,001,15,,2024-04-22_16h47.32.499,replicate_nsd,2023.2.3,60.27137294335628,2024-04-22 16h47.48.623931 -0400,
blank.jpg,70,1,0,0,0,"[9, 19, 29, 39, 49, 59, 68, 69, 70, 71]",,,,,0,70,70,70,278.1313217959978,,,,,,,,,,,,,,,,,,,,,,,,,,,,,,,,,,,,,,,,,,,,268.64224264099903,268.64230075799424,268.6423078109947,268.6440166629982,None,0,None,268.64421762099664,268.6442439099992,None,268.64430566299416,268.64433755999926,None,268.6443997669994,268.64442303499527,None,36,001,15,,2024-04-22_16h47.32.499,replicate_nsd,2023.2.3,60.27137294335628,2024-04-22 16h47.48.623931 -0400,
blank.jpg,71,1,0,1,0,"[9, 19, 29, 39, 49, 59, 68, 69, 70, 71]",,,,,0,71,71,71,278.1313217959978,,,,,,,,,,,,,,,,,,,,,,,,,,,,,,,,,,,,,,,,,,,,268.64462254200043,268.6446801819984,268.64468710099754,268.64641774199845,None,0,None,268.6466119539982,268.64663878499414,None,268.6467078019996,268.64674081499834,None,268.6468037099985,268.64682727299805,None,36,001,15,,2024-04-22_16h47.32.499,replicate_nsd,2023.2.3,60.27137294335628,2024-04-22 16h47.48.623931 -0400,
images/image_440_seed_1.png,0,0,0,0,1,"[9, 19, 31, 42, 56, 68, 69, 70, 71]",,,,,0,72,72,72,278.1313217959978,,,,,,,,,,,,,,,,,,,,,,,,,,,,,,,,,,,,,,,,,,,,268.64702876899537,268.6470860279951,268.64709308599413,268.6615208899966,None,0,None,268.6617217879975,268.66174810699886,None,268.66181438499916,268.6618467609951,None,268.66190727499634,268.66193045599357,None,36,001,15,,2024-04-22_16h47.32.499,replicate_nsd,2023.2.3,60.27137294335628,2024-04-22 16h47.48.623931 -0400,
images/image_329_seed_1.png,1,0,0,0,1,"[9, 19, 31, 42, 56, 68, 69, 70, 71]",,,,,0,73,73,73,278.1313217959978,,,,,,,,,,,,,,,,,,,,,,,,,,,,,,,,,,,,,,,,,,,,268.66212634199474,268.66218286899675,268.6621897849982,268.6769671449947,None,0,None,268.6771590019998,268.6771860989975,None,268.67724626499694,268.67727807199844,None,268.67733916,268.677361971997,None,36,001,15,,2024-04-22_16h47.32.499,replicate_nsd,2023.2.3,60.27137294335628,2024-04-22 16h47.48.623931 -0400,
images/image_445_seed_1.png,2,0,0,0,1,"[9, 19, 31, 42, 56, 68, 69, 70, 71]",,,,,0,74,74,74,278.1313217959978,,,,,,,,,,,,,,,,,,,,,,,,,,,,,,,,,,,,,,,,,,,,268.67756121199636,268.677618417998,268.6776254459983,268.69264217199816,None,0,None,268.6929307129976,268.6929691579935,None,268.6930576960003,268.6931042219949,None,268.6931926729958,268.69322664499487,None,36,001,15,,2024-04-22_16h47.32.499,replicate_nsd,2023.2.3,60.27137294335628,2024-04-22 16h47.48.623931 -0400,
images/paired_image_41_2.png,3,0,0,0,1,"[9, 19, 31, 42, 56, 68, 69, 70, 71]",,,,,0,75,75,75,278.1313217959978,,,,,,,,,,,,,,,,,,,,,,,,,,,,,,,,,,,,,,,,,,,,268.6935163169983,268.6935986519966,268.69360895899445,268.7102068530003,None,0,None,268.71048578499904,268.71052521199454,None,268.7106134709975,268.7106600479965,None,268.7107481589992,268.71078259599744,None,36,001,15,,2024-04-22_16h47.32.499,replicate_nsd,2023.2.3,60.27137294335628,2024-04-22 16h47.48.623931 -0400,
images/image_623_seed_1.png,4,0,0,0,1,"[9, 19, 31, 42, 56, 68, 69, 70, 71]",,,,,0,76,76,76,278.1313217959978,,,,,,,,,,,,,,,,,,,,,,,,,,,,,,,,,,,,,,,,,,,,268.7110668259993,268.71115035899857,268.7111605769969,268.7276333289992,None,0,None,268.72791124399373,268.7279494599934,None,268.728038741996,268.7280939159973,None,268.7281906089993,268.72822555299354,None,36,001,15,,2024-04-22_16h47.32.499,replicate_nsd,2023.2.3,60.27137294335628,2024-04-22 16h47.48.623931 -0400,
images/image_53_seed_1.png,5,0,0,0,1,"[9, 19, 31, 42, 56, 68, 69, 70, 71]",,,,,0,77,77,77,278.1313217959978,,,,,,,,,,,,,,,,,,,,,,,,,,,,,,,,,,,,,,,,,,,,268.72851623199676,268.7285997769941,268.7286098889963,268.7438313169987,None,0,None,268.7440554040004,268.74408688299445,None,268.7441589949958,268.7441966569968,None,268.7442678239968,268.7442958699976,None,36,001,15,,2024-04-22_16h47.32.499,replicate_nsd,2023.2.3,60.27137294335628,2024-04-22 16h47.48.623931 -0400,
images/image_239_seed_1.png,6,0,0,0,1,"[9, 19, 31, 42, 56, 68, 69, 70, 71]",,,,,0,78,78,78,278.1313217959978,,,,,,,,,,,,,,,,,,,,,,,,,,,,,,,,,,,,,,,,,,,,268.7445264239941,268.7445929039968,268.74460119599826,268.76061910099816,None,0,None,268.7608431269982,268.7608740509968,None,268.7609455879938,268.7609827119959,None,268.7610541089962,268.7610813529973,None,36,001,15,,2024-04-22_16h47.32.499,replicate_nsd,2023.2.3,60.27137294335628,2024-04-22 16h47.48.623931 -0400,
images/image_659_seed_1.png,7,0,0,0,1,"[9, 19, 31, 42, 56, 68, 69, 70, 71]",,,,,0,79,79,79,278.1313217959978,,,,,,,,,,,,,,,,,,,,,,,,,,,,,,,,,,,,,,,,,,,,268.76132271799725,268.761389745996,268.76139798599615,268.7774186759998,None,0,None,268.7776978299953,268.7777360389955,None,268.7778242860004,268.7778709139966,None,268.7779609559948,268.7779947719973,None,36,001,15,,2024-04-22_16h47.32.499,replicate_nsd,2023.2.3,60.27137294335628,2024-04-22 16h47.48.623931 -0400,
images/image_734_seed_1.png,8,0,0,0,1,"[9, 19, 31, 42, 56, 68, 69, 70, 71]",,,,,0,80,80,80,278.1313217959978,,,,,,,,,,,,,,,,,,,,,,,,,,,,,,,,,,,,,,,,,,,,268.77828314199724,268.7783652519938,268.7783754349948,268.79362683199724,None,0,None,268.7939050479981,268.79394304599555,None,268.7940305439988,268.79407725199417,None,268.7941656539988,268.794199431999,None,36,001,15,,2024-04-22_16h47.32.499,replicate_nsd,2023.2.3,60.27137294335628,2024-04-22 16h47.48.623931 -0400,
blank.jpg,9,1,0,0,1,"[9, 19, 31, 42, 56, 68, 69, 70, 71]",,,,,0,81,81,81,278.1313217959978,,,,,,,,,,,,,,,,,,,,,,,,,,,,,,,,,,,,,,,,,,,,268.7944974799975,268.794580116999,268.7945905439992,268.7976679719941,None,0,None,268.7978928889934,268.79792355699465,None,268.7979947989952,268.79803654699936,None,268.79810959399765,268.7981373069997,None,36,001,15,,2024-04-22_16h47.32.499,replicate_nsd,2023.2.3,60.27137294335628,2024-04-22 16h47.48.623931 -0400,
images/image_388_seed_1.png,10,0,0,0,1,"[9, 19, 31, 42, 56, 68, 69, 70, 71]",,,,,0,82,82,82,278.1313217959978,,,,,,,,,,,,,,,,,,,,,,,,,,,,,,,,,,,,,,,,,,,,268.79836929599696,268.798435314995,268.79844344699814,268.8152458409968,None,0,None,268.8154690829979,268.8154993309945,None,268.81556940299924,268.8156064519935,None,268.8156766350003,268.8157036269986,None,36,001,15,,2024-04-22_16h47.32.499,replicate_nsd,2023.2.3,60.27137294335628,2024-04-22 16h47.48.623931 -0400,
images/image_512_seed_1.png,11,0,0,0,1,"[9, 19, 31, 42, 56, 68, 69, 70, 71]",,,,,0,83,83,83,278.1313217959978,,,,,,,,,,,,,,,,,,,,,,,,,,,,,,,,,,,,,,,,,,,,268.81593373099895,268.81600019899633,268.8160084129995,268.8336671509969,None,0,None,268.8340197419966,268.83406834999914,None,268.83418077199894,268.8342406919983,None,268.83435593999457,268.83439928999724,None,36,001,15,,2024-04-22_16h47.32.499,replicate_nsd,2023.2.3,60.27137294335628,2024-04-22 16h47.48.623931 -0400,
images/image_178_seed_1.png,12,0,0,0,1,"[9, 19, 31, 42, 56, 68, 69, 70, 71]",,,,,0,84,84,84,278.1313217959978,,,,,,,,,,,,,,,,,,,,,,,,,,,,,,,,,,,,,,,,,,,,268.834772066999,268.83493202599493,268.8349458399971,268.85335843199573,None,0,None,268.85363799199695,268.853676617,None,268.8537664749965,268.85381377999875,None,268.8539027719962,268.8539371769948,None,36,001,15,,2024-04-22_16h47.32.499,replicate_nsd,2023.2.3,60.27137294335628,2024-04-22 16h47.48.623931 -0400,
images/image_311_seed_1.png,13,0,0,0,1,"[9, 19, 31, 42, 56, 68, 69, 70, 71]",,,,,0,85,85,85,278.1313217959978,,,,,,,,,,,,,,,,,,,,,,,,,,,,,,,,,,,,,,,,,,,,268.8542260029935,268.85431071099447,268.8543211299984,268.87270608799736,None,0,None,268.87298437499703,268.87302374699357,None,268.8731129949956,268.873160420997,None,268.8732504179934,268.8732846629937,None,36,001,15,,2024-04-22_16h47.32.499,replicate_nsd,2023.2.3,60.27137294335628,2024-04-22 16h47.48.623931 -0400,
images/image_529_seed_1.png,14,0,0,0,1,"[9, 19, 31, 42, 56, 68, 69, 70, 71]",,,,,0,86,86,86,278.1313217959978,,,,,,,,,,,,,,,,,,,,,,,,,,,,,,,,,,,,,,,,,,,,268.87357461999636,268.87365727799624,268.87366764299804,268.8896440649987,None,0,None,268.8898668900001,268.88989718599623,None,268.8899687699959,268.8900064319969,None,268.89007783199486,268.89010576399596,None,36,001,15,,2024-04-22_16h47.32.499,replicate_nsd,2023.2.3,60.27137294335628,2024-04-22 16h47.48.623931 -0400,
images/image_572_seed_1.png,15,0,0,0,1,"[9, 19, 31, 42, 56, 68, 69, 70, 71]",,,,,0,87,87,87,278.1313217959978,,,,,,,,,,,,,,,,,,,,,,,,,,,,,,,,,,,,,,,,,,,,268.8903383739962,268.89040450199536,268.8904128139984,268.90589171799365,None,0,None,268.90611601499404,268.90614669599745,None,268.90621749300044,268.90625469199585,None,268.90632599499804,268.90635340199515,None,36,001,15,,2024-04-22_16h47.32.499,replicate_nsd,2023.2.3,60.27137294335628,2024-04-22 16h47.48.623931 -0400,
images/image_58_seed_1.png,16,0,0,0,1,"[9, 19, 31, 42, 56, 68, 69, 70, 71]",,,,,0,88,88,88,278.1313217959978,,,,,,,,,,,,,,,,,,,,,,,,,,,,,,,,,,,,,,,,,,,,268.90658581299795,268.9066528339972,268.90666117199726,268.9225590679998,None,0,None,268.9230425860005,268.92309074099467,None,268.9232016709939,268.9232600079995,None,268.9233710779954,268.92341370099894,None,36,001,15,,2024-04-22_16h47.32.499,replicate_nsd,2023.2.3,60.27137294335628,2024-04-22 16h47.48.623931 -0400,
images/image_254_seed_1.png,17,0,0,0,1,"[9, 19, 31, 42, 56, 68, 69, 70, 71]",,,,,0,89,89,89,278.1313217959978,,,,,,,,,,,,,,,,,,,,,,,,,,,,,,,,,,,,,,,,,,,,268.9237755379945,268.92388043199753,268.92389341099624,268.9407994639987,None,0,None,268.9410745619971,268.9411129250002,None,268.9412028359948,268.9412495719953,None,268.9413388499961,268.94137319699803,None,36,001,15,,2024-04-22_16h47.32.499,replicate_nsd,2023.2.3,60.27137294335628,2024-04-22 16h47.48.623931 -0400,
images/image_349_seed_1.png,18,0,0,0,1,"[9, 19, 31, 42, 56, 68, 69, 70, 71]",,,,,0,90,90,90,278.1313217959978,,,,,,,,,,,,,,,,,,,,,,,,,,,,,,,,,,,,,,,,,,,,268.94166395199863,268.94174667699554,268.94175727099355,268.9600527779985,None,0,None,268.96033373200044,268.96037184399756,None,268.96046049199504,268.96050766400003,None,268.9605971379933,268.96063139599573,None,36,001,15,,2024-04-22_16h47.32.499,replicate_nsd,2023.2.3,60.27137294335628,2024-04-22 16h47.48.623931 -0400,
blank.jpg,19,1,0,0,1,"[9, 19, 31, 42, 56, 68, 69, 70, 71]",,,,,0,91,91,91,278.1313217959978,,,,,,,,,,,,,,,,,,,,,,,,,,,,,,,,,,,,,,,,,,,,268.96092031099397,268.96104488999845,268.961055543994,268.9644367189976,None,0,None,268.9647134919942,268.9647523169988,None,268.96484057899943,268.9648870989986,None,268.9649762199988,268.96501024499594,None,36,001,15,,2024-04-22_16h47.32.499,replicate_nsd,2023.2.3,60.27137294335628,2024-04-22 16h47.48.623931 -0400,
images/image_365_seed_1.png,20,0,0,0,1,"[9, 19, 31, 42, 56, 68, 69, 70, 71]",,,,,0,92,92,92,278.1313217959978,,,,,,,,,,,,,,,,,,,,,,,,,,,,,,,,,,,,,,,,,,,,268.9653108499988,268.9653955839967,268.96540601299785,268.9814053109949,None,0,None,268.9816281619933,268.98165906399663,None,268.9817297539994,268.9817669289987,None,268.98183837899705,268.9818656579955,None,36,001,15,,2024-04-22_16h47.32.499,replicate_nsd,2023.2.3,60.27137294335628,2024-04-22 16h47.48.623931 -0400,
images/image_532_seed_1.png,21,0,0,0,1,"[9, 19, 31, 42, 56, 68, 69, 70, 71]",,,,,0,93,93,93,278.1313217959978,,,,,,,,,,,,,,,,,,,,,,,,,,,,,,,,,,,,,,,,,,,,268.9820970429937,268.98216447899904,268.9821725899965,268.9980724209963,None,0,None,268.9982634159969,268.9982904999997,None,268.99835145799443,268.9983839369961,None,268.9984449919939,268.99846841999533,None,36,001,15,,2024-04-22_16h47.32.499,replicate_nsd,2023.2.3,60.27137294335628,2024-04-22 16h47.48.623931 -0400,
images/13_44.png,22,0,0,0,1,"[9, 19, 31, 42, 56, 68, 69, 70, 71]",,,,,0,94,94,94,278.1313217959978,,,,,,,,,,,,,,,,,,,,,,,,,,,,,,,,,,,,,,,,,,,,268.9986691169979,268.9987269119956,268.9987340939988,269.0076525080003,None,0,None,269.00793320999946,269.0079723259987,None,269.0080634919941,269.00811046799936,None,269.00820071999624,269.00823500199476,None,36,001,15,,2024-04-22_16h47.32.499,replicate_nsd,2023.2.3,60.27137294335628,2024-04-22 16h47.48.623931 -0400,
images/image_611_seed_1.png,23,0,0,0,1,"[9, 19, 31, 42, 56, 68, 69, 70, 71]",,,,,0,95,95,95,278.1313217959978,,,,,,,,,,,,,,,,,,,,,,,,,,,,,,,,,,,,,,,,,,,,269.0085249949989,269.0086084659997,269.0086187699999,269.0256109979964,None,0,None,269.0258338079948,269.02586443299515,None,269.02593504799734,269.025972397998,None,269.02604327099834,269.0260704350003,None,36,001,15,,2024-04-22_16h47.32.499,replicate_nsd,2023.2.3,60.27137294335628,2024-04-22 16h47.48.623931 -0400,
images/image_369_seed_1.png,24,0,0,0,1,"[9, 19, 31, 42, 56, 68, 69, 70, 71]",,,,,0,96,96,96,278.1313217959978,,,,,,,,,,,,,,,,,,,,,,,,,,,,,,,,,,,,,,,,,,,,269.0263019549966,269.02636898099445,269.02637707999384,269.0426116870003,None,0,None,269.0428367239947,269.04286732699984,None,269.04293796199636,269.042975862998,None,269.043047248997,269.0430772279942,None,36,001,15,,2024-04-22_16h47.32.499,replicate_nsd,2023.2.3,60.27137294335628,2024-04-22 16h47.48.623931 -0400,
images/image_56_seed_1.png,25,0,0,0,1,"[9, 19, 31, 42, 56, 68, 69, 70, 71]",,,,,0,97,97,97,278.1313217959978,,,,,,,,,,,,,,,,,,,,,,,,,,,,,,,,,,,,,,,,,,,,269.0433106059936,269.04337817999476,269.04338640999777,269.0587580959982,None,0,None,269.05903785799455,269.0590769659975,None,269.0591659559941,269.0592127119962,None,269.059302706999,269.0593364889937,None,36,001,15,,2024-04-22_16h47.32.499,replicate_nsd,2023.2.3,60.27137294335628,2024-04-22 16h47.48.623931 -0400,
images/image_41_seed_1.png,26,0,0,0,1,"[9, 19, 31, 42, 56, 68, 69, 70, 71]",,,,,0,98,98,98,278.1313217959978,,,,,,,,,,,,,,,,,,,,,,,,,,,,,,,,,,,,,,,,,,,,269.05962654799805,269.0597105019988,269.0597206379971,269.07427084899973,None,0,None,269.0744643959988,269.07449069599534,None,269.07455235899397,269.0746082139958,None,269.07467026700033,269.0746936199939,None,36,001,15,,2024-04-22_16h47.32.499,replicate_nsd,2023.2.3,60.27137294335628,2024-04-22 16h47.48.623931 -0400,
images/image_694_seed_1.png,27,0,0,0,1,"[9, 19, 31, 42, 56, 68, 69, 70, 71]",,,,,0,99,99,99,278.1313217959978,,,,,,,,,,,,,,,,,,,,,,,,,,,,,,,,,,,,,,,,,,,,269.07492022399674,269.07497861099546,269.074985661995,269.0908040519935,None,0,None,269.0910833999951,269.09112194499903,None,269.0912096269967,269.09125585699803,None,269.09134511199954,269.0913791999992,None,36,001,15,,2024-04-22_16h47.32.499,replicate_nsd,2023.2.3,60.27137294335628,2024-04-22 16h47.48.623931 -0400,
images/image_470_seed_1.png,28,0,0,0,1,"[9, 19, 31, 42, 56, 68, 69, 70, 71]",,,,,0,100,100,100,278.1313217959978,,,,,,,,,,,,,,,,,,,,,,,,,,,,,,,,,,,,,,,,,,,,269.0916684399999,269.0917519209979,269.0917618869935,269.10705311499623,None,0,None,269.1072453509987,269.1072720669981,None,269.10733310700016,269.10736574699695,None,269.1074277869993,269.1074513529966,None,36,001,15,,2024-04-22_16h47.32.499,replicate_nsd,2023.2.3,60.27137294335628,2024-04-22 16h47.48.623931 -0400,
images/image_110_seed_1.png,29,0,0,0,1,"[9, 19, 31, 42, 56, 68, 69, 70, 71]",,,,,0,101,101,101,278.1313217959978,,,,,,,,,,,,,,,,,,,,,,,,,,,,,,,,,,,,,,,,,,,,269.1076504349985,269.1077090519975,269.1077162999936,269.1217781089945,None,0,None,269.12200423999457,269.12203492599656,None,269.12210579999373,269.122143073997,None,269.12221374299406,269.1222407969981,None,36,001,15,,2024-04-22_16h47.32.499,replicate_nsd,2023.2.3,60.27137294335628,2024-04-22 16h47.48.623931 -0400,
images/image_223_seed_1.png,30,0,0,0,1,"[9, 19, 31, 42, 56, 68, 69, 70, 71]",,,,,0,102,102,102,278.1313217959978,,,,,,,,,,,,,,,,,,,,,,,,,,,,,,,,,,,,,,,,,,,,269.1224731349939,269.12254265899537,269.1225510009972,269.13822751800035,None,0,None,269.1385078969979,269.13854694199836,None,269.13863574999414,269.13868322399503,None,269.13877164699807,269.13880600099947,None,36,001,15,,2024-04-22_16h47.32.499,replicate_nsd,2023.2.3,60.27137294335628,2024-04-22 16h47.48.623931 -0400,
blank.jpg,31,1,0,0,1,"[9, 19, 31, 42, 56, 68, 69, 70, 71]",,,,,0,103,103,103,278.1313217959978,,,,,,,,,,,,,,,,,,,,,,,,,,,,,,,,,,,,,,,,,,,,269.13909847899777,269.1391840119977,269.13919414399425,269.1422832219978,None,0,None,269.14250709399494,269.1425379249995,None,269.1426096929936,269.14264717299375,None,269.1427179819948,269.14274594399467,None,36,001,15,,2024-04-22_16h47.32.499,replicate_nsd,2023.2.3,60.27137294335628,2024-04-22 16h47.48.623931 -0400,
images/image_574_seed_1.png,32,0,0,0,1,"[9, 19, 31, 42, 56, 68, 69, 70, 71]",,,,,0,104,104,104,278.1313217959978,,,,,,,,,,,,,,,,,,,,,,,,,,,,,,,,,,,,,,,,,,,,269.1429785149958,269.14304688300035,269.14305496199813,269.15878566699394,None,0,None,269.15901027799555,269.1590410209974,None,269.1591126429994,269.1591503849995,None,269.1592216499994,269.1592491909978,None,36,001,15,,2024-04-22_16h47.32.499,replicate_nsd,2023.2.3,60.27137294335628,2024-04-22 16h47.48.623931 -0400,
images/image_7_seed_1.png,33,0,0,0,1,"[9, 19, 31, 42, 56, 68, 69, 70, 71]",,,,,0,105,105,105,278.1313217959978,,,,,,,,,,,,,,,,,,,,,,,,,,,,,,,,,,,,,,,,,,,,269.15949001499393,269.1595579979985,269.1595662309992,269.1757628559935,None,0,None,269.17598828599876,269.17601973399724,None,269.1760922319954,269.1761299829959,None,269.1762015389977,269.17622895599925,None,36,001,15,,2024-04-22_16h47.32.499,replicate_nsd,2023.2.3,60.27137294335628,2024-04-22 16h47.48.623931 -0400,
images/15_44.png,34,0,0,0,1,"[9, 19, 31, 42, 56, 68, 69, 70, 71]",,,,,0,106,106,106,278.1313217959978,,,,,,,,,,,,,,,,,,,,,,,,,,,,,,,,,,,,,,,,,,,,269.1764653439968,269.17653285299457,269.1765411029992,269.184807120997,None,0,None,269.18503248399793,269.18506348699884,None,269.18513481499394,269.1851725949964,None,269.18524413499836,269.18527147599525,None,36,001,15,,2024-04-22_16h47.32.499,replicate_nsd,2023.2.3,60.27137294335628,2024-04-22 16h47.48.623931 -0400,
images/image_639_seed_1.png,35,0,0,0,1,"[9, 19, 31, 42, 56, 68, 69, 70, 71]",,,,,0,107,107,107,278.1313217959978,,,,,,,,,,,,,,,,,,,,,,,,,,,,,,,,,,,,,,,,,,,,269.18550395999773,269.1855714689955,269.18557965899527,269.2013728019956,None,0,None,269.20156374199723,269.2015902899948,None,269.20165061799344,269.20168328999716,None,269.2017440339987,269.201767914994,None,36,001,15,,2024-04-22_16h47.32.499,replicate_nsd,2023.2.3,60.27137294335628,2024-04-22 16h47.48.623931 -0400,
images/19_56.png,36,0,0,0,1,"[9, 19, 31, 42, 56, 68, 69, 70, 71]",,,,,0,108,108,108,278.1313217959978,,,,,,,,,,,,,,,,,,,,,,,,,,,,,,,,,,,,,,,,,,,,269.20196840899735,269.2020264419989,269.20203347200004,269.2090218019948,None,0,None,269.2092127379947,269.20923963899986,None,269.2093006349969,269.2093326699978,None,269.2093937689933,269.2094177819963,None,36,001,15,,2024-04-22_16h47.32.499,replicate_nsd,2023.2.3,60.27137294335628,2024-04-22 16h47.48.623931 -0400,
images/image_558_seed_1.png,37,0,0,0,1,"[9, 19, 31, 42, 56, 68, 69, 70, 71]",,,,,0,109,109,109,278.1313217959978,,,,,,,,,,,,,,,,,,,,,,,,,,,,,,,,,,,,,,,,,,,,269.20961709199764,269.2096747339965,269.20968181499484,269.2243905119976,None,0,None,269.2245822479963,269.2246089439941,None,269.2246693099951,269.2247019419956,None,269.2247623949952,269.2247852539949,None,36,001,15,,2024-04-22_16h47.32.499,replicate_nsd,2023.2.3,60.27137294335628,2024-04-22 16h47.48.623931 -0400,
images/image_224_seed_1.png,38,0,0,0,1,"[9, 19, 31, 42, 56, 68, 69, 70, 71]",,,,,0,110,110,110,278.1313217959978,,,,,,,,,,,,,,,,,,,,,,,,,,,,,,,,,,,,,,,,,,,,269.2249838489952,269.22504175799986,269.2250487249985,269.2399040329983,None,0,None,269.2401270919945,269.2401583299943,None,269.2402301109978,269.2402675459962,None,269.24033852499997,269.2403659299962,None,36,001,15,,2024-04-22_16h47.32.499,replicate_nsd,2023.2.3,60.27137294335628,2024-04-22 16h47.48.623931 -0400,
images/image_233_seed_1.png,39,0,1,0,1,"[9, 19, 31, 42, 56, 68, 69, 70, 71]",,,,,0,111,111,111,278.1313217959978,,,,,,,,,,,,,,,,,,,,,,,,,,,,,,,,,,,,,,,,,,,,269.24059784299607,269.24066471699916,269.24067271999957,269.254416456999,None,0,None,269.2546409159986,269.25467228399793,None,269.2547440339986,269.25478209399444,None,269.2548526299943,269.25488024699735,None,36,001,15,,2024-04-22_16h47.32.499,replicate_nsd,2023.2.3,60.27137294335628,2024-04-22 16h47.48.623931 -0400,
images/image_729_seed_1.png,40,0,0,0,1,"[9, 19, 31, 42, 56, 68, 69, 70, 71]",,,,,0,112,112,112,278.1313217959978,,,,,,,,,,,,,,,,,,,,,,,,,,,,,,,,,,,,,,,,,,,,269.25511343299877,269.25518230799935,269.25519067899586,269.2706810549935,None,0,None,269.27095816699875,269.27099733799696,None,269.27108629999566,269.2711334459964,None,269.2712229239987,269.2712572389937,None,36,001,15,,2024-04-22_16h47.32.499,replicate_nsd,2023.2.3,60.27137294335628,2024-04-22 16h47.48.623931 -0400,
images/w_escalator1.jpg,41,0,0,0,1,"[9, 19, 31, 42, 56, 68, 69, 70, 71]",,,,,0,113,113,113,278.1313217959978,,,,,,,,,,,,,,,,,,,,,,,,,,,,,,,,,,,,,,,,,,,,269.2715457489976,269.2716287160001,269.27163917699363,269.27743568799633,None,0,None,269.2777182239952,269.2778474489969,None,269.27793949199986,269.2779873659965,None,269.2780770679965,269.2781114169993,None,36,001,15,,2024-04-22_16h47.32.499,replicate_nsd,2023.2.3,60.27137294335628,2024-04-22 16h47.48.623931 -0400,
blank.jpg,42,1,0,0,1,"[9, 19, 31, 42, 56, 68, 69, 70, 71]",,,,,0,114,114,114,278.1313217959978,,,,,,,,,,,,,,,,,,,,,,,,,,,,,,,,,,,,,,,,,,,,269.2783990059979,269.2784830849996,269.27849332799815,269.2810943769946,None,0,None,269.2813157959972,269.2813463040002,None,269.2814619189958,269.2814999809998,None,269.28157161899435,269.28159929799585,None,36,001,15,,2024-04-22_16h47.32.499,replicate_nsd,2023.2.3,60.27137294335628,2024-04-22 16h47.48.623931 -0400,
images/image_715_seed_1.png,43,0,0,0,1,"[9, 19, 31, 42, 56, 68, 69, 70, 71]",,,,,0,115,115,115,278.1313217959978,,,,,,,,,,,,,,,,,,,,,,,,,,,,,,,,,,,,,,,,,,,,269.28183186999377,269.28189853599906,269.2819067389937,269.29873062699335,None,0,None,269.2989648839939,269.29899643399403,None,269.2990665509933,269.2991060200002,None,269.29917620999913,269.2992038159937,None,36,001,15,,2024-04-22_16h47.32.499,replicate_nsd,2023.2.3,60.27137294335628,2024-04-22 16h47.48.623931 -0400,
images/image_437_seed_1.png,44,0,0,0,1,"[9, 19, 31, 42, 56, 68, 69, 70, 71]",,,,,0,116,116,116,278.1313217959978,,,,,,,,,,,,,,,,,,,,,,,,,,,,,,,,,,,,,,,,,,,,269.2994466339951,269.2995194260002,269.2995277039954,269.3159862439934,None,0,None,269.31620934999955,269.3162403030001,None,269.31631122499675,269.3163491479936,None,269.3164204860004,269.31644770199637,None,36,001,15,,2024-04-22_16h47.32.499,replicate_nsd,2023.2.3,60.27137294335628,2024-04-22 16h47.48.623931 -0400,
images/image_279_seed_1.png,45,0,0,0,1,"[9, 19, 31, 42, 56, 68, 69, 70, 71]",,,,,0,117,117,117,278.1313217959978,,,,,,,,,,,,,,,,,,,,,,,,,,,,,,,,,,,,,,,,,,,,269.31667995599855,269.3167490669948,269.3167573659957,269.3326253169944,None,0,None,269.33284729799925,269.3328781329983,None,269.3329483839989,269.33298547199956,None,269.33305648599344,269.3330838339971,None,36,001,15,,2024-04-22_16h47.32.499,replicate_nsd,2023.2.3,60.27137294335628,2024-04-22 16h47.48.623931 -0400,
images/image_143_seed_1.png,46,0,0,0,1,"[9, 19, 31, 42, 56, 68, 69, 70, 71]",,,,,0,118,118,118,278.1313217959978,,,,,,,,,,,,,,,,,,,,,,,,,,,,,,,,,,,,,,,,,,,,269.3333150939943,269.33338350199483,269.3333915740004,269.34894994899514,None,0,None,269.3491689349976,269.3491997139936,None,269.34926915899996,269.349312843995,None,269.34938438199606,269.3494116629954,None,36,001,15,,2024-04-22_16h47.32.499,replicate_nsd,2023.2.3,60.27137294335628,2024-04-22 16h47.48.623931 -0400,
images/image_230_seed_1.png,47,0,0,0,1,"[9, 19, 31, 42, 56, 68, 69, 70, 71]",,,,,0,119,119,119,278.1313217959978,,,,,,,,,,,,,,,,,,,,,,,,,,,,,,,,,,,,,,,,,,,,269.3496404089965,269.349707895999,269.34971603299346,269.3634045949948,None,0,None,269.36362391599687,269.3636543350003,None,269.36372383999696,269.36376737200044,None,269.3638398019975,269.36386683699675,None,36,001,15,,2024-04-22_16h47.32.499,replicate_nsd,2023.2.3,60.27137294335628,2024-04-22 16h47.48.623931 -0400,
images/image_456_seed_1.png,48,0,0,0,1,"[9, 19, 31, 42, 56, 68, 69, 70, 71]",,,,,0,120,120,120,278.1313217959978,,,,,,,,,,,,,,,,,,,,,,,,,,,,,,,,,,,,,,,,,,,,269.36410716200044,269.3641740519961,269.3641820939956,269.3783736089972,None,0,None,269.37859541799844,269.3786268289987,None,269.37869593899813,269.3787339739938,None,269.3788048899951,269.37883276199864,None,36,001,15,,2024-04-22_16h47.32.499,replicate_nsd,2023.2.3,60.27137294335628,2024-04-22 16h47.48.623931 -0400,
images/12_0.png,49,0,0,0,1,"[9, 19, 31, 42, 56, 68, 69, 70, 71]",,,,,0,121,121,121,278.1313217959978,,,,,,,,,,,,,,,,,,,,,,,,,,,,,,,,,,,,,,,,,,,,269.3790656199999,269.3791702649978,269.3791788449962,269.38620057499793,None,0,None,269.3863889089989,269.38641541799734,None,269.38647553199553,269.38650860099733,None,269.3865687180005,269.38659221599664,None,36,001,15,,2024-04-22_16h47.32.499,replicate_nsd,2023.2.3,60.27137294335628,2024-04-22 16h47.48.623931 -0400,
images/image_292_seed_1.png,50,0,0,0,1,"[9, 19, 31, 42, 56, 68, 69, 70, 71]",,,,,0,122,122,122,278.1313217959978,,,,,,,,,,,,,,,,,,,,,,,,,,,,,,,,,,,,,,,,,,,,269.3867903049977,269.3868496859941,269.3868569289989,269.4025940069987,None,0,None,269.4028951329965,269.4029424420005,None,269.40304804599873,269.4031060989946,None,269.40321211599803,269.403260371997,None,36,001,15,,2024-04-22_16h47.32.499,replicate_nsd,2023.2.3,60.27137294335628,2024-04-22 16h47.48.623931 -0400,
images/image_721_seed_1.png,51,0,0,0,1,"[9, 19, 31, 42, 56, 68, 69, 70, 71]",,,,,0,123,123,123,278.1313217959978,,,,,,,,,,,,,,,,,,,,,,,,,,,,,,,,,,,,,,,,,,,,269.4036153959969,269.403719858994,269.40373234499566,269.41936443599843,None,0,None,269.4195522480004,269.4195783299947,None,269.4196383169983,269.41967044399644,None,269.4197307049981,269.41975375599577,None,36,001,15,,2024-04-22_16h47.32.499,replicate_nsd,2023.2.3,60.27137294335628,2024-04-22 16h47.48.623931 -0400,
images/image_148_seed_1.png,52,0,0,0,1,"[9, 19, 31, 42, 56, 68, 69, 70, 71]",,,,,0,124,124,124,278.1313217959978,,,,,,,,,,,,,,,,,,,,,,,,,,,,,,,,,,,,,,,,,,,,269.4199501589974,269.4200086389974,269.4200156749939,269.43498404899583,None,0,None,269.4352629099958,269.43530069199915,None,269.4353859459952,269.4354356019976,None,269.43552248299966,269.4355559539981,None,36,001,15,,2024-04-22_16h47.32.499,replicate_nsd,2023.2.3,60.27137294335628,2024-04-22 16h47.48.623931 -0400,
images/image_155_seed_1.png,53,0,0,0,1,"[9, 19, 31, 42, 56, 68, 69, 70, 71]",,,,,0,125,125,125,278.1313217959978,,,,,,,,,,,,,,,,,,,,,,,,,,,,,,,,,,,,,,,,,,,,269.4358371339986,269.43592092299514,269.4359311859953,269.4545939429954,None,0,None,269.4548144820001,269.4548457879937,None,269.45491620199755,269.4549539429936,None,269.45502451999346,269.4550513579961,None,36,001,15,,2024-04-22_16h47.32.499,replicate_nsd,2023.2.3,60.27137294335628,2024-04-22 16h47.48.623931 -0400,
images/image_628_seed_1.png,54,0,0,0,1,"[9, 19, 31, 42, 56, 68, 69, 70, 71]",,,,,0,126,126,126,278.1313217959978,,,,,,,,,,,,,,,,,,,,,,,,,,,,,,,,,,,,,,,,,,,,269.45528468599514,269.4553523439972,269.4553607649941,269.469206501999,None,0,None,269.46944755399454,269.4694759829945,None,269.4695406089959,269.46957481199934,None,269.4696392929982,269.4696650689948,None,36,001,15,,2024-04-22_16h47.32.499,replicate_nsd,2023.2.3,60.27137294335628,2024-04-22 16h47.48.623931 -0400,
images/image_468_seed_1.png,55,0,0,0,1,"[9, 19, 31, 42, 56, 68, 69, 70, 71]",,,,,0,127,127,127,278.1313217959978,,,,,,,,,,,,,,,,,,,,,,,,,,,,,,,,,,,,,,,,,,,,269.46986637399823,269.46995430399693,269.4699616889993,269.4858656449942,None,0,None,269.4860546579948,269.4860808569938,None,269.4861402530005,269.48617200799345,None,269.48623220499576,269.48625566499686,None,36,001,15,,2024-04-22_16h47.32.499,replicate_nsd,2023.2.3,60.27137294335628,2024-04-22 16h47.48.623931 -0400,
blank.jpg,56,1,0,0,1,"[9, 19, 31, 42, 56, 68, 69, 70, 71]",,,,,0,128,128,128,278.1313217959978,,,,,,,,,,,,,,,,,,,,,,,,,,,,,,,,,,,,,,,,,,,,269.48645476199454,269.4865135869986,269.48652064299677,269.48919816199486,None,0,None,269.4893870550004,269.48941373999696,None,269.48947366999346,269.48950582699763,None,269.4895659239992,269.48958946099447,None,36,001,15,,2024-04-22_16h47.32.499,replicate_nsd,2023.2.3,60.27137294335628,2024-04-22 16h47.48.623931 -0400,
images/image_450_seed_1.png,57,0,0,0,1,"[9, 19, 31, 42, 56, 68, 69, 70, 71]",,,,,0,129,129,129,278.1313217959978,,,,,,,,,,,,,,,,,,,,,,,,,,,,,,,,,,,,,,,,,,,,269.48978735599667,269.48984666699835,269.4898536949986,269.5051564329988,None,0,None,269.50537631099724,269.5054069189937,None,269.5054767709953,269.5055141569974,None,269.5055843339942,269.50561108799593,None,36,001,15,,2024-04-22_16h47.32.499,replicate_nsd,2023.2.3,60.27137294335628,2024-04-22 16h47.48.623931 -0400,
images/image_596_seed_1.png,58,0,0,0,1,"[9, 19, 31, 42, 56, 68, 69, 70, 71]",,,,,0,130,130,130,278.1313217959978,,,,,,,,,,,,,,,,,,,,,,,,,,,,,,,,,,,,,,,,,,,,269.50583964799443,269.50590708699747,269.5059154549963,269.5229819499946,None,0,None,269.5232025199948,269.52323324199824,None,269.5233038229999,269.5233416159972,None,269.52341325199814,269.5234403929935,None,36,001,15,,2024-04-22_16h47.32.499,replicate_nsd,2023.2.3,60.27137294335628,2024-04-22 16h47.48.623931 -0400,
images/image_26_seed_1.png,59,0,0,0,1,"[9, 19, 31, 42, 56, 68, 69, 70, 71]",,,,,0,131,131,131,278.1313217959978,,,,,,,,,,,,,,,,,,,,,,,,,,,,,,,,,,,,,,,,,,,,269.5236713209961,269.5237395249933,269.52374769000016,269.5391392129968,None,0,None,269.53941035299795,269.53944876899914,None,269.53953552099847,269.5395822529972,None,269.539670113998,269.5397037779985,None,36,001,15,,2024-04-22_16h47.32.499,replicate_nsd,2023.2.3,60.27137294335628,2024-04-22 16h47.48.623931 -0400,
images/image_710_seed_1.png,60,0,0,0,1,"[9, 19, 31, 42, 56, 68, 69, 70, 71]",,,,,0,132,132,132,278.1313217959978,,,,,,,,,,,,,,,,,,,,,,,,,,,,,,,,,,,,,,,,,,,,269.5399906349994,269.54007445499883,269.54008481799974,269.5587499569956,None,0,None,269.5589706319952,269.5590017509967,None,269.5590721619956,269.5591093779949,None,269.5591793450003,269.55920678999973,None,36,001,15,,2024-04-22_16h47.32.499,replicate_nsd,2023.2.3,60.27137294335628,2024-04-22 16h47.48.623931 -0400,
images/image_557_seed_1.png,61,0,0,0,1,"[9, 19, 31, 42, 56, 68, 69, 70, 71]",,,,,0,133,133,133,278.1313217959978,,,,,,,,,,,,,,,,,,,,,,,,,,,,,,,,,,,,,,,,,,,,269.55943848999596,269.5595053340003,269.5595137889977,269.5724480939971,None,0,None,269.572637114994,269.572663439998,None,269.57272326499515,269.57275504899735,None,269.5728149939969,269.5728388159987,None,36,001,15,,2024-04-22_16h47.32.499,replicate_nsd,2023.2.3,60.27137294335628,2024-04-22 16h47.48.623931 -0400,
images/image_641_seed_1.png,62,0,0,0,1,"[9, 19, 31, 42, 56, 68, 69, 70, 71]",,,,,0,134,134,134,278.1313217959978,,,,,,,,,,,,,,,,,,,,,,,,,,,,,,,,,,,,,,,,,,,,269.57307719999517,269.5731349130001,269.57314219799446,269.5888352289985,None,0,None,269.5890528929958,269.5890836529943,None,269.5891535539995,269.58919092799624,None,269.5892612509997,269.58928834699327,None,36,001,15,,2024-04-22_16h47.32.499,replicate_nsd,2023.2.3,60.27137294335628,2024-04-22 16h47.48.623931 -0400,
images/image_449_seed_1.png,63,0,0,0,1,"[9, 19, 31, 42, 56, 68, 69, 70, 71]",,,,,0,135,135,135,278.1313217959978,,,,,,,,,,,,,,,,,,,,,,,,,,,,,,,,,,,,,,,,,,,,269.5895170299991,269.58958394100046,269.5895922749987,269.6053041339983,None,0,None,269.60557634999714,269.6056141569934,None,269.60570117699535,269.6057479739975,None,269.60583519999636,269.6058690919963,None,36,001,15,,2024-04-22_16h47.32.499,replicate_nsd,2023.2.3,60.27137294335628,2024-04-22 16h47.48.623931 -0400,
images/image_317_seed_1.png,64,0,0,0,1,"[9, 19, 31, 42, 56, 68, 69, 70, 71]",,,,,0,136,136,136,278.1313217959978,,,,,,,,,,,,,,,,,,,,,,,,,,,,,,,,,,,,,,,,,,,,269.6061553759937,269.60624001499673,269.60625027999777,269.6210882079977,None,0,None,269.6213618499969,269.6213999659958,None,269.62148772399814,269.62153517199476,None,269.62162303199875,269.6216570069955,None,36,001,15,,2024-04-22_16h47.32.499,replicate_nsd,2023.2.3,60.27137294335628,2024-04-22 16h47.48.623931 -0400,
images/image_213_seed_1.png,65,0,0,0,1,"[9, 19, 31, 42, 56, 68, 69, 70, 71]",,,,,0,137,137,137,278.1313217959978,,,,,,,,,,,,,,,,,,,,,,,,,,,,,,,,,,,,,,,,,,,,269.62194349499623,269.6220280790003,269.6220382939937,269.6380891689987,None,0,None,269.63836102099594,269.6383987969966,None,269.6384859089958,269.6385323699942,None,269.6386200009947,269.638653820999,None,36,001,15,,2024-04-22_16h47.32.499,replicate_nsd,2023.2.3,60.27137294335628,2024-04-22 16h47.48.623931 -0400,
images/image_93_seed_1.png,66,0,0,0,1,"[9, 19, 31, 42, 56, 68, 69, 70, 71]",,,,,0,138,138,138,278.1313217959978,,,,,,,,,,,,,,,,,,,,,,,,,,,,,,,,,,,,,,,,,,,,269.6389381339977,269.6390216699947,269.63903183599905,269.653598633995,None,0,None,269.65387329799705,269.653911591995,None,269.6539983939947,269.65404358499654,None,269.65413050099596,269.65416437599924,None,36,001,15,,2024-04-22_16h47.32.499,replicate_nsd,2023.2.3,60.27137294335628,2024-04-22 16h47.48.623931 -0400,
images/image_561_seed_1.png,67,0,0,0,1,"[9, 19, 31, 42, 56, 68, 69, 70, 71]",,,,,0,139,139,139,278.1313217959978,,,,,,,,,,,,,,,,,,,,,,,,,,,,,,,,,,,,,,,,,,,,269.6544493209949,269.65453367900045,269.65454413599946,269.6719114709995,None,0,None,269.6721838569938,269.672221625995,None,269.67230846799794,269.67235552299826,None,269.6724429339956,269.6724768579952,None,36,001,15,,2024-04-22_16h47.32.499,replicate_nsd,2023.2.3,60.27137294335628,2024-04-22 16h47.48.623931 -0400,
blank.jpg,68,1,0,0,1,"[9, 19, 31, 42, 56, 68, 69, 70, 71]",,,,,0,140,140,140,278.1313217959978,,,,,,,,,,,,,,,,,,,,,,,,,,,,,,,,,,,,,,,,,,,,269.67276363999554,269.6728472929972,269.67285761699895,269.6759359469943,None,0,None,269.6761560129962,269.67618712999683,None,269.67625642899657,269.6762940099943,None,269.6763643419981,269.676392000998,None,36,001,15,,2024-04-22_16h47.32.499,replicate_nsd,2023.2.3,60.27137294335628,2024-04-22 16h47.48.623931 -0400,
blank.jpg,69,1,0,0,1,"[9, 19, 31, 42, 56, 68, 69, 70, 71]",,,,,0,141,141,141,278.1313217959978,,,,,,,,,,,,,,,,,,,,,,,,,,,,,,,,,,,,,,,,,,,,269.6766187579997,269.67668612599664,269.6766944809933,269.67879010799516,None,0,None,269.6790099629943,269.6790409089954,None,269.67911070300033,269.6791478119994,None,269.6792182779973,269.6792448769993,None,36,001,15,,2024-04-22_16h47.32.499,replicate_nsd,2023.2.3,60.27137294335628,2024-04-22 16h47.48.623931 -0400,
blank.jpg,70,1,0,0,1,"[9, 19, 31, 42, 56, 68, 69, 70, 71]",,,,,0,142,142,142,278.1313217959978,,,,,,,,,,,,,,,,,,,,,,,,,,,,,,,,,,,,,,,,,,,,269.679474286997,269.6795416379973,269.67954998099594,269.6813720219943,None,0,None,269.6815905869953,269.6816213369966,None,269.68169079399377,269.6817280799951,None,269.68179716599843,269.6818239999993,None,36,001,15,,2024-04-22_16h47.32.499,replicate_nsd,2023.2.3,60.27137294335628,2024-04-22 16h47.48.623931 -0400,
blank.jpg,71,1,0,1,1,"[9, 19, 31, 42, 56, 68, 69, 70, 71]",,,,,0,143,143,143,278.1313217959978,,,,,,,,,,,,,,,,,,,,,,,,,,,,,,,,,,,,,,,,,,,,269.6820519719986,269.68211890399834,269.6821272219968,269.6840118859982,None,0,None,269.684230422994,269.6842611769971,None,269.68433159899723,269.6843687119981,None,269.6844394369982,269.6844667599944,None,36,001,15,,2024-04-22_16h47.32.499,replicate_nsd,2023.2.3,60.27137294335628,2024-04-22 16h47.48.623931 -0400,
images/image_304_seed_1.png,0,0,0,0,2,"[9, 19, 29, 39, 49, 59, 68, 69, 70, 71]",,,,,0,144,144,144,278.1313217959978,,,,,,,,,,,,,,,,,,,,,,,,,,,,,,,,,,,,,,,,,,,,269.68469846399967,269.68476552399807,269.6847736169948,269.70048483599385,None,0,None,269.70070412499626,269.7007343169971,None,269.70080407899513,269.70084135999787,None,269.70091184399644,269.70093941199593,None,36,001,15,,2024-04-22_16h47.32.499,replicate_nsd,2023.2.3,60.27137294335628,2024-04-22 16h47.48.623931 -0400,
images/image_197_seed_1.png,1,0,0,0,2,"[9, 19, 29, 39, 49, 59, 68, 69, 70, 71]",,,,,0,145,145,145,278.1313217959978,,,,,,,,,,,,,,,,,,,,,,,,,,,,,,,,,,,,,,,,,,,,269.7011683669989,269.7012362049936,269.7012444339998,269.71724186999927,None,0,None,269.71742878799705,269.71745511699555,None,269.71751577800023,269.7175478919962,None,269.7176087619955,269.7176320179933,None,36,001,15,,2024-04-22_16h47.32.499,replicate_nsd,2023.2.3,60.27137294335628,2024-04-22 16h47.48.623931 -0400,
images/image_5_seed_1.png,2,0,0,0,2,"[9, 19, 29, 39, 49, 59, 68, 69, 70, 71]",,,,,0,146,146,146,278.1313217959978,,,,,,,,,,,,,,,,,,,,,,,,,,,,,,,,,,,,,,,,,,,,269.7178294499972,269.71788744199876,269.7178947219945,269.73252891599986,None,0,None,269.7327168979973,269.7327436849955,None,269.7328040279972,269.7328357419974,None,269.7328965199995,269.73292019599467,None,36,001,15,,2024-04-22_16h47.32.499,replicate_nsd,2023.2.3,60.27137294335628,2024-04-22 16h47.48.623931 -0400,
images/image_318_seed_1.png,3,0,0,0,2,"[9, 19, 29, 39, 49, 59, 68, 69, 70, 71]",,,,,0,147,147,147,278.1313217959978,,,,,,,,,,,,,,,,,,,,,,,,,,,,,,,,,,,,,,,,,,,,269.73311699199985,269.733175122994,269.7331822569977,269.7478368649972,None,0,None,269.74805537599605,269.7480859119969,None,269.7481558429936,269.7481928959969,None,269.74826308599586,269.748290507996,None,36,001,15,,2024-04-22_16h47.32.499,replicate_nsd,2023.2.3,60.27137294335628,2024-04-22 16h47.48.623931 -0400,
images/image_102_seed_1.png,4,0,0,0,2,"[9, 19, 29, 39, 49, 59, 68, 69, 70, 71]",,,,,0,148,148,148,278.1313217959978,,,,,,,,,,,,,,,,,,,,,,,,,,,,,,,,,,,,,,,,,,,,269.7485216549976,269.7485889879972,269.748597162994,269.76472024199757,None,0,None,269.7649940439951,269.76503294699796,None,269.76512874000036,269.76517550899734,None,269.7652643259935,269.7652979399936,None,36,001,15,,2024-04-22_16h47.32.499,replicate_nsd,2023.2.3,60.27137294335628,2024-04-22 16h47.48.623931 -0400,
images/image_220_seed_1.png,5,0,0,0,2,"[9, 19, 29, 39, 49, 59, 68, 69, 70, 71]",,,,,0,149,149,149,278.1313217959978,,,,,,,,,,,,,,,,,,,,,,,,,,,,,,,,,,,,,,,,,,,,269.76558555099473,269.76566957499745,269.76567975099897,269.7799072909984,None,0,None,269.78018062699994,269.78021922199696,None,269.780305303997,269.78035155699763,None,269.78045067299536,269.78048550899985,None,36,001,15,,2024-04-22_16h47.32.499,replicate_nsd,2023.2.3,60.27137294335628,2024-04-22 16h47.48.623931 -0400,
images/image_678_seed_1.png,6,0,0,0,2,"[9, 19, 29, 39, 49, 59, 68, 69, 70, 71]",,,,,0,150,150,150,278.1313217959978,,,,,,,,,,,,,,,,,,,,,,,,,,,,,,,,,,,,,,,,,,,,269.78078765999817,269.7808712249971,269.7808813640004,269.7985542989991,None,0,None,269.79877426699386,269.7988048499974,None,269.7988748189964,269.79891184599546,None,269.79898257899913,269.7990093319968,None,36,001,15,,2024-04-22_16h47.32.499,replicate_nsd,2023.2.3,60.27137294335628,2024-04-22 16h47.48.623931 -0400,
images/image_472_seed_1.png,7,0,0,0,2,"[9, 19, 29, 39, 49, 59, 68, 69, 70, 71]",,,,,0,151,151,151,278.1313217959978,,,,,,,,,,,,,,,,,,,,,,,,,,,,,,,,,,,,,,,,,,,,269.7992405449986,269.79931124099676,269.79931958499947,269.8150911539997,None,0,None,269.8153126499965,269.815343176997,None,269.815412291995,269.81544965899957,None,269.8155203449933,269.81554777699785,None,36,001,15,,2024-04-22_16h47.32.499,replicate_nsd,2023.2.3,60.27137294335628,2024-04-22 16h47.48.623931 -0400,
images/image_68_seed_1.png,8,0,0,0,2,"[9, 19, 29, 39, 49, 59, 68, 69, 70, 71]",,,,,0,152,152,152,278.1313217959978,,,,,,,,,,,,,,,,,,,,,,,,,,,,,,,,,,,,,,,,,,,,269.8157783689967,269.81588128699514,269.8158899859991,269.8312977359965,None,0,None,269.8315215689945,269.8315526679944,None,269.8316227339965,269.83166019899363,None,269.8317736769968,269.83180167099636,None,36,001,15,,2024-04-22_16h47.32.499,replicate_nsd,2023.2.3,60.27137294335628,2024-04-22 16h47.48.623931 -0400,
blank.jpg,9,1,0,0,2,"[9, 19, 29, 39, 49, 59, 68, 69, 70, 71]",,,,,0,153,153,153,278.1313217959978,,,,,,,,,,,,,,,,,,,,,,,,,,,,,,,,,,,,,,,,,,,,269.8320373259994,269.83210692499415,269.8321153109937,269.8349653039986,None,0,None,269.83518551199813,269.8352162709998,None,269.8352862959946,269.83532412299974,None,269.83539422899776,269.83542167999985,None,36,001,15,,2024-04-22_16h47.32.499,replicate_nsd,2023.2.3,60.27137294335628,2024-04-22 16h47.48.623931 -0400,
images/image_19_seed_1.png,10,0,1,0,2,"[9, 19, 29, 39, 49, 59, 68, 69, 70, 71]",,,,,0,154,154,154,278.1313217959978,,,,,,,,,,,,,,,,,,,,,,,,,,,,,,,,,,,,,,,,,,,,269.83565024400013,269.83571781099454,269.83572634199663,269.84947785899567,None,0,None,269.84966734299815,269.84969367299345,None,269.8497545289938,269.84978636999585,None,269.8498471519997,269.84987070199713,None,36,001,15,,2024-04-22_16h47.32.499,replicate_nsd,2023.2.3,60.27137294335628,2024-04-22 16h47.48.623931 -0400,
images/image_739_seed_1.png,11,0,0,0,2,"[9, 19, 29, 39, 49, 59, 68, 69, 70, 71]",,,,,0,155,155,155,278.1313217959978,,,,,,,,,,,,,,,,,,,,,,,,,,,,,,,,,,,,,,,,,,,,269.85006813899963,269.85012615699816,269.85013318399433,269.86456799599546,None,0,None,269.8647552139955,269.86478175799857,None,269.86484216799727,269.8648735869938,None,269.8649338709947,269.8649570109992,None,36,001,15,,2024-04-22_16h47.32.499,replicate_nsd,2023.2.3,60.27137294335628,2024-04-22 16h47.48.623931 -0400,
images/image_682_seed_1.png,12,0,0,0,2,"[9, 19, 29, 39, 49, 59, 68, 69, 70, 71]",,,,,0,156,156,156,278.1313217959978,,,,,,,,,,,,,,,,,,,,,,,,,,,,,,,,,,,,,,,,,,,,269.8651583529936,269.8652156369935,269.86522278399934,269.87920135499735,None,0,None,269.8794742319951,269.8795131989973,None,269.87959998999577,269.87964643699524,None,269.87973369399697,269.8797678310002,None,36,001,15,,2024-04-22_16h47.32.499,replicate_nsd,2023.2.3,60.27137294335628,2024-04-22 16h47.48.623931 -0400,
images/image_474_seed_1.png,13,0,0,0,2,"[9, 19, 29, 39, 49, 59, 68, 69, 70, 71]",,,,,0,157,157,157,278.1313217959978,,,,,,,,,,,,,,,,,,,,,,,,,,,,,,,,,,,,,,,,,,,,269.8800518499993,269.8801354850002,269.88014605399803,269.8966524319985,None,0,None,269.89692518199445,269.89696269599517,None,269.8970495849935,269.89710479699716,None,269.8971950619962,269.89722879599867,None,36,001,15,,2024-04-22_16h47.32.499,replicate_nsd,2023.2.3,60.27137294335628,2024-04-22 16h47.48.623931 -0400,
images/image_423_seed_1.png,14,0,0,0,2,"[9, 19, 29, 39, 49, 59, 68, 69, 70, 71]",,,,,0,158,158,158,278.1313217959978,,,,,,,,,,,,,,,,,,,,,,,,,,,,,,,,,,,,,,,,,,,,269.8975283759937,269.8976119039944,269.8976220359982,269.91439159699803,None,0,None,269.9145803069987,269.9146066299945,None,269.9146660839979,269.9146976389966,None,269.9147578829943,269.91478177099634,None,36,001,15,,2024-04-22_16h47.32.499,replicate_nsd,2023.2.3,60.27137294335628,2024-04-22 16h47.48.623931 -0400,
images/image_191_seed_1.png,15,0,0,0,2,"[9, 19, 29, 39, 49, 59, 68, 69, 70, 71]",,,,,0,159,159,159,278.1313217959978,,,,,,,,,,,,,,,,,,,,,,,,,,,,,,,,,,,,,,,,,,,,269.914978902998,269.9150365749956,269.9150435489937,269.92995522099955,None,0,None,269.9302309259947,269.9302699719992,None,269.9303581899949,269.9304051479994,None,269.9305042429987,269.9305418129952,None,36,001,15,,2024-04-22_16h47.32.499,replicate_nsd,2023.2.3,60.27137294335628,2024-04-22 16h47.48.623931 -0400,
images/image_216_seed_1.png,16,0,0,0,2,"[9, 19, 29, 39, 49, 59, 68, 69, 70, 71]",,,,,0,160,160,160,278.1313217959978,,,,,,,,,,,,,,,,,,,,,,,,,,,,,,,,,,,,,,,,,,,,269.9308423249968,269.93092652299674,269.93093677799334,269.9478354869934,None,0,None,269.9481130860004,269.94815170999937,None,269.94823985399853,269.94828645300004,None,269.94837454099616,269.9484081069968,None,36,001,15,,2024-04-22_16h47.32.499,replicate_nsd,2023.2.3,60.27137294335628,2024-04-22 16h47.48.623931 -0400,
images/image_555_seed_1.png,17,0,0,0,2,"[9, 19, 29, 39, 49, 59, 68, 69, 70, 71]",,,,,0,161,161,161,278.1313217959978,,,,,,,,,,,,,,,,,,,,,,,,,,,,,,,,,,,,,,,,,,,,269.9486939790004,269.94877625099616,269.9487863039976,269.964352777999,None,0,None,269.96462932999566,269.96466820699425,None,269.9647550029986,269.96480149899435,None,269.96488993299863,269.96492375799426,None,36,001,15,,2024-04-22_16h47.32.499,replicate_nsd,2023.2.3,60.27137294335628,2024-04-22 16h47.48.623931 -0400,
images/image_477_seed_1.png,18,0,0,0,2,"[9, 19, 29, 39, 49, 59, 68, 69, 70, 71]",,,,,0,162,162,162,278.1313217959978,,,,,,,,,,,,,,,,,,,,,,,,,,,,,,,,,,,,,,,,,,,,269.9652204609956,269.9653444939977,269.96535509599926,269.9791376929934,None,0,None,269.9793584549989,269.97938937999425,None,269.9794598829976,269.97949659399455,None,269.9795669679952,269.97959396799706,None,36,001,15,,2024-04-22_16h47.32.499,replicate_nsd,2023.2.3,60.27137294335628,2024-04-22 16h47.48.623931 -0400,
blank.jpg,19,1,0,0,2,"[9, 19, 29, 39, 49, 59, 68, 69, 70, 71]",,,,,0,163,163,163,278.1313217959978,,,,,,,,,,,,,,,,,,,,,,,,,,,,,,,,,,,,,,,,,,,,269.9798267199949,269.9798942399939,269.97990231799486,269.9827298969976,None,0,None,269.98295085899736,269.98298216299736,None,269.9830588240002,269.9830961369953,None,269.98316710699874,269.98319435299345,None,36,001,15,,2024-04-22_16h47.32.499,replicate_nsd,2023.2.3,60.27137294335628,2024-04-22 16h47.48.623931 -0400,
images/6_44.png,20,0,0,0,2,"[9, 19, 29, 39, 49, 59, 68, 69, 70, 71]",,,,,0,164,164,164,278.1313217959978,,,,,,,,,,,,,,,,,,,,,,,,,,,,,,,,,,,,,,,,,,,,269.9834248229963,269.9834929169956,269.9835012209951,269.99076203000004,None,0,None,269.9909965869956,269.9910236979995,None,269.9910838020005,269.9911160429983,None,269.99117656299495,269.9912000569966,None,36,001,15,,2024-04-22_16h47.32.499,replicate_nsd,2023.2.3,60.27137294335628,2024-04-22 16h47.48.623931 -0400,
images/image_525_seed_1.png,21,0,0,0,2,"[9, 19, 29, 39, 49, 59, 68, 69, 70, 71]",,,,,0,165,165,165,278.1313217959978,,,,,,,,,,,,,,,,,,,,,,,,,,,,,,,,,,,,,,,,,,,,269.99139916199783,269.99145740999666,269.9914643960001,270.0062607679938,None,0,None,270.0065376239945,270.0065751289949,None,270.00666262599407,270.0067091489982,None,270.00679766499525,270.00683153599675,None,36,001,15,,2024-04-22_16h47.32.499,replicate_nsd,2023.2.3,60.27137294335628,2024-04-22 16h47.48.623931 -0400,
images/image_84_seed_1.png,22,0,0,0,2,"[9, 19, 29, 39, 49, 59, 68, 69, 70, 71]",,,,,0,166,166,166,278.1313217959978,,,,,,,,,,,,,,,,,,,,,,,,,,,,,,,,,,,,,,,,,,,,270.00712346199725,270.00720889299555,270.0072191579966,270.0234912529995,None,0,None,270.02373058800003,270.02376157399704,None,270.02383330399607,270.02387094199366,None,270.0239415229953,270.0239685919951,None,36,001,15,,2024-04-22_16h47.32.499,replicate_nsd,2023.2.3,60.27137294335628,2024-04-22 16h47.48.623931 -0400,
images/image_109_seed_1.png,23,0,0,0,2,"[9, 19, 29, 39, 49, 59, 68, 69, 70, 71]",,,,,0,167,167,167,278.1313217959978,,,,,,,,,,,,,,,,,,,,,,,,,,,,,,,,,,,,,,,,,,,,270.02420094399713,270.02426900399587,270.0242771579942,270.04004649799754,None,0,None,270.04032127299433,270.04036000399356,None,270.0404474229945,270.0404935139959,None,270.040581164998,270.0406151709976,None,36,001,15,,2024-04-22_16h47.32.499,replicate_nsd,2023.2.3,60.27137294335628,2024-04-22 16h47.48.623931 -0400,
images/image_412_seed_1.png,24,0,0,0,2,"[9, 19, 29, 39, 49, 59, 68, 69, 70, 71]",,,,,0,168,168,168,278.1313217959978,,,,,,,,,,,,,,,,,,,,,,,,,,,,,,,,,,,,,,,,,,,,270.0409021479936,270.04098591699585,270.040995976,270.05902921699453,None,0,None,270.0592488170005,270.05927960799454,None,270.0593491219988,270.0593868559954,None,270.05945684299513,270.0594841619968,None,36,001,15,,2024-04-22_16h47.32.499,replicate_nsd,2023.2.3,60.27137294335628,2024-04-22 16h47.48.623931 -0400,
images/image_129_seed_1.png,25,0,0,0,2,"[9, 19, 29, 39, 49, 59, 68, 69, 70, 71]",,,,,0,169,169,169,278.1313217959978,,,,,,,,,,,,,,,,,,,,,,,,,,,,,,,,,,,,,,,,,,,,270.0597154039933,270.05978355499974,270.0597915420003,270.076019164997,None,0,None,270.07624002800003,270.0762713499935,None,270.0763423449971,270.0763804639937,None,270.07645161599794,270.0764791859983,None,36,001,15,,2024-04-22_16h47.32.499,replicate_nsd,2023.2.3,60.27137294335628,2024-04-22 16h47.48.623931 -0400,
images/image_621_seed_1.png,26,0,0,0,2,"[9, 19, 29, 39, 49, 59, 68, 69, 70, 71]",,,,,0,170,170,170,278.1313217959978,,,,,,,,,,,,,,,,,,,,,,,,,,,,,,,,,,,,,,,,,,,,270.07670987399615,270.0767771449973,270.0767852489953,270.09256849699887,None,0,None,270.0928427129984,270.0928812339989,None,270.0929684549992,270.0930143899968,None,270.0931024149977,270.0931361259936,None,36,001,15,,2024-04-22_16h47.32.499,replicate_nsd,2023.2.3,60.27137294335628,2024-04-22 16h47.48.623931 -0400,
images/image_72_seed_1.png,27,0,0,0,2,"[9, 19, 29, 39, 49, 59, 68, 69, 70, 71]",,,,,0,171,171,171,278.1313217959978,,,,,,,,,,,,,,,,,,,,,,,,,,,,,,,,,,,,,,,,,,,,270.0934230399944,270.093507147998,270.0935173629987,270.11019811499864,None,0,None,270.11047271999996,270.11051155699533,None,270.11065020999376,270.11069827899337,None,270.110786063,270.11082001299656,None,36,001,15,,2024-04-22_16h47.32.499,replicate_nsd,2023.2.3,60.27137294335628,2024-04-22 16h47.48.623931 -0400,
images/image_156_seed_1.png,28,0,0,0,2,"[9, 19, 29, 39, 49, 59, 68, 69, 70, 71]",,,,,0,172,172,172,278.1313217959978,,,,,,,,,,,,,,,,,,,,,,,,,,,,,,,,,,,,,,,,,,,,270.1111054129942,270.11118838499533,270.1111986219985,270.12636609899346,None,0,None,270.12663862000045,270.1266777369965,None,270.12676390900015,270.12681005399645,None,270.1268971229947,270.1269311139986,None,36,001,15,,2024-04-22_16h47.32.499,replicate_nsd,2023.2.3,60.27137294335628,2024-04-22 16h47.48.623931 -0400,
blank.jpg,29,1,0,0,2,"[9, 19, 29, 39, 49, 59, 68, 69, 70, 71]",,,,,0,173,173,173,278.1313217959978,,,,,,,,,,,,,,,,,,,,,,,,,,,,,,,,,,,,,,,,,,,,270.1272201999964,270.1273039959997,270.12731411899586,270.1307483979981,None,0,None,270.13101921699854,270.1310577389959,None,270.1311447219996,270.13119088099484,None,270.1312780119988,270.13131217399496,None,36,001,15,,2024-04-22_16h47.32.499,replicate_nsd,2023.2.3,60.27137294335628,2024-04-22 16h47.48.623931 -0400,
images/image_630_seed_1.png,30,0,0,0,2,"[9, 19, 29, 39, 49, 59, 68, 69, 70, 71]",,,,,0,174,174,174,278.1313217959978,,,,,,,,,,,,,,,,,,,,,,,,,,,,,,,,,,,,,,,,,,,,270.13159869099763,270.1316839049978,270.13169395499426,270.14898579799774,None,0,None,270.1492509949967,270.14928909599985,None,270.1493741269951,270.14942053399864,None,270.14950568199856,270.14956272400013,None,36,001,15,,2024-04-22_16h47.32.499,replicate_nsd,2023.2.3,60.27137294335628,2024-04-22 16h47.48.623931 -0400,
images/image_508_seed_1.png,31,0,0,0,2,"[9, 19, 29, 39, 49, 59, 68, 69, 70, 71]",,,,,0,175,175,175,278.1313217959978,,,,,,,,,,,,,,,,,,,,,,,,,,,,,,,,,,,,,,,,,,,,270.1497911329934,270.14986194899393,270.14986996799416,270.1645813099967,None,0,None,270.1647700839967,270.1647968479956,None,270.16485729699343,270.1648894949976,None,270.1649498439947,270.1649735739993,None,36,001,15,,2024-04-22_16h47.32.499,replicate_nsd,2023.2.3,60.27137294335628,2024-04-22 16h47.48.623931 -0400,
images/image_517_seed_1.png,32,0,0,0,2,"[9, 19, 29, 39, 49, 59, 68, 69, 70, 71]",,,,,0,176,176,176,278.1313217959978,,,,,,,,,,,,,,,,,,,,,,,,,,,,,,,,,,,,,,,,,,,,270.16517589299474,270.1652354339967,270.16524246199697,270.1800856129994,None,0,None,270.1802757299956,270.1803019750005,None,270.18036184299854,270.18039356299414,None,270.18046203799895,270.1804858510004,None,36,001,15,,2024-04-22_16h47.32.499,replicate_nsd,2023.2.3,60.27137294335628,2024-04-22 16h47.48.623931 -0400,
images/image_396_seed_1.png,33,0,0,0,2,"[9, 19, 29, 39, 49, 59, 68, 69, 70, 71]",,,,,0,177,177,177,278.1313217959978,,,,,,,,,,,,,,,,,,,,,,,,,,,,,,,,,,,,,,,,,,,,270.18069404199923,270.18075207999937,270.18075900899566,270.1952100269991,None,0,None,270.1954289319983,270.19545956999355,None,270.1955298879984,270.19556670999737,None,270.1956367239982,270.1956634620001,None,36,001,15,,2024-04-22_16h47.32.499,replicate_nsd,2023.2.3,60.27137294335628,2024-04-22 16h47.48.623931 -0400,
images/image_433_seed_1.png,34,0,0,0,2,"[9, 19, 29, 39, 49, 59, 68, 69, 70, 71]",,,,,0,178,178,178,278.1313217959978,,,,,,,,,,,,,,,,,,,,,,,,,,,,,,,,,,,,,,,,,,,,270.19589253699814,270.19595942999877,270.19596766599716,270.20987101100036,None,0,None,270.21014452300005,270.2101827509978,None,270.2102702009943,270.2103166819943,None,270.2104041209968,270.21043789999385,None,36,001,15,,2024-04-22_16h47.32.499,replicate_nsd,2023.2.3,60.27137294335628,2024-04-22 16h47.48.623931 -0400,
images/image_84_seed_1.png,35,0,1,0,2,"[9, 19, 29, 39, 49, 59, 68, 69, 70, 71]",,,,,0,179,179,179,278.1313217959978,,,,,,,,,,,,,,,,,,,,,,,,,,,,,,,,,,,,,,,,,,,,270.21072617899335,270.21081002599385,270.2108202149975,270.2243008499936,None,0,None,270.2245728009948,270.22461121899687,None,270.2246976440001,270.2247443229935,None,270.2248324949978,270.2248664459985,None,36,001,15,,2024-04-22_16h47.32.499,replicate_nsd,2023.2.3,60.27137294335628,2024-04-22 16h47.48.623931 -0400,
images/image_181_seed_1.png,36,0,0,0,2,"[9, 19, 29, 39, 49, 59, 68, 69, 70, 71]",,,,,0,180,180,180,278.1313217959978,,,,,,,,,,,,,,,,,,,,,,,,,,,,,,,,,,,,,,,,,,,,270.22515291799937,270.22523594299855,270.2252458179937,270.24182694699994,None,0,None,270.24209965799673,270.2421374810001,None,270.24222493900015,270.24227166099445,None,270.2423591639963,270.2423956229977,None,36,001,15,,2024-04-22_16h47.32.499,replicate_nsd,2023.2.3,60.27137294335628,2024-04-22 16h47.48.623931 -0400,
images/w_pagoda1.jpg,37,0,0,0,2,"[9, 19, 29, 39, 49, 59, 68, 69, 70, 71]",,,,,0,181,181,181,278.1313217959978,,,,,,,,,,,,,,,,,,,,,,,,,,,,,,,,,,,,,,,,,,,,270.24268247599684,270.24276732,270.24277753699425,270.24839779699687,None,0,None,270.2486166439994,270.2486475209953,None,270.24871580599574,270.24875360299484,None,270.24882260299637,270.248849480995,None,36,001,15,,2024-04-22_16h47.32.499,replicate_nsd,2023.2.3,60.27137294335628,2024-04-22 16h47.48.623931 -0400,
images/image_335_seed_1.png,38,0,0,0,2,"[9, 19, 29, 39, 49, 59, 68, 69, 70, 71]",,,,,0,182,182,182,278.1313217959978,,,,,,,,,,,,,,,,,,,,,,,,,,,,,,,,,,,,,,,,,,,,270.24907735399756,270.2491445969936,270.2491529059989,270.2648152649999,None,0,None,270.26503384999523,270.26506485099526,None,270.2651389139937,270.26517642699764,None,270.2652462979968,270.2652737229946,None,36,001,15,,2024-04-22_16h47.32.499,replicate_nsd,2023.2.3,60.27137294335628,2024-04-22 16h47.48.623931 -0400,
blank.jpg,39,1,0,0,2,"[9, 19, 29, 39, 49, 59, 68, 69, 70, 71]",,,,,0,183,183,183,278.1313217959978,,,,,,,,,,,,,,,,,,,,,,,,,,,,,,,,,,,,,,,,,,,,270.26550167199457,270.2655693380002,270.26557755999966,270.2686899389955,None,0,None,270.2689085799939,270.2689390999949,None,270.26900848799414,270.2690456899945,None,270.2691150899991,270.2691425859957,None,36,001,15,,2024-04-22_16h47.32.499,replicate_nsd,2023.2.3,60.27137294335628,2024-04-22 16h47.48.623931 -0400,
images/image_463_seed_1.png,40,0,0,0,2,"[9, 19, 29, 39, 49, 59, 68, 69, 70, 71]",,,,,0,184,184,184,278.1313217959978,,,,,,,,,,,,,,,,,,,,,,,,,,,,,,,,,,,,,,,,,,,,270.26937364199694,270.26944109099713,270.2694491999937,270.28547971700027,None,0,None,270.28569926899945,270.2857297809969,None,270.28579958899354,270.28583689499646,None,270.28590657399764,270.28593377299694,None,36,001,15,,2024-04-22_16h47.32.499,replicate_nsd,2023.2.3,60.27137294335628,2024-04-22 16h47.48.623931 -0400,
