current_image,trial_index,is_blank_trial,is_repeat,is_new_run,run_num,all_blanks_list,practice.thisRepN,practice.thisTrialN,practice.thisN,practice.thisIndex,loop_all_images.thisRepN,loop_all_images.thisTrialN,loop_all_images.thisN,loop_all_images.thisIndex,thisRow.t,notes,set_up.started,set_up.stopped,practice_continue.started,key_resp_6.started,text_6.started,practice_continue.stopped,key_resp_6.keys,key_resp_6.rt,key_resp_6.duration,set_skips_and_correct_key_2.started,set_skips_and_correct_key_2.stopped,practice_trial.started,polygon_3.started,all_keys_pressed_2.started,image_2.started,press_if_repeat_2.started,image_2.stopped,press_if_repeat_2.stopped,polygon_3.stopped,all_keys_pressed_2.stopped,practice_trial.stopped,press_if_repeat_2.keys,press_if_repeat_2.corr,all_keys_pressed_2.keys,all_keys_pressed_2.rt,all_keys_pressed_2.duration,blank_trial_2.started,blank_trial_2.stopped,polygon_4.started,polygon_4.stopped,testing_continue.started,key_resp_7.started,text_7.started,testing_continue.stopped,key_resp_7.keys,key_resp_7.rt,key_resp_7.duration,waiting_fmri.started,key_resp_2.started,text_3.started,waiting_fmri.stopped,key_resp_2.keys,key_resp_2.rt,key_resp_2.duration,set_skips_and_correct_key.started,set_skips_and_correct_key.stopped,trial.started,polygon.started,all_keys_pressed.started,image.started,press_if_repeat.started,image.stopped,press_if_repeat.stopped,polygon.stopped,all_keys_pressed.stopped,trial.stopped,press_if_repeat.keys,press_if_repeat.corr,all_keys_pressed.keys,blank_trial.started,blank_trial.stopped,blank_trial_testing_keys.keys,run_wait2_2.started,run_wait2_2.stopped,key_resp_5.keys,waiting_fmri_2.started,waiting_fmri_2.stopped,key_resp_4.keys,blank_trial_testing_keys.started,polygon_2.started,blank_trial_testing_keys.stopped,polygon_2.stopped,press_if_repeat.rt,press_if_repeat.duration,blank_trial_testing_keys.rt,blank_trial_testing_keys.duration,all_keys_pressed.rt,all_keys_pressed.duration,key_resp_5.started,text_5.started,key_resp_5.rt,key_resp_5.duration,key_resp_4.started,text_4.started,key_resp_4.rt,key_resp_4.duration,participant,session,starting_run,,date,expName,psychopyVersion,frameRate,expStart,
,,,,,,,,,,,,,,,,,0.06325253100021655,0.06367635100014013,0.06368407100035256,0.07789153900012025,0.07789153900012025,1.8512697930000286,1,1.7691736189999574,None,,,,,,,,,,,,,,,,,,,,,,,,,,,,,,,,,,,,,,,,,,,,,,,,,,,,,,,,,,,,,,,,,,,,,,,,,,,,,,41,001,0,,2024-04-15_10h21.05.440,replicate_nsd,2023.2.3,59.613006549363774,2024-04-15 10h22.26.068415 -0400,
practice_images/paired_image_25_2.png,0,0,,,,,0,0,0,0,,,,,1.8788443960002041,,,,,,,,,,,1.8575575210006718,1.8576054100003603,1.857611616000213,1.8788443960002041,1.8788443960002041,2.86747524600014,2.86747524600014,5.8670856280004955,5.8670856280004955,5.8670856280004955,5.8670856280004955,5.853016759000639,None,0,"['2', '1', '2', '1']","[0.15617310500056192, 0.31217533000017283, 0.41217378600049415, 0.536174691999804]","[None, None, None, None]",5.853661932999785,5.853686219999872,,,,,,,,,,,,,,,,,,,,,,,,,,,,,,,,,,,,,,,,,,,,,,,,,,,,,,,,,,,41,001,0,,2024-04-15_10h21.05.440,replicate_nsd,2023.2.3,59.613006549363774,2024-04-15 10h22.26.068415 -0400,
practice_images/paired_image_15_2.png,1,0,,,,,0,1,1,1,,,,,5.8670856280004955,,,,,,,,,,,5.853849715000251,5.853903971999898,5.853910451000047,5.8670856280004955,5.8670856280004955,6.8672236040001735,6.8672236040001735,9.867120883000098,9.867120883000098,9.867120883000098,9.867120883000098,9.850877143000616,None,0,None,,,9.851077398000598,9.851095652000367,,,,,,,,,,,,,,,,,,,,,,,,,,,,,,,,,,,,,,,,,,,,,,,,,,,,,,,,,,,41,001,0,,2024-04-15_10h21.05.440,replicate_nsd,2023.2.3,59.613006549363774,2024-04-15 10h22.26.068415 -0400,
practice_images/paired_image_12_1.png,2,0,,,,,0,2,2,2,,,,,9.867120883000098,,,,,,,,,,,9.851226941000277,9.851266767000197,9.85127215600005,9.867120883000098,9.867120883000098,10.867070883000451,10.867070883000451,13.86792493700068,13.86792493700068,13.86792493700068,13.86792493700068,13.85191251300057,None,0,None,,,13.852331527999922,13.852370945000075,,,,,,,,,,,,,,,,,,,,,,,,,,,,,,,,,,,,,,,,,,,,,,,,,,,,,,,,,,,41,001,0,,2024-04-15_10h21.05.440,replicate_nsd,2023.2.3,59.613006549363774,2024-04-15 10h22.26.068415 -0400,
practice_images/paired_image_2_1.png,3,0,,,,,0,3,3,3,,,,,13.86792493700068,,,,,,,,,,,13.852649571999791,13.852736962000563,13.852748772000268,13.86792493700068,13.86792493700068,14.868063681999956,14.868063681999956,17.86745827699997,17.86745827699997,17.86745827699997,17.86745827699997,17.85162911000043,None,0,None,,,17.852048008000565,17.852087641999788,,,,,,,,,,,,,,,,,,,,,,,,,,,,,,,,,,,,,,,,,,,,,,,,,,,,,,,,,,,41,001,0,,2024-04-15_10h21.05.440,replicate_nsd,2023.2.3,59.613006549363774,2024-04-15 10h22.26.068415 -0400,
practice_images/paired_image_20_2.png,4,0,,,,,0,4,4,4,,,,,17.86745827699997,,,,,,,,,,,17.85236972199982,17.852455494000424,17.852467267000065,17.86745827699997,17.86745827699997,18.86838995100061,18.86838995100061,21.868223318000673,21.868223318000673,21.868223318000673,21.868223318000673,21.851489354000478,None,0,None,,,21.851911581000422,21.851951992000068,,,,,,,,,,,,,,,,,,,,,,,,,,,,,,,,,,,,,,,,,,,,,,,,,,,,,,,,,,,41,001,0,,2024-04-15_10h21.05.440,replicate_nsd,2023.2.3,59.613006549363774,2024-04-15 10h22.26.068415 -0400,
practice_images/paired_image_27_1.png,5,0,,,,,0,5,5,5,,,,,21.868223318000673,,,,,,,,,,,21.852236694000567,21.852306943000258,21.852316483000322,21.868223318000673,21.868223318000673,22.868396111000038,22.868396111000038,25.86718746800034,25.86718746800034,25.86718746800034,25.86718746800034,25.851382861000275,None,0,None,,,25.851720341000146,25.851751762000276,,,,,,,,,,,,,,,,,,,,,,,,,,,,,,,,,,,,,,,,,,,,,,,,,,,,,,,,,,,41,001,0,,2024-04-15_10h21.05.440,replicate_nsd,2023.2.3,59.613006549363774,2024-04-15 10h22.26.068415 -0400,
practice_images/paired_image_6_2.png,6,0,,,,,0,6,6,6,,,,,25.86718746800034,,,,,,,,,,,25.851972000000387,25.852042201000586,25.852051622000545,25.86718746800034,25.86718746800034,26.86986188999981,26.86986188999981,29.868063679000443,29.868063679000443,29.868063679000443,29.868063679000443,29.851529835999827,None,0,None,,,29.851946691000194,29.851985762999902,,,,,,,,,,,,,,,,,,,,,,,,,,,,,,,,,,,,,,,,,,,,,,,,,,,,,,,,,,,41,001,0,,2024-04-15_10h21.05.440,replicate_nsd,2023.2.3,59.613006549363774,2024-04-15 10h22.26.068415 -0400,
practice_images/paired_image_29_1.png,7,0,,,,,0,7,7,7,,,,,29.868063679000443,,,,,,,,,,,29.852258318000167,29.85234322300039,29.85235453200039,29.868063679000443,29.868063679000443,30.867102223000074,30.867102223000074,33.86781809600052,33.86781809600052,33.86781809600052,33.86781809600052,33.85160973500024,None,0,None,,,33.85204731900012,33.85208851400057,,,,,,,,,,,,,,,,,,,,,,,,,,,,,,,,,,,,,,,,,,,,,,,,,,,,,,,,,,,41,001,0,,2024-04-15_10h21.05.440,replicate_nsd,2023.2.3,59.613006549363774,2024-04-15 10h22.26.068415 -0400,
practice_images/paired_image_36_2.png,8,0,,,,,0,8,8,8,,,,,33.86781809600052,,,,,,,,,,,33.852369713999906,33.852457968000635,33.852470068,33.86781809600052,33.86781809600052,34.86835941500067,34.86835941500067,37.86799390299984,37.86799390299984,37.86799390299984,37.86799390299984,37.85193870100011,None,0,None,,,37.8523551140006,37.852400130000206,,,,,,,,,,,,,,,,,,,,,,,,,,,,,,,,,,,,,,,,,,,,,,,,,,,,,,,,,,,41,001,0,,2024-04-15_10h21.05.440,replicate_nsd,2023.2.3,59.613006549363774,2024-04-15 10h22.26.068415 -0400,
practice_images/paired_image_4_2.png,9,0,,,,,0,9,9,9,,,,,37.86799390299984,,,,,,,,,,,37.8526803270006,37.85276741500002,37.85277873999985,37.86799390299984,37.86799390299984,38.868219959999806,38.868219959999806,41.9672405400006,41.9672405400006,41.9672405400006,41.9672405400006,41.95016169200062,None,0,None,,,41.95050076700045,41.95053377900058,,,,,,,,,,,,,,,,,,,,,,,,,,,,,,,,,,,,,,,,,,,,,,,,,,,,,,,,,,,41,001,0,,2024-04-15_10h21.05.440,replicate_nsd,2023.2.3,59.613006549363774,2024-04-15 10h22.26.068415 -0400,
blank.jpg,10,1,,,,,0,10,10,10,,,,,41.9672405400006,,,,,,,,,,,41.9507586360005,41.95082887399985,41.95083853600045,,,,,,,,,41.95436236400019,None,0,None,,,41.954653335999865,45.95401086200036,41.9672405400006,45.96691451300012,,,,,,,,,,,,,,,,,,,,,,,,,,,,,,,,,,,,,,,,,,,,,,,,,,,,,,,,,41,001,0,,2024-04-15_10h21.05.440,replicate_nsd,2023.2.3,59.613006549363774,2024-04-15 10h22.26.068415 -0400,
practice_images/paired_image_33_1.png,11,0,,,,,0,11,11,11,,,,,45.96691451300012,,,,,,,,,,,45.95433032500023,45.95440164699994,45.95441157500045,45.96691451300012,45.96691451300012,46.97002166200036,46.97002166200036,49.96725976500056,49.96725976500056,49.96725976500056,49.96725976500056,49.95372618300007,None,0,None,,,49.95413908899991,49.95417955100038,,,,,,,,,,,,,,,,,,,,,,,,,,,,,,,,,,,,,,,,,,,,,,,,,,,,,,,,,,,41,001,0,,2024-04-15_10h21.05.440,replicate_nsd,2023.2.3,59.613006549363774,2024-04-15 10h22.26.068415 -0400,
practice_images/paired_image_21_2.png,12,0,,,,,0,12,12,12,,,,,49.96725976500056,,,,,,,,,,,49.954455519000476,49.95454244299981,49.95455424000011,49.96725976500056,49.96725976500056,50.96776740800033,50.96776740800033,53.96752352900057,53.96752352900057,53.96752352900057,53.96752352900057,53.951513699000316,None,0,None,,,53.95192795999992,53.95196631500039,,,,,,,,,,,,,,,,,,,,,,,,,,,,,,,,,,,,,,,,,,,,,,,,,,,,,,,,,,,41,001,0,,2024-04-15_10h21.05.440,replicate_nsd,2023.2.3,59.613006549363774,2024-04-15 10h22.26.068415 -0400,
practice_images/paired_image_19_1.png,13,0,,,,,0,13,13,13,,,,,53.96752352900057,,,,,,,,,,,53.95223943700057,53.95232518300054,53.952336637999906,53.96752352900057,53.96752352900057,54.96781692500008,54.96781692500008,57.96684400899994,57.96684400899994,57.96684400899994,57.96684400899994,57.95116142400002,None,0,None,,,57.951632776000224,57.95167887600019,,,,,,,,,,,,,,,,,,,,,,,,,,,,,,,,,,,,,,,,,,,,,,,,,,,,,,,,,,,41,001,0,,2024-04-15_10h21.05.440,replicate_nsd,2023.2.3,59.613006549363774,2024-04-15 10h22.26.068415 -0400,
practice_images/paired_image_22_2.png,14,0,,,,,0,14,14,14,,,,,57.96684400899994,,,,,,,,,,,57.95198994100065,57.9520981780006,57.95211060100064,57.96684400899994,57.96684400899994,58.974690497000665,58.974690497000665,61.97076155200011,61.97076155200011,61.97076155200011,61.97076155200011,61.95673956200062,None,0,None,,,61.95699766800044,61.95701957900019,,,,,,,,,,,,,,,,,,,,,,,,,,,,,,,,,,,,,,,,,,,,,,,,,,,,,,,,,,,41,001,0,,2024-04-15_10h21.05.440,replicate_nsd,2023.2.3,59.613006549363774,2024-04-15 10h22.26.068415 -0400,
practice_images/paired_image_30_1.png,15,0,,,,,0,15,15,15,,,,,61.97076155200011,,,,,,,,,,,61.957178956999996,61.95722908700009,61.95723543300028,61.97076155200011,61.97076155200011,62.97180968700013,62.97180968700013,65.97165410400066,65.97165410400066,65.97165410400066,65.97165410400066,65.95604203499988,None,0,None,,,65.95628525099983,65.95630796300065,,,,,,,,,,,,,,,,,,,,,,,,,,,,,,,,,,,,,,,,,,,,,,,,,,,,,,,,,,,41,001,0,,2024-04-15_10h21.05.440,replicate_nsd,2023.2.3,59.613006549363774,2024-04-15 10h22.26.068415 -0400,
practice_images/paired_image_15_1.png,16,0,,,,,0,16,16,16,,,,,65.97165410400066,,,,,,,,,,,65.95646435100025,65.9565146470004,65.95652115499979,65.97165410400066,65.97165410400066,66.96787655500066,66.96787655500066,69.97226632300044,69.97226632300044,69.97226632300044,69.97226632300044,69.95651134400032,None,0,None,,,69.95685719300036,69.95688917799998,,,,,,,,,,,,,,,,,,,,,,,,,,,,,,,,,,,,,,,,,,,,,,,,,,,,,,,,,,,41,001,0,,2024-04-15_10h21.05.440,replicate_nsd,2023.2.3,59.613006549363774,2024-04-15 10h22.26.068415 -0400,
practice_images/paired_image_28_1.png,17,0,,,,,0,17,17,17,,,,,69.97226632300044,,,,,,,,,,,69.95711433399993,69.95718306900017,69.95719242300038,69.97226632300044,69.97226632300044,70.9722628620002,70.9722628620002,73.972808214,73.972808214,73.972808214,73.972808214,73.95588566800052,None,0,None,,,73.95616826800051,73.95619454400003,,,,,,,,,,,,,,,,,,,,,,,,,,,,,,,,,,,,,,,,,,,,,,,,,,,,,,,,,,,41,001,0,,2024-04-15_10h21.05.440,replicate_nsd,2023.2.3,59.613006549363774,2024-04-15 10h22.26.068415 -0400,
practice_images/paired_image_24_1.png,18,0,,,,,0,18,18,18,,,,,73.972808214,,,,,,,,,,,73.95637767000062,73.9564361290004,73.95644382899991,73.972808214,73.972808214,74.97192303100019,74.97192303100019,77.97168546900048,77.97168546900048,77.97168546900048,77.97168546900048,77.95703321000019,None,0,None,,,77.9573718520005,77.95740329399996,,,,,,,,,,,,,,,,,,,,,,,,,,,,,,,,,,,,,,,,,,,,,,,,,,,,,,,,,,,41,001,0,,2024-04-15_10h21.05.440,replicate_nsd,2023.2.3,59.613006549363774,2024-04-15 10h22.26.068415 -0400,
practice_images/paired_image_36_1.png,19,0,,,,,0,19,19,19,,,,,77.97168546900048,,,,,,,,,,,77.9576233429998,77.95769851000023,77.95770787600031,77.97168546900048,77.97168546900048,78.97320531500009,78.97320531500009,81.97324144899994,81.97324144899994,81.97324144899994,81.97324144899994,81.95665215999998,None,0,None,,,81.9570690669998,81.95710859800056,,,,,,,,,,,,,,,,,,,,,,,,,,,,,,,,,,,,,,,,,,,,,,,,,,,,,,,,,,,41,001,0,,2024-04-15_10h21.05.440,replicate_nsd,2023.2.3,59.613006549363774,2024-04-15 10h22.26.068415 -0400,
,,,,,,,,,,,,,,,,,,,,,,,,,,,,,,,,,,,,,,,,,,,,,,,81.95716657600042,81.97324144899994,81.97324144899994,100.438062188,2,18.44979962100024,None,,,,,,,,,,,,,,,,,,,,,,,,,,,,,,,,,,,,,,,,,,,,,,,,,,41,001,0,,2024-04-15_10h21.05.440,replicate_nsd,2023.2.3,59.613006549363774,2024-04-15 10h22.26.068415 -0400,
,,,,,,,,,,,,,,,,,,,,,,,,,,,,,,,,,,,,,,,,,,,,,,,,,,,,,,100.43808247500056,100.45655174900003,100.45655174900003,188.33413578900036,equal,87.86251688999982,None,,,,,,,,,,,,,,,,,,,,,,,,,,,,,,,,,,,,,,,,,,,41,001,0,,2024-04-15_10h21.05.440,replicate_nsd,2023.2.3,59.613006549363774,2024-04-15 10h22.26.068415 -0400,
images/image_279_seed_1.png,0,0,0,0,0,"[9, 19, 29, 39, 49, 59, 68, 69, 70, 71]",,,,,0,0,0,0,188.4601158940004,,,,,,,,,,,,,,,,,,,,,,,,,,,,,,,,,,,,,,,,,,,,,,188.4174041340002,188.41749610900024,188.41750406499978,188.4601158940004,188.4601158940004,189.4510234999998,189.4510234999998,192.4538620029998,192.4538620029998,192.4538620029998,192.4538620029998,192.43462249700042,None,0,None,192.43658950700046,192.43662893700002,None,192.4373420510001,192.43739738400018,None,192.438094827,192.4381315210003,None,,,,,,,,,,,,,,,,,,,41,001,0,,2024-04-15_10h21.05.440,replicate_nsd,2023.2.3,59.613006549363774,2024-04-15 10h22.26.068415 -0400,
images/image_592_seed_1.png,1,0,0,0,0,"[9, 19, 29, 39, 49, 59, 68, 69, 70, 71]",,,,,0,1,1,1,192.4538620029998,,,,,,,,,,,,,,,,,,,,,,,,,,,,,,,,,,,,,,,,,,,,,,192.4390682809999,192.43916341900058,192.43917390300066,192.4538620029998,192.4538620029998,193.45691168800022,193.45691168800022,196.45806779400027,196.45806779400027,196.45806779400027,196.45806779400027,196.43927178100057,None,0,None,196.439723255,196.43977154200002,None,196.4398918980005,196.43994775300052,None,196.4400701630002,196.4401078740002,None,,,,,,,,,,,,,,,,,,,41,001,0,,2024-04-15_10h21.05.440,replicate_nsd,2023.2.3,59.613006549363774,2024-04-15 10h22.26.068415 -0400,
images/image_13_seed_1.png,2,0,0,0,0,"[9, 19, 29, 39, 49, 59, 68, 69, 70, 71]",,,,,0,2,2,2,196.45806779400027,,,,,,,,,,,,,,,,,,,,,,,,,,,,,,,,,,,,,,,,,,,,,,196.44049785400057,196.44062516900067,196.44063803000063,196.45806779400027,196.45806779400027,197.48270029800005,197.48270029800005,200.482961789,200.482961789,200.482961789,200.482961789,200.46773284000028,None,0,None,200.46816368300006,200.4682056649999,None,200.46831988900067,200.4683706780006,None,200.46848258000045,200.46851802400033,None,,,,,,,,,,,,,,,,,,,41,001,0,,2024-04-15_10h21.05.440,replicate_nsd,2023.2.3,59.613006549363774,2024-04-15 10h22.26.068415 -0400,
images/image_475_seed_1.png,3,0,0,0,0,"[9, 19, 29, 39, 49, 59, 68, 69, 70, 71]",,,,,0,3,3,3,200.482961789,,,,,,,,,,,,,,,,,,,,,,,,,,,,,,,,,,,,,,,,,,,,,,200.46890124499987,200.46903992599982,200.46905000800052,200.482961789,200.482961789,201.48435867199987,201.48435867199987,204.50053630500042,204.50053630500042,204.50053630500042,204.50053630500042,204.4670910069999,None,0,None,204.46751691200006,204.46755939100058,None,204.46767218500008,204.4677230870002,None,204.46783459800008,204.46786993700061,None,,,,,,,,,,,,,,,,,,,41,001,0,,2024-04-15_10h21.05.440,replicate_nsd,2023.2.3,59.613006549363774,2024-04-15 10h22.26.068415 -0400,
images/image_518_seed_1.png,4,0,0,0,0,"[9, 19, 29, 39, 49, 59, 68, 69, 70, 71]",,,,,0,4,4,4,204.50053630500042,,,,,,,,,,,,,,,,,,,,,,,,,,,,,,,,,,,,,,,,,,,,,,204.4682502530004,204.46836771700055,204.4683806110006,204.50053630500042,204.50053630500042,205.5024463079999,205.5024463079999,208.4995630780004,208.4995630780004,208.4995630780004,208.4995630780004,208.4841727940002,None,0,None,208.4845960749999,208.48463741200067,None,208.4847484490001,208.4847989330001,None,208.48490889300047,208.48494371300058,None,,,,,,,,,,,,,,,,,,,41,001,0,,2024-04-15_10h21.05.440,replicate_nsd,2023.2.3,59.613006549363774,2024-04-15 10h22.26.068415 -0400,
images/image_117_seed_1.png,5,0,0,0,0,"[9, 19, 29, 39, 49, 59, 68, 69, 70, 71]",,,,,0,5,5,5,208.4995630780004,,,,,,,,,,,,,,,,,,,,,,,,,,,,,,,,,,,,,,,,,,,,,,208.4853150230001,208.48543345899998,208.48544613800004,208.4995630780004,208.4995630780004,209.49999115500032,209.49999115500032,212.49931812900013,212.49931812900013,212.49931812900013,212.49931812900013,212.4840090460002,None,0,None,212.48443947899978,212.48448095599997,None,212.48459422700034,212.4846465870005,None,212.4847577720002,212.48479276499984,None,,,,,,,,,,,,,,,,,,,41,001,0,,2024-04-15_10h21.05.440,replicate_nsd,2023.2.3,59.613006549363774,2024-04-15 10h22.26.068415 -0400,
images/image_374_seed_1.png,6,0,0,0,0,"[9, 19, 29, 39, 49, 59, 68, 69, 70, 71]",,,,,0,6,6,6,212.49931812900013,,,,,,,,,,,,,,,,,,,,,,,,,,,,,,,,,,,,,,,,,,,,,,212.48517386799995,212.48529133100055,212.48530415700043,212.49931812900013,212.49931812900013,213.4999532239999,213.4999532239999,216.49899749700035,216.49899749700035,216.49899749700035,216.49899749700035,216.48400903200036,None,0,None,216.48443290900013,216.48447496500012,None,216.48458806500003,216.48463880000054,None,216.48474918800002,216.48478351999984,None,,,,,,,,,,,,,,,,,,,41,001,0,,2024-04-15_10h21.05.440,replicate_nsd,2023.2.3,59.613006549363774,2024-04-15 10h22.26.068415 -0400,
images/image_420_seed_1.png,7,0,0,0,0,"[9, 19, 29, 39, 49, 59, 68, 69, 70, 71]",,,,,0,7,7,7,216.49899749700035,,,,,,,,,,,,,,,,,,,,,,,,,,,,,,,,,,,,,,,,,,,,,,216.48515588300052,216.48527329399985,216.4852858610002,216.49899749700035,216.49899749700035,217.50174875599987,217.50174875599987,220.5010684230001,220.5010684230001,220.5010684230001,220.5010684230001,220.48420018200068,None,0,None,220.48473818799994,220.48477917899982,None,220.48489242100004,220.4849440150001,None,220.48505803900025,220.4850935960003,None,,,,,,,,,,,,,,,,,,,41,001,0,,2024-04-15_10h21.05.440,replicate_nsd,2023.2.3,59.613006549363774,2024-04-15 10h22.26.068415 -0400,
images/image_205_seed_1.png,8,0,0,0,0,"[9, 19, 29, 39, 49, 59, 68, 69, 70, 71]",,,,,0,8,8,8,220.5010684230001,,,,,,,,,,,,,,,,,,,,,,,,,,,,,,,,,,,,,,,,,,,,,,220.4854786220003,220.48559495000063,220.48560765399998,220.5010684230001,220.5010684230001,221.49998184800006,221.49998184800006,224.49972098800026,224.49972098800026,224.49972098800026,224.49972098800026,224.48404577600013,None,0,None,224.48447522300012,224.48451760199987,None,224.48462997300066,224.48468108900033,None,224.484793998,224.48483030599982,None,,,,,,,,,,,,,,,,,,,41,001,0,,2024-04-15_10h21.05.440,replicate_nsd,2023.2.3,59.613006549363774,2024-04-15 10h22.26.068415 -0400,
blank.jpg,9,1,0,0,0,"[9, 19, 29, 39, 49, 59, 68, 69, 70, 71]",,,,,0,9,9,9,224.49972098800026,,,,,,,,,,,,,,,,,,,,,,,,,,,,,,,,,,,,,,,,,,,,,,224.48521188999985,224.48533241800033,224.48534516500058,,,,,,,,,224.48970027399992,None,0,None,224.49008454900013,228.4858233240002,None,228.48603678900054,228.4860923440001,None,228.48622207400058,228.48625922500014,None,224.49972098800026,224.49972098800026,228.50021350099996,228.50021350099996,,,,,,,,,,,,,,,41,001,0,,2024-04-15_10h21.05.440,replicate_nsd,2023.2.3,59.613006549363774,2024-04-15 10h22.26.068415 -0400,
images/image_594_seed_1.png,10,0,0,0,0,"[9, 19, 29, 39, 49, 59, 68, 69, 70, 71]",,,,,0,10,10,10,228.50021350099996,,,,,,,,,,,,,,,,,,,,,,,,,,,,,,,,,,,,,,,,,,,,,,228.4866589379999,228.48677757400037,228.48679016500046,228.50021350099996,228.50021350099996,229.4998401290004,229.4998401290004,232.49896638800055,232.49896638800055,232.49896638800055,232.49896638800055,232.48398303200065,None,0,None,232.48440671900062,232.48444965999988,None,232.48456154199994,232.48461387299994,None,232.48472405200027,232.48475841900017,None,,,,,,,,,,,,,,,,,,,41,001,0,,2024-04-15_10h21.05.440,replicate_nsd,2023.2.3,59.613006549363774,2024-04-15 10h22.26.068415 -0400,
images/image_631_seed_1.png,11,0,0,0,0,"[9, 19, 29, 39, 49, 59, 68, 69, 70, 71]",,,,,0,11,11,11,232.49896638800055,,,,,,,,,,,,,,,,,,,,,,,,,,,,,,,,,,,,,,,,,,,,,,232.48513439399994,232.48525155900006,232.4852640979998,232.49896638800055,232.49896638800055,233.4998016899999,233.4998016899999,236.4987616440003,236.4987616440003,236.4987616440003,236.4987616440003,236.48350650300017,None,0,None,236.48393947600016,236.483982836,None,236.4840986750005,236.48415091700008,None,236.48426415799986,236.48430075000033,None,,,,,,,,,,,,,,,,,,,41,001,0,,2024-04-15_10h21.05.440,replicate_nsd,2023.2.3,59.613006549363774,2024-04-15 10h22.26.068415 -0400,
images/image_621_seed_1.png,12,0,0,0,0,"[9, 19, 29, 39, 49, 59, 68, 69, 70, 71]",,,,,0,12,12,12,236.4987616440003,,,,,,,,,,,,,,,,,,,,,,,,,,,,,,,,,,,,,,,,,,,,,,236.48468605700054,236.48480539899992,236.48481865699978,236.4987616440003,236.4987616440003,237.4993901429998,237.4993901429998,240.50139463400046,240.50139463400046,240.50139463400046,240.50139463400046,240.48390986100003,None,0,None,240.48459674600053,240.48464041500029,None,240.48475693,240.48480721400028,None,240.48492050999994,240.48495554200053,None,,,,,,,,,,,,,,,,,,,41,001,0,,2024-04-15_10h21.05.440,replicate_nsd,2023.2.3,59.613006549363774,2024-04-15 10h22.26.068415 -0400,
images/image_349_seed_1.png,13,0,0,0,0,"[9, 19, 29, 39, 49, 59, 68, 69, 70, 71]",,,,,0,13,13,13,240.50139463400046,,,,,,,,,,,,,,,,,,,,,,,,,,,,,,,,,,,,,,,,,,,,,,240.48534026700054,240.4854590290006,240.48547143999986,240.50139463400046,240.50139463400046,241.49975051,241.49975051,244.49916668200058,244.49916668200058,244.49916668200058,244.49916668200058,244.48400917800063,None,0,None,244.48443677700016,244.4844794010005,None,244.48459267199996,244.48464348200014,None,244.48475529799998,244.4847908620004,None,,,,,,,,,,,,,,,,,,,41,001,0,,2024-04-15_10h21.05.440,replicate_nsd,2023.2.3,59.613006549363774,2024-04-15 10h22.26.068415 -0400,
images/image_533_seed_1.png,14,0,0,0,0,"[9, 19, 29, 39, 49, 59, 68, 69, 70, 71]",,,,,0,14,14,14,244.49916668200058,,,,,,,,,,,,,,,,,,,,,,,,,,,,,,,,,,,,,,,,,,,,,,244.48518169199997,244.48530022400064,244.48531276599988,244.49916668200058,244.49916668200058,245.49985378700057,245.49985378700057,248.50134769800025,248.50134769800025,248.50134769800025,248.50134769800025,248.4842026440001,None,0,None,248.48473980800009,248.48478198000066,None,248.48489458699987,248.48494598100024,None,248.4850581589999,248.48509387400009,None,,,,,,,,,,,,,,,,,,,41,001,0,,2024-04-15_10h21.05.440,replicate_nsd,2023.2.3,59.613006549363774,2024-04-15 10h22.26.068415 -0400,
images/image_47_seed_1.png,15,0,0,0,0,"[9, 19, 29, 39, 49, 59, 68, 69, 70, 71]",,,,,0,15,15,15,248.50134769800025,,,,,,,,,,,,,,,,,,,,,,,,,,,,,,,,,,,,,,,,,,,,,,248.48547548500028,248.48559511199983,248.48560805299985,248.50134769800025,248.50134769800025,249.4998277250006,249.4998277250006,252.4988563349998,252.4988563349998,252.4988563349998,252.4988563349998,252.4839613439999,None,0,None,252.4843864049999,252.48442826300015,None,252.4845412350005,252.48459351300062,None,252.4847058280002,252.4847415760005,None,,,,,,,,,,,,,,,,,,,41,001,0,,2024-04-15_10h21.05.440,replicate_nsd,2023.2.3,59.613006549363774,2024-04-15 10h22.26.068415 -0400,
images/image_623_seed_1.png,16,0,0,0,0,"[9, 19, 29, 39, 49, 59, 68, 69, 70, 71]",,,,,0,16,16,16,252.4988563349998,,,,,,,,,,,,,,,,,,,,,,,,,,,,,,,,,,,,,,,,,,,,,,252.48512424,252.48524322000048,252.4852561759999,252.4988563349998,252.4988563349998,253.49992798099993,253.49992798099993,256.49890736,256.49890736,256.49890736,256.49890736,256.4839169229999,None,0,None,256.4843453950007,256.4843876770001,None,256.4845007120002,256.4845517949998,None,256.4846640269998,256.48469960700004,None,,,,,,,,,,,,,,,,,,,41,001,0,,2024-04-15_10h21.05.440,replicate_nsd,2023.2.3,59.613006549363774,2024-04-15 10h22.26.068415 -0400,
images/image_190_seed_1.png,17,0,0,0,0,"[9, 19, 29, 39, 49, 59, 68, 69, 70, 71]",,,,,0,17,17,17,256.49890736,,,,,,,,,,,,,,,,,,,,,,,,,,,,,,,,,,,,,,,,,,,,,,256.48508062400015,256.4851993379998,256.4852121980002,256.49890736,256.49890736,257.4997869859999,257.4997869859999,260.49916132199996,260.49916132199996,260.49916132199996,260.49916132199996,260.48399457899995,None,0,None,260.4844240849998,260.48446696000065,None,260.48457908900036,260.484630766,None,260.4847438810002,260.4847801470005,None,,,,,,,,,,,,,,,,,,,41,001,0,,2024-04-15_10h21.05.440,replicate_nsd,2023.2.3,59.613006549363774,2024-04-15 10h22.26.068415 -0400,
images/image_65_seed_1.png,18,0,0,0,0,"[9, 19, 29, 39, 49, 59, 68, 69, 70, 71]",,,,,0,18,18,18,260.49916132199996,,,,,,,,,,,,,,,,,,,,,,,,,,,,,,,,,,,,,,,,,,,,,,260.4851645460003,260.48528376800004,260.4852966320004,260.49916132199996,260.49916132199996,261.499847393,261.499847393,264.49988518200007,264.49988518200007,264.49988518200007,264.49988518200007,264.4836180930006,None,0,None,264.4840537580003,264.48409595500016,None,264.4842114889998,264.4842633980006,None,264.48437728800036,264.484414001,None,,,,,,,,,,,,,,,,,,,41,001,0,,2024-04-15_10h21.05.440,replicate_nsd,2023.2.3,59.613006549363774,2024-04-15 10h22.26.068415 -0400,
blank.jpg,19,1,0,0,0,"[9, 19, 29, 39, 49, 59, 68, 69, 70, 71]",,,,,0,19,19,19,264.49988518200007,,,,,,,,,,,,,,,,,,,,,,,,,,,,,,,,,,,,,,,,,,,,,,264.48480055800064,264.48492097100007,264.4849340440005,,,,,,,,,264.48799339500056,None,0,None,264.48830190100034,268.4823297920002,None,268.482436409,268.482464187,None,268.48252461599986,268.4825421229998,None,264.49988518200007,264.49988518200007,268.4999506860004,268.4999506860004,,,,,,,,,,,,,,,41,001,0,,2024-04-15_10h21.05.440,replicate_nsd,2023.2.3,59.613006549363774,2024-04-15 10h22.26.068415 -0400,
images/image_183_seed_1.png,20,0,0,0,0,"[9, 19, 29, 39, 49, 59, 68, 69, 70, 71]",,,,,0,20,20,20,268.4999506860004,,,,,,,,,,,,,,,,,,,,,,,,,,,,,,,,,,,,,,,,,,,,,,268.4827343830002,268.482792025,268.48279804699996,268.4999506860004,268.4999506860004,269.4989707240002,269.4989707240002,272.4989059460004,272.4989059460004,272.4989059460004,272.4989059460004,272.48389417199996,None,0,None,272.48409761699986,272.4841179639998,None,272.4841707559999,272.4841962340006,None,272.48424888000045,272.4842658100006,None,,,,,,,,,,,,,,,,,,,41,001,0,,2024-04-15_10h21.05.440,replicate_nsd,2023.2.3,59.613006549363774,2024-04-15 10h22.26.068415 -0400,
images/image_399_seed_1.png,21,0,0,0,0,"[9, 19, 29, 39, 49, 59, 68, 69, 70, 71]",,,,,0,21,21,21,272.4989059460004,,,,,,,,,,,,,,,,,,,,,,,,,,,,,,,,,,,,,,,,,,,,,,272.48444822200054,272.48450392999985,272.4845098960004,272.4989059460004,272.4989059460004,273.50248215900046,273.50248215900046,276.4989193250003,276.4989193250003,276.4989193250003,276.4989193250003,276.4824948430005,1,1,None,276.4831720729999,276.4831935760003,None,276.4832458660003,276.4832718819998,None,276.48332302900053,276.4833400000007,None,,,,,0.9222204309999142,None,,,,,,,,,,,,,41,001,0,,2024-04-15_10h21.05.440,replicate_nsd,2023.2.3,59.613006549363774,2024-04-15 10h22.26.068415 -0400,
images/image_355_seed_1.png,22,0,0,0,0,"[9, 19, 29, 39, 49, 59, 68, 69, 70, 71]",,,,,0,22,22,22,276.4989193250003,,,,,,,,,,,,,,,,,,,,,,,,,,,,,,,,,,,,,,,,,,,,,,276.4835176360002,276.4835766420001,276.4835824080001,276.4989193250003,276.4989193250003,277.50147363999986,277.50147363999986,280.49893503600015,280.49893503600015,280.49893503600015,280.49893503600015,280.48388270800024,None,0,None,280.48407733100066,280.48409656400054,None,280.48414759500065,280.4841714869999,None,280.48422239000047,280.4842389410005,None,,,,,,,,,,,,,,,,,,,41,001,0,,2024-04-15_10h21.05.440,replicate_nsd,2023.2.3,59.613006549363774,2024-04-15 10h22.26.068415 -0400,
images/image_393_seed_1.png,23,0,0,0,0,"[9, 19, 29, 39, 49, 59, 68, 69, 70, 71]",,,,,0,23,23,23,280.49893503600015,,,,,,,,,,,,,,,,,,,,,,,,,,,,,,,,,,,,,,,,,,,,,,280.4844156320005,280.484470118,280.48447596500046,280.49893503600015,280.49893503600015,281.4989606170002,281.4989606170002,284.49885023300067,284.49885023300067,284.49885023300067,284.49885023300067,284.4839047280002,None,0,None,284.4840998130003,284.4841190040006,None,284.484171221,284.4841957440003,None,284.4842467620001,284.4842629630002,None,,,,,,,,,,,,,,,,,,,41,001,0,,2024-04-15_10h21.05.440,replicate_nsd,2023.2.3,59.613006549363774,2024-04-15 10h22.26.068415 -0400,
images/image_589_seed_1.png,24,0,0,0,0,"[9, 19, 29, 39, 49, 59, 68, 69, 70, 71]",,,,,0,24,24,24,284.49885023300067,,,,,,,,,,,,,,,,,,,,,,,,,,,,,,,,,,,,,,,,,,,,,,284.4844405720005,284.4844943650005,284.48450000200046,284.49885023300067,284.49885023300067,285.49951448499996,285.49951448499996,288.4989078469998,288.4989078469998,288.4989078469998,288.4989078469998,288.4839678919998,None,0,None,288.48439048100045,288.4844159740005,None,288.4844816250006,288.4845120930004,None,288.4845757869998,288.4845960920002,None,,,,,,,,,,,,,,,,,,,41,001,0,,2024-04-15_10h21.05.440,replicate_nsd,2023.2.3,59.613006549363774,2024-04-15 10h22.26.068415 -0400,
images/image_624_seed_1.png,25,0,0,0,0,"[9, 19, 29, 39, 49, 59, 68, 69, 70, 71]",,,,,0,25,25,25,288.4989078469998,,,,,,,,,,,,,,,,,,,,,,,,,,,,,,,,,,,,,,,,,,,,,,288.4848149220006,288.48488471900055,288.48489198400057,288.4989078469998,288.4989078469998,289.50076411900045,289.50076411900045,292.4988936660002,292.4988936660002,292.4988936660002,292.4988936660002,292.4839499310001,None,0,None,292.4841528980005,292.48417245200017,None,292.4842237419998,292.4842488080003,None,292.48429930100065,292.48431588699987,None,,,,,,,,,,,,,,,,,,,41,001,0,,2024-04-15_10h21.05.440,replicate_nsd,2023.2.3,59.613006549363774,2024-04-15 10h22.26.068415 -0400,
images/image_619_seed_1.png,26,0,0,0,0,"[9, 19, 29, 39, 49, 59, 68, 69, 70, 71]",,,,,0,26,26,26,292.4988936660002,,,,,,,,,,,,,,,,,,,,,,,,,,,,,,,,,,,,,,,,,,,,,,292.4844954950004,292.4845505789999,292.4845565330006,292.4988936660002,292.4988936660002,293.49886492099995,293.49886492099995,296.4988811060002,296.4988811060002,296.4988811060002,296.4988811060002,296.48391811700003,None,0,None,296.48411018000024,296.48412936600016,None,296.48417957899983,296.4842039040004,None,296.48425317000056,296.4842690129999,None,,,,,,,,,,,,,,,,,,,41,001,0,,2024-04-15_10h21.05.440,replicate_nsd,2023.2.3,59.613006549363774,2024-04-15 10h22.26.068415 -0400,
images/image_427_seed_1.png,27,0,0,0,0,"[9, 19, 29, 39, 49, 59, 68, 69, 70, 71]",,,,,0,27,27,27,296.4988811060002,,,,,,,,,,,,,,,,,,,,,,,,,,,,,,,,,,,,,,,,,,,,,,296.4844406020002,296.48449486500067,296.48450051500004,296.4988811060002,296.4988811060002,297.50137588300004,297.50137588300004,300.4988241990004,300.4988241990004,300.4988241990004,300.4988241990004,300.4839112110003,None,0,None,300.48410783300005,300.48412721800014,None,300.48417886100015,300.48420376500053,None,300.48425518300064,300.48427210000045,None,,,,,,,,,,,,,,,,,,,41,001,0,,2024-04-15_10h21.05.440,replicate_nsd,2023.2.3,59.613006549363774,2024-04-15 10h22.26.068415 -0400,
images/image_285_seed_1.png,28,0,0,0,0,"[9, 19, 29, 39, 49, 59, 68, 69, 70, 71]",,,,,0,28,28,28,300.4988241990004,,,,,,,,,,,,,,,,,,,,,,,,,,,,,,,,,,,,,,,,,,,,,,300.4844521700006,300.48450736500035,300.48451315000057,300.4988241990004,300.4988241990004,301.50066844699995,301.50066844699995,304.4988286300004,304.4988286300004,304.4988286300004,304.4988286300004,304.48394587300027,None,0,None,304.4841834130002,304.4842069690003,None,304.48426888799986,304.4842975270003,None,304.48435841300034,304.4843778459999,None,,,,,,,,,,,,,,,,,,,41,001,0,,2024-04-15_10h21.05.440,replicate_nsd,2023.2.3,59.613006549363774,2024-04-15 10h22.26.068415 -0400,
blank.jpg,29,1,0,0,0,"[9, 19, 29, 39, 49, 59, 68, 69, 70, 71]",,,,,0,29,29,29,304.4988286300004,,,,,,,,,,,,,,,,,,,,,,,,,,,,,,,,,,,,,,,,,,,,,,304.4845892399999,304.4846558119998,304.48466299700067,,,,,,,,,304.4864821480005,None,0,None,304.4866801140006,308.4826683070005,None,308.48276944900044,308.482795766,None,308.4828543399999,308.4828714180003,None,304.4988286300004,304.4988286300004,308.4995333100005,308.4995333100005,,,,,,,,,,,,,,,41,001,0,,2024-04-15_10h21.05.440,replicate_nsd,2023.2.3,59.613006549363774,2024-04-15 10h22.26.068415 -0400,
images/image_688_seed_1.png,30,0,0,0,0,"[9, 19, 29, 39, 49, 59, 68, 69, 70, 71]",,,,,0,30,30,30,308.4995333100005,,,,,,,,,,,,,,,,,,,,,,,,,,,,,,,,,,,,,,,,,,,,,,308.48306078899986,308.4831159860005,308.4831219160005,308.4995333100005,308.4995333100005,309.50087685500057,309.50087685500057,312.49888255299993,312.49888255299993,312.49888255299993,312.49888255299993,312.48210553900026,None,0,None,312.4823044169998,312.4823242520006,None,312.482375478,312.4823997530002,None,312.48245055500047,312.4824675910004,None,,,,,,,,,,,,,,,,,,,41,001,0,,2024-04-15_10h21.05.440,replicate_nsd,2023.2.3,59.613006549363774,2024-04-15 10h22.26.068415 -0400,
images/image_82_seed_1.png,31,0,0,0,0,"[9, 19, 29, 39, 49, 59, 68, 69, 70, 71]",,,,,0,31,31,31,312.49888255299993,,,,,,,,,,,,,,,,,,,,,,,,,,,,,,,,,,,,,,,,,,,,,,312.4826468179999,312.4827011180005,312.48270700300054,312.49888255299993,312.49888255299993,313.50101595600063,313.50101595600063,316.49829116399997,316.49829116399997,316.49829116399997,316.49829116399997,316.48201806700035,None,0,None,316.482230134,316.48225126299985,None,316.48230700100066,316.4823339330005,None,316.48238926200065,316.4824076140003,None,,,,,,,,,,,,,,,,,,,41,001,0,,2024-04-15_10h21.05.440,replicate_nsd,2023.2.3,59.613006549363774,2024-04-15 10h22.26.068415 -0400,
images/image_15_seed_1.png,32,0,0,0,0,"[9, 19, 29, 39, 49, 59, 68, 69, 70, 71]",,,,,0,32,32,32,316.49829116399997,,,,,,,,,,,,,,,,,,,,,,,,,,,,,,,,,,,,,,,,,,,,,,316.4825999149998,316.482659497,316.4826658640004,316.49829116399997,316.49829116399997,317.499630628,317.499630628,320.49887718300033,320.49887718300033,320.49887718300033,320.49887718300033,320.4839596940001,None,0,None,320.48420564800017,320.4842291570003,None,320.48429090599984,320.4843197520004,None,320.48437996600023,320.4843995860001,None,,,,,,,,,,,,,,,,,,,41,001,0,,2024-04-15_10h21.05.440,replicate_nsd,2023.2.3,59.613006549363774,2024-04-15 10h22.26.068415 -0400,
images/image_522_seed_1.png,33,0,0,0,0,"[9, 19, 29, 39, 49, 59, 68, 69, 70, 71]",,,,,0,33,33,33,320.49887718300033,,,,,,,,,,,,,,,,,,,,,,,,,,,,,,,,,,,,,,,,,,,,,,320.4846116230001,320.4846795580006,320.4846867160004,320.49887718300033,320.49887718300033,321.499654061,321.499654061,324.4996407690005,324.4996407690005,324.4996407690005,324.4996407690005,324.4848491620005,None,0,None,324.48511024800064,324.4851347160002,None,324.4851956319999,324.48522507800044,None,324.48528633800015,324.4853060530004,None,,,,,,,,,,,,,,,,,,,41,001,0,,2024-04-15_10h21.05.440,replicate_nsd,2023.2.3,59.613006549363774,2024-04-15 10h22.26.068415 -0400,
images/image_18_seed_1.png,34,0,0,0,0,"[9, 19, 29, 39, 49, 59, 68, 69, 70, 71]",,,,,0,34,34,34,324.4996407690005,,,,,,,,,,,,,,,,,,,,,,,,,,,,,,,,,,,,,,,,,,,,,,324.4855214340005,324.48558838200006,324.48559536799985,324.4996407690005,324.4996407690005,325.50062900600005,325.50062900600005,328.4981858760002,328.4981858760002,328.4981858760002,328.4981858760002,328.4819771950006,None,0,None,328.4821734679999,328.48219306100054,None,328.4822443510002,328.48226828299994,None,328.4823196490006,328.4823362520001,None,,,,,,,,,,,,,,,,,,,41,001,0,,2024-04-15_10h21.05.440,replicate_nsd,2023.2.3,59.613006549363774,2024-04-15 10h22.26.068415 -0400,
images/image_2_seed_1.png,35,0,0,0,0,"[9, 19, 29, 39, 49, 59, 68, 69, 70, 71]",,,,,0,35,35,35,328.4981858760002,,,,,,,,,,,,,,,,,,,,,,,,,,,,,,,,,,,,,,,,,,,,,,328.4825156040006,328.4825693700004,328.48257517100046,328.4981858760002,328.4981858760002,329.4988221570002,329.4988221570002,332.49873495500015,332.49873495500015,332.49873495500015,332.49873495500015,332.48392766600045,None,0,None,332.4841730200005,332.4841958070001,None,332.4842541449998,332.48428125900045,None,332.4843522580004,332.4843697440001,None,,,,,,,,,,,,,,,,,,,41,001,0,,2024-04-15_10h21.05.440,replicate_nsd,2023.2.3,59.613006549363774,2024-04-15 10h22.26.068415 -0400,
images/image_357_seed_1.png,36,0,0,0,0,"[9, 19, 29, 39, 49, 59, 68, 69, 70, 71]",,,,,0,36,36,36,332.49873495500015,,,,,,,,,,,,,,,,,,,,,,,,,,,,,,,,,,,,,,,,,,,,,,332.48458371200013,332.4846894070006,332.48469563900017,332.49873495500015,332.49873495500015,333.49895455000024,333.49895455000024,336.49881855500007,336.49881855500007,336.49881855500007,336.49881855500007,336.482658678,None,0,None,336.4829087879998,336.4829330190005,None,336.4829957359998,336.4830246880001,None,336.4830863289999,336.48310661100004,None,,,,,,,,,,,,,,,,,,,41,001,0,,2024-04-15_10h21.05.440,replicate_nsd,2023.2.3,59.613006549363774,2024-04-15 10h22.26.068415 -0400,
images/image_4_seed_1.png,37,0,0,0,0,"[9, 19, 29, 39, 49, 59, 68, 69, 70, 71]",,,,,0,37,37,37,336.49881855500007,,,,,,,,,,,,,,,,,,,,,,,,,,,,,,,,,,,,,,,,,,,,,,336.48332351000045,336.4833910240004,336.48339827200016,336.49881855500007,336.49881855500007,337.5005694520005,337.5005694520005,340.4987794990002,340.4987794990002,340.4987794990002,340.4987794990002,340.48260641100023,None,0,None,340.48285546900024,340.48287931600044,None,340.48294129700025,340.4829717270004,None,340.4830338130005,340.4830539459999,None,,,,,,,,,,,,,,,,,,,41,001,0,,2024-04-15_10h21.05.440,replicate_nsd,2023.2.3,59.613006549363774,2024-04-15 10h22.26.068415 -0400,
images/image_464_seed_1.png,38,0,0,0,0,"[9, 19, 29, 39, 49, 59, 68, 69, 70, 71]",,,,,0,38,38,38,340.4987794990002,,,,,,,,,,,,,,,,,,,,,,,,,,,,,,,,,,,,,,,,,,,,,,340.48327112600055,340.4833391940001,340.4833462860006,340.4987794990002,340.4987794990002,341.4987618230007,341.4987618230007,344.49873032400046,344.49873032400046,344.49873032400046,344.49873032400046,344.4820723800003,None,0,None,344.48227275800036,344.4822928829999,None,344.48234554900046,344.4823709020002,None,344.4824224539998,344.48243938999985,None,,,,,,,,,,,,,,,,,,,41,001,0,,2024-04-15_10h21.05.440,replicate_nsd,2023.2.3,59.613006549363774,2024-04-15 10h22.26.068415 -0400,
blank.jpg,39,1,0,0,0,"[9, 19, 29, 39, 49, 59, 68, 69, 70, 71]",,,,,0,39,39,39,344.49873032400046,,,,,,,,,,,,,,,,,,,,,,,,,,,,,,,,,,,,,,,,,,,,,,344.48262054800034,344.4826768540006,344.48268288500003,,,,,,,,,344.4851306850005,None,0,None,344.48529429500013,348.4837389780005,"['1', '1', '1']",348.4847978790003,348.48482828600027,None,348.4848892500004,348.48490756499996,None,344.49873032400046,344.49873032400046,348.4988736860005,348.4988736860005,,,"[3.284341208999649, 3.580333160999544, 3.8043227119997027]","[None, None, None]",,,,,,,,,,,41,001,0,,2024-04-15_10h21.05.440,replicate_nsd,2023.2.3,59.613006549363774,2024-04-15 10h22.26.068415 -0400,
images/image_264_seed_1.png,40,0,0,0,0,"[9, 19, 29, 39, 49, 59, 68, 69, 70, 71]",,,,,0,40,40,40,348.4988736860005,,,,,,,,,,,,,,,,,,,,,,,,,,,,,,,,,,,,,,,,,,,,,,348.48509694899985,348.48515264400066,348.48515882799984,348.4988736860005,348.4988736860005,349.4991559230002,349.4991559230002,352.50247806400057,352.50247806400057,352.50247806400057,352.50247806400057,352.4857173070004,None,0,['1'],352.4868888730007,352.4869193080003,None,352.4869881470004,352.4870291360003,None,352.48709304100066,352.48711249999997,None,,,,,,,,,[0.024168117999579408],[None],,,,,,,,,41,001,0,,2024-04-15_10h21.05.440,replicate_nsd,2023.2.3,59.613006549363774,2024-04-15 10h22.26.068415 -0400,
images/image_130_seed_1.png,41,0,0,0,0,"[9, 19, 29, 39, 49, 59, 68, 69, 70, 71]",,,,,0,41,41,41,352.50247806400057,,,,,,,,,,,,,,,,,,,,,,,,,,,,,,,,,,,,,,,,,,,,,,352.48732762800046,352.4873991149998,352.48740609700053,352.50247806400057,352.50247806400057,353.503494177,353.503494177,356.4987949380002,356.4987949380002,356.4987949380002,356.4987949380002,356.4837358599998,None,0,None,356.4839366420001,356.4839569760006,None,356.48400958,356.4840348030002,None,356.4840867820003,356.48410392000005,None,,,,,,,,,,,,,,,,,,,41,001,0,,2024-04-15_10h21.05.440,replicate_nsd,2023.2.3,59.613006549363774,2024-04-15 10h22.26.068415 -0400,
images/image_711_seed_1.png,42,0,0,0,0,"[9, 19, 29, 39, 49, 59, 68, 69, 70, 71]",,,,,0,42,42,42,356.4987949380002,,,,,,,,,,,,,,,,,,,,,,,,,,,,,,,,,,,,,,,,,,,,,,356.4842857000003,356.48434191900014,356.48434792399985,356.4987949380002,356.4987949380002,357.50050196900065,357.50050196900065,360.49809429700053,360.49809429700053,360.49809429700053,360.49809429700053,360.4814039940002,None,0,None,360.4817421460002,360.48176150900053,None,360.48181506200035,360.48183999400044,None,360.4818911809998,360.48190766300013,None,,,,,,,,,,,,,,,,,,,41,001,0,,2024-04-15_10h21.05.440,replicate_nsd,2023.2.3,59.613006549363774,2024-04-15 10h22.26.068415 -0400,
images/image_472_seed_1.png,43,0,0,0,0,"[9, 19, 29, 39, 49, 59, 68, 69, 70, 71]",,,,,0,43,43,43,360.49809429700053,,,,,,,,,,,,,,,,,,,,,,,,,,,,,,,,,,,,,,,,,,,,,,360.48208594800053,360.48214099800043,360.4821468939999,360.49809429700053,360.49809429700053,361.49989032900066,361.49989032900066,364.49884295300035,364.49884295300035,364.49884295300035,364.49884295300035,364.4838933410001,1,1,None,364.48416724300023,364.48418681300063,None,364.484236192,364.48426059099984,None,364.48431038000035,364.48432686200067,None,,,,,2.7551456420005707,None,,,,,,,,,,,,,41,001,0,,2024-04-15_10h21.05.440,replicate_nsd,2023.2.3,59.613006549363774,2024-04-15 10h22.26.068415 -0400,
images/image_350_seed_1.png,44,0,0,0,0,"[9, 19, 29, 39, 49, 59, 68, 69, 70, 71]",,,,,0,44,44,44,364.49884295300035,,,,,,,,,,,,,,,,,,,,,,,,,,,,,,,,,,,,,,,,,,,,,,364.4845040250002,364.48455831699994,364.4845641789998,364.49884295300035,364.49884295300035,365.4998471550007,365.4998471550007,368.49866336500054,368.49866336500054,368.49866336500054,368.49866336500054,368.4840550600002,None,0,['1'],368.48436978800055,368.4843906800006,None,368.4844428920005,368.4844685530006,None,368.4845204250005,368.48453766200055,None,,,,,,,,,[0.10422455399930186],[None],,,,,,,,,41,001,0,,2024-04-15_10h21.05.440,replicate_nsd,2023.2.3,59.613006549363774,2024-04-15 10h22.26.068415 -0400,
images/image_321_seed_1.png,45,0,0,0,0,"[9, 19, 29, 39, 49, 59, 68, 69, 70, 71]",,,,,0,45,45,45,368.49866336500054,,,,,,,,,,,,,,,,,,,,,,,,,,,,,,,,,,,,,,,,,,,,,,368.4847232490001,368.4847814270006,368.484787329,368.49866336500054,368.49866336500054,369.49974732400005,369.49974732400005,372.498890074,372.498890074,372.498890074,372.498890074,372.48394173199995,None,0,None,372.48415176800063,372.48417155900006,None,372.48422982600005,372.4842556419999,None,372.48445220600024,372.48446996300027,None,,,,,,,,,,,,,,,,,,,41,001,0,,2024-04-15_10h21.05.440,replicate_nsd,2023.2.3,59.613006549363774,2024-04-15 10h22.26.068415 -0400,
images/image_430_seed_1.png,46,0,0,0,0,"[9, 19, 29, 39, 49, 59, 68, 69, 70, 71]",,,,,0,46,46,46,372.498890074,,,,,,,,,,,,,,,,,,,,,,,,,,,,,,,,,,,,,,,,,,,,,,372.4847089590003,372.4848138420002,372.48482025500016,372.498890074,372.498890074,373.4989244919998,373.4989244919998,376.49872475900065,376.49872475900065,376.49872475900065,376.49872475900065,376.48374828600026,None,0,None,376.4839478650001,376.4839683050004,None,376.4840210350003,376.48404592099996,None,376.4840977290005,376.48411465000027,None,,,,,,,,,,,,,,,,,,,41,001,0,,2024-04-15_10h21.05.440,replicate_nsd,2023.2.3,59.613006549363774,2024-04-15 10h22.26.068415 -0400,
images/image_121_seed_1.png,47,0,0,0,0,"[9, 19, 29, 39, 49, 59, 68, 69, 70, 71]",,,,,0,47,47,47,376.49872475900065,,,,,,,,,,,,,,,,,,,,,,,,,,,,,,,,,,,,,,,,,,,,,,376.48431015799997,376.48436488100015,376.48437064800055,376.49872475900065,376.49872475900065,377.49922606700056,377.49922606700056,380.5001025170004,380.5001025170004,380.5001025170004,380.5001025170004,380.4835950650004,1,1,"['1', '1', '1', '1']",380.4840833349999,380.4841092460001,None,380.4841710130004,380.48420330299996,None,380.48426770900005,380.484288957,None,,,,,0.03178934500010655,None,,,"[0.1923369130008723, 0.41633541300052457, 0.6163675050001984, 0.8203391630004262]","[None, None, None, None]",,,,,,,,,41,001,0,,2024-04-15_10h21.05.440,replicate_nsd,2023.2.3,59.613006549363774,2024-04-15 10h22.26.068415 -0400,
images/image_738_seed_1.png,48,0,0,0,0,"[9, 19, 29, 39, 49, 59, 68, 69, 70, 71]",,,,,0,48,48,48,380.5001025170004,,,,,,,,,,,,,,,,,,,,,,,,,,,,,,,,,,,,,,,,,,,,,,380.48451119499987,380.4845841840006,380.4845916969998,380.5001025170004,380.5001025170004,381.49913517300047,381.49913517300047,384.50020606199996,384.50020606199996,384.50020606199996,384.50020606199996,384.4826409799998,None,0,None,384.4828990350006,384.48292324400063,None,384.48298555400015,384.4830154179999,None,384.4830779210006,384.48309782700017,None,,,,,,,,,,,,,,,,,,,41,001,0,,2024-04-15_10h21.05.440,replicate_nsd,2023.2.3,59.613006549363774,2024-04-15 10h22.26.068415 -0400,
blank.jpg,49,1,0,0,0,"[9, 19, 29, 39, 49, 59, 68, 69, 70, 71]",,,,,0,49,49,49,384.50020606199996,,,,,,,,,,,,,,,,,,,,,,,,,,,,,,,,,,,,,,,,,,,,,,384.483315771,384.48338581700045,384.4833929340002,,,,,,,,,384.48585583100066,None,0,None,384.4860678370005,388.4823379919999,None,388.4824506519999,388.48247772500054,None,388.4825373190006,388.4825551240001,None,384.50020606199996,384.50020606199996,388.49923431000025,388.49923431000025,,,,,,,,,,,,,,,41,001,0,,2024-04-15_10h21.05.440,replicate_nsd,2023.2.3,59.613006549363774,2024-04-15 10h22.26.068415 -0400,
images/image_261_seed_1.png,50,0,0,0,0,"[9, 19, 29, 39, 49, 59, 68, 69, 70, 71]",,,,,0,50,50,50,388.49923431000025,,,,,,,,,,,,,,,,,,,,,,,,,,,,,,,,,,,,,,,,,,,,,,388.4827466200004,388.48280278400034,388.482808838,388.49923431000025,388.49923431000025,389.51967886700004,389.51967886700004,392.5164959069998,392.5164959069998,392.5164959069998,392.5164959069998,392.49994538400006,None,0,None,392.50021212000047,392.5002368960004,None,392.5003001770001,392.5003317090004,None,392.50039485900015,392.5004152390002,None,,,,,,,,,,,,,,,,,,,41,001,0,,2024-04-15_10h21.05.440,replicate_nsd,2023.2.3,59.613006549363774,2024-04-15 10h22.26.068415 -0400,
images/image_509_seed_1.png,51,0,0,0,0,"[9, 19, 29, 39, 49, 59, 68, 69, 70, 71]",,,,,0,51,51,51,392.5164959069998,,,,,,,,,,,,,,,,,,,,,,,,,,,,,,,,,,,,,,,,,,,,,,392.5006373189999,392.50071066500004,392.5007179710001,392.5164959069998,392.5164959069998,393.5175426220003,393.5175426220003,396.53496627000004,396.53496627000004,396.53496627000004,396.53496627000004,396.5204617469999,1,1,None,396.52075371699993,396.5207745280004,None,396.5208247800001,396.52085029800037,None,396.52090125999985,396.52091830600057,None,,,,,0.673542840000664,None,,,,,,,,,,,,,41,001,0,,2024-04-15_10h21.05.440,replicate_nsd,2023.2.3,59.613006549363774,2024-04-15 10h22.26.068415 -0400,
images/image_548_seed_1.png,52,0,0,0,0,"[9, 19, 29, 39, 49, 59, 68, 69, 70, 71]",,,,,0,52,52,52,396.53496627000004,,,,,,,,,,,,,,,,,,,,,,,,,,,,,,,,,,,,,,,,,,,,,,396.5211024910004,396.5211594399998,396.5211652960006,396.53496627000004,396.53496627000004,397.5339080009999,397.5339080009999,400.5315545880003,400.5315545880003,400.5315545880003,400.5315545880003,400.5151024960005,None,0,None,400.51530059500055,400.51532074399984,None,400.51537279700005,400.5153983050004,None,400.51544904100047,400.5154659919999,None,,,,,,,,,,,,,,,,,,,41,001,0,,2024-04-15_10h21.05.440,replicate_nsd,2023.2.3,59.613006549363774,2024-04-15 10h22.26.068415 -0400,
images/image_577_seed_1.png,53,0,0,0,0,"[9, 19, 29, 39, 49, 59, 68, 69, 70, 71]",,,,,0,53,53,53,400.5315545880003,,,,,,,,,,,,,,,,,,,,,,,,,,,,,,,,,,,,,,,,,,,,,,400.5156439350003,400.5157060290003,400.5157118420002,400.5315545880003,400.5315545880003,401.533803153,401.533803153,404.53190717800044,404.53190717800044,404.53190717800044,404.53190717800044,404.51515314300013,None,0,None,404.51535053000043,404.515370221,None,404.5154213040005,404.51544555000055,None,404.5154961449998,404.5155124110006,None,,,,,,,,,,,,,,,,,,,41,001,0,,2024-04-15_10h21.05.440,replicate_nsd,2023.2.3,59.613006549363774,2024-04-15 10h22.26.068415 -0400,
images/image_302_seed_1.png,54,0,0,0,0,"[9, 19, 29, 39, 49, 59, 68, 69, 70, 71]",,,,,0,54,54,54,404.53190717800044,,,,,,,,,,,,,,,,,,,,,,,,,,,,,,,,,,,,,,,,,,,,,,404.5156911129998,404.5157457989999,404.5157515259998,404.53190717800044,404.53190717800044,405.53163687600045,405.53163687600045,408.53188220100037,408.53188220100037,408.53188220100037,408.53188220100037,408.5152387799999,None,0,None,408.5154500360004,408.5154703449998,None,408.515520981,408.5155453690004,None,408.51574277000054,408.5157603880007,None,,,,,,,,,,,,,,,,,,,41,001,0,,2024-04-15_10h21.05.440,replicate_nsd,2023.2.3,59.613006549363774,2024-04-15 10h22.26.068415 -0400,
images/image_200_seed_1.png,55,0,0,0,0,"[9, 19, 29, 39, 49, 59, 68, 69, 70, 71]",,,,,0,55,55,55,408.53188220100037,,,,,,,,,,,,,,,,,,,,,,,,,,,,,,,,,,,,,,,,,,,,,,408.51594300600027,408.5160022609998,408.5160079699999,408.53188220100037,408.53188220100037,409.5318382360001,409.5318382360001,412.53149925400066,412.53149925400066,412.53149925400066,412.53149925400066,412.515299273,None,0,None,412.5154984179999,412.51551801700043,None,412.5155688800005,412.5155935640005,None,412.515645251,412.5156621220003,None,,,,,,,,,,,,,,,,,,,41,001,0,,2024-04-15_10h21.05.440,replicate_nsd,2023.2.3,59.613006549363774,2024-04-15 10h22.26.068415 -0400,
images/image_118_seed_1.png,56,0,0,0,0,"[9, 19, 29, 39, 49, 59, 68, 69, 70, 71]",,,,,0,56,56,56,412.53149925400066,,,,,,,,,,,,,,,,,,,,,,,,,,,,,,,,,,,,,,,,,,,,,,412.51584096399984,412.5158952740003,412.515901064,412.53149925400066,412.53149925400066,413.5319661809999,413.5319661809999,416.53118697900027,416.53118697900027,416.53118697900027,416.53118697900027,416.5149946600004,None,0,None,416.51519182100037,416.5152113140002,None,416.51526284900046,416.5152869620006,None,416.51533775400003,416.51535457200043,None,,,,,,,,,,,,,,,,,,,41,001,0,,2024-04-15_10h21.05.440,replicate_nsd,2023.2.3,59.613006549363774,2024-04-15 10h22.26.068415 -0400,
images/image_632_seed_1.png,57,0,0,0,0,"[9, 19, 29, 39, 49, 59, 68, 69, 70, 71]",,,,,0,57,57,57,416.53118697900027,,,,,,,,,,,,,,,,,,,,,,,,,,,,,,,,,,,,,,,,,,,,,,416.5155315480006,416.51558603600006,416.5155918239998,416.53118697900027,416.53118697900027,417.53172695100056,417.53172695100056,420.53123152599983,420.53123152599983,420.53123152599983,420.53123152599983,420.5150143360006,None,0,None,420.5152066850005,420.515225958,None,420.5152752230006,420.51529937299983,None,420.51534854000056,420.5153648350006,None,,,,,,,,,,,,,,,,,,,41,001,0,,2024-04-15_10h21.05.440,replicate_nsd,2023.2.3,59.613006549363774,2024-04-15 10h22.26.068415 -0400,
images/image_625_seed_1.png,58,0,0,0,0,"[9, 19, 29, 39, 49, 59, 68, 69, 70, 71]",,,,,0,58,58,58,420.53123152599983,,,,,,,,,,,,,,,,,,,,,,,,,,,,,,,,,,,,,,,,,,,,,,420.5155653740003,420.51562271500006,420.5156286420006,420.53123152599983,420.53123152599983,421.53364033600064,421.53364033600064,424.5318376129999,424.5318376129999,424.5318376129999,424.5318376129999,424.51508031899994,None,0,None,424.51530199900026,424.51532358199984,None,424.5153773030006,424.51540321500033,None,424.5154712330004,424.5154889590003,None,,,,,,,,,,,,,,,,,,,41,001,0,,2024-04-15_10h21.05.440,replicate_nsd,2023.2.3,59.613006549363774,2024-04-15 10h22.26.068415 -0400,
blank.jpg,59,1,0,0,0,"[9, 19, 29, 39, 49, 59, 68, 69, 70, 71]",,,,,0,59,59,59,424.5318376129999,,,,,,,,,,,,,,,,,,,,,,,,,,,,,,,,,,,,,,,,,,,,,,424.5156812240002,424.5157415049998,424.51574758100014,,,,,,,,,424.5183530539998,None,0,None,424.5185596150004,428.51685922400065,None,428.5169577960005,428.5169845070004,None,428.51704209000036,428.51705877600034,None,424.5318376129999,424.5318376129999,428.53177226500065,428.53177226500065,,,,,,,,,,,,,,,41,001,0,,2024-04-15_10h21.05.440,replicate_nsd,2023.2.3,59.613006549363774,2024-04-15 10h22.26.068415 -0400,
images/image_583_seed_1.png,60,0,0,0,0,"[9, 19, 29, 39, 49, 59, 68, 69, 70, 71]",,,,,0,60,60,60,428.53177226500065,,,,,,,,,,,,,,,,,,,,,,,,,,,,,,,,,,,,,,,,,,,,,,428.5172444150003,428.517299698,428.5173054810002,428.53177226500065,428.53177226500065,429.5318429099998,429.5318429099998,432.53117099500014,432.53117099500014,432.53117099500014,432.53117099500014,432.51500910600043,None,0,None,432.5152048609998,432.5152252220005,None,432.5152766860001,432.51530158400055,None,432.51535287000024,432.5153696389998,None,,,,,,,,,,,,,,,,,,,41,001,0,,2024-04-15_10h21.05.440,replicate_nsd,2023.2.3,59.613006549363774,2024-04-15 10h22.26.068415 -0400,
images/image_241_seed_1.png,61,0,0,0,0,"[9, 19, 29, 39, 49, 59, 68, 69, 70, 71]",,,,,0,61,61,61,432.53117099500014,,,,,,,,,,,,,,,,,,,,,,,,,,,,,,,,,,,,,,,,,,,,,,432.515548673,432.5156022840001,432.515608056,432.53117099500014,432.53117099500014,433.5337457760006,433.5337457760006,436.5316703509998,436.5316703509998,436.5316703509998,436.5316703509998,436.516835466,None,0,None,436.51704234299996,436.51706371100045,None,436.5171224400001,436.5171492520003,None,436.51720627600025,436.51722466200044,None,,,,,,,,,,,,,,,,,,,41,001,0,,2024-04-15_10h21.05.440,replicate_nsd,2023.2.3,59.613006549363774,2024-04-15 10h22.26.068415 -0400,
images/image_666_seed_1.png,62,0,0,0,0,"[9, 19, 29, 39, 49, 59, 68, 69, 70, 71]",,,,,0,62,62,62,436.5316703509998,,,,,,,,,,,,,,,,,,,,,,,,,,,,,,,,,,,,,,,,,,,,,,436.5174212560005,436.5174790990004,436.5174852170003,436.5316703509998,436.5316703509998,437.5329318510003,437.5329318510003,440.5318546059998,440.5318546059998,440.5318546059998,440.5318546059998,440.51685094000004,None,0,None,440.5170460400004,440.51706538600047,None,440.5171149070002,440.5171391620006,None,440.5171881900005,440.5172048860004,None,,,,,,,,,,,,,,,,,,,41,001,0,,2024-04-15_10h21.05.440,replicate_nsd,2023.2.3,59.613006549363774,2024-04-15 10h22.26.068415 -0400,
images/image_130_seed_1.png,63,0,1,0,0,"[9, 19, 29, 39, 49, 59, 68, 69, 70, 71]",,,,,0,63,63,63,440.5318546059998,,,,,,,,,,,,,,,,,,,,,,,,,,,,,,,,,,,,,,,,,,,,,,440.51737884500017,440.5174333169998,440.51743905200055,440.5318546059998,440.5318546059998,441.5336523470005,441.5336523470005,444.5321745420006,444.5321745420006,444.5321745420006,444.5321745420006,444.51726431099996,None,0,None,444.51749909000046,444.5175192790002,None,444.5175681770006,444.5175930680007,None,444.51764197600005,444.5176583279999,None,,,,,,,,,,,,,,,,,,,41,001,0,,2024-04-15_10h21.05.440,replicate_nsd,2023.2.3,59.613006549363774,2024-04-15 10h22.26.068415 -0400,
images/image_324_seed_1.png,64,0,0,0,0,"[9, 19, 29, 39, 49, 59, 68, 69, 70, 71]",,,,,0,64,64,64,444.5321745420006,,,,,,,,,,,,,,,,,,,,,,,,,,,,,,,,,,,,,,,,,,,,,,444.5178350940005,444.51789426899995,444.5178998430001,444.5321745420006,444.5321745420006,445.5317576520001,445.5317576520001,448.53169509500003,448.53169509500003,448.53169509500003,448.53169509500003,448.51676588400005,None,0,None,448.51696291400003,448.51698320500054,None,448.5170352360001,448.51706035000007,None,448.517111657,448.5171284200005,None,,,,,,,,,,,,,,,,,,,41,001,0,,2024-04-15_10h21.05.440,replicate_nsd,2023.2.3,59.613006549363774,2024-04-15 10h22.26.068415 -0400,
images/image_137_seed_1.png,65,0,0,0,0,"[9, 19, 29, 39, 49, 59, 68, 69, 70, 71]",,,,,0,65,65,65,448.53169509500003,,,,,,,,,,,,,,,,,,,,,,,,,,,,,,,,,,,,,,,,,,,,,,448.5173098229998,448.51736527699995,448.5173712850001,448.53169509500003,448.53169509500003,449.53358813200066,449.53358813200066,452.5316695850006,452.5316695850006,452.5316695850006,452.5316695850006,452.5167576190006,None,0,None,452.51695059099984,452.5169696950006,None,452.51701970500017,452.51704397400044,None,452.5170940170001,452.51711058900037,None,,,,,,,,,,,,,,,,,,,41,001,0,,2024-04-15_10h21.05.440,replicate_nsd,2023.2.3,59.613006549363774,2024-04-15 10h22.26.068415 -0400,
images/image_746_seed_1.png,66,0,0,0,0,"[9, 19, 29, 39, 49, 59, 68, 69, 70, 71]",,,,,0,66,66,66,452.5316695850006,,,,,,,,,,,,,,,,,,,,,,,,,,,,,,,,,,,,,,,,,,,,,,452.5172873090005,452.5173414790006,452.5173472810002,452.5316695850006,452.5316695850006,453.5334783320004,453.5334783320004,456.531328649,456.531328649,456.531328649,456.531328649,456.5169518920002,None,0,None,456.5171639680002,456.51718427300057,None,456.5172355570003,456.5172600960004,None,456.5173106910006,456.5173284960001,None,,,,,,,,,,,,,,,,,,,41,001,0,,2024-04-15_10h21.05.440,replicate_nsd,2023.2.3,59.613006549363774,2024-04-15 10h22.26.068415 -0400,
images/image_392_seed_1.png,67,0,0,0,0,"[9, 19, 29, 39, 49, 59, 68, 69, 70, 71]",,,,,0,67,67,67,456.531328649,,,,,,,,,,,,,,,,,,,,,,,,,,,,,,,,,,,,,,,,,,,,,,456.51751087400044,456.5175677650004,456.51757381400057,456.531328649,456.531328649,457.53348673300025,457.53348673300025,460.5311747659998,460.5311747659998,460.5311747659998,460.5311747659998,460.5169837860003,None,0,None,460.51724883099996,460.51727364100043,None,460.5173350969999,460.5173645640007,None,460.51742506900064,460.517444694,None,,,,,,,,,,,,,,,,,,,41,001,0,,2024-04-15_10h21.05.440,replicate_nsd,2023.2.3,59.613006549363774,2024-04-15 10h22.26.068415 -0400,
blank.jpg,68,1,0,0,0,"[9, 19, 29, 39, 49, 59, 68, 69, 70, 71]",,,,,0,68,68,68,460.5311747659998,,,,,,,,,,,,,,,,,,,,,,,,,,,,,,,,,,,,,,,,,,,,,,460.51766146299997,460.51773217200025,460.51773891599987,,,,,,,,,460.52059361600004,None,0,None,460.52079279700047,464.5149584210003,None,464.51505602199995,464.51508364800065,None,464.51514219900037,464.5151597310005,None,460.5311747659998,460.5311747659998,464.5317667250001,464.5317667250001,,,,,,,,,,,,,,,41,001,0,,2024-04-15_10h21.05.440,replicate_nsd,2023.2.3,59.613006549363774,2024-04-15 10h22.26.068415 -0400,
blank.jpg,69,1,0,0,0,"[9, 19, 29, 39, 49, 59, 68, 69, 70, 71]",,,,,0,69,69,69,464.5317667250001,,,,,,,,,,,,,,,,,,,,,,,,,,,,,,,,,,,,,,,,,,,,,,464.51534653199997,464.5154002529998,464.515405954,,,,,,,,,464.51679186100046,None,0,None,464.51695448100054,468.5148297850001,None,468.51493181600017,468.51495997800066,None,468.5150205990003,468.51503882700035,None,464.5317667250001,464.5317667250001,468.5310837799998,468.5310837799998,,,,,,,,,,,,,,,41,001,0,,2024-04-15_10h21.05.440,replicate_nsd,2023.2.3,59.613006549363774,2024-04-15 10h22.26.068415 -0400,
blank.jpg,70,1,0,0,0,"[9, 19, 29, 39, 49, 59, 68, 69, 70, 71]",,,,,0,70,70,70,468.5310837799998,,,,,,,,,,,,,,,,,,,,,,,,,,,,,,,,,,,,,,,,,,,,,,468.5152344449998,468.5153139080003,468.51532024600056,,,,,,,,,468.516713086,None,0,None,468.51688776100036,472.5149786709999,None,472.5150903170006,472.51511832899996,None,472.5151771740002,472.5151949760002,None,468.5310837799998,468.5310837799998,472.5312818809998,472.5312818809998,,,,,,,,,,,,,,,41,001,0,,2024-04-15_10h21.05.440,replicate_nsd,2023.2.3,59.613006549363774,2024-04-15 10h22.26.068415 -0400,
blank.jpg,71,1,0,1,0,"[9, 19, 29, 39, 49, 59, 68, 69, 70, 71]",,,,,0,71,71,71,472.5312818809998,,,,,,,,,,,,,,,,,,,,,,,,,,,,,,,,,,,,,,,,,,,,,,472.5153846580006,472.51545455199994,472.51546033500017,,,,,,,,,472.5172745059999,None,0,None,472.51743947200066,476.5319059929998,None,476.5320074600004,488.9169381800002,1,488.9180474650002,493.5981600209998,equal,472.5312818809998,472.5312818809998,476.5484261020001,476.5484261020001,,,,,,,476.5484261020001,476.5484261020001,12.362596148999728,None,488.9315890940006,488.9315890940006,4.659483596999962,None,41,001,0,,2024-04-15_10h21.05.440,replicate_nsd,2023.2.3,59.613006549363774,2024-04-15 10h22.26.068415 -0400,
images/image_570_seed_1.png,0,0,0,0,1,"[9, 19, 31, 42, 56, 68, 69, 70, 71]",,,,,0,72,72,72,493.61466437800027,,,,,,,,,,,,,,,,,,,,,,,,,,,,,,,,,,,,,,,,,,,,,,493.59903223699985,493.5991045660003,493.5991118239999,493.61466437800027,493.61466437800027,494.6141156450003,494.6141156450003,497.6149863649998,497.6149863649998,497.6149863649998,497.6149863649998,497.6000749770001,1,1,"['1', '2', '1', '2', '1']",497.60045888200057,497.6004799420007,None,497.6005304850005,497.60055889200066,None,497.60061043600035,497.60062784599995,None,,,,,2.784949343000335,None,,,"[0.4243980119999833, 0.5523867540005085, 0.7204004889999851, 0.8203969740006869, 0.9723973780000961]","[None, None, None, None, None]",,,,,,,,,41,001,0,,2024-04-15_10h21.05.440,replicate_nsd,2023.2.3,59.613006549363774,2024-04-15 10h22.26.068415 -0400,
images/image_262_seed_1.png,1,0,0,0,1,"[9, 19, 31, 42, 56, 68, 69, 70, 71]",,,,,0,73,73,73,497.6149863649998,,,,,,,,,,,,,,,,,,,,,,,,,,,,,,,,,,,,,,,,,,,,,,497.6008067829998,497.6008611240004,497.60086691800007,497.6149863649998,497.6149863649998,498.6166240379998,498.6166240379998,501.61462258200027,501.61462258200027,501.61462258200027,501.61462258200027,501.5996363250006,1,1,"['1', '1', '1', '1']",501.6000176360003,501.60003864600003,None,501.6000893970004,501.60011742200004,None,501.60016924499996,501.60018664900053,None,,,,,2.814488615999835,None,,,"[0.2040771659994789, 0.43203964099939185, 0.6880458480000016, 0.9360465620002287]","[None, None, None, None]",,,,,,,,,41,001,0,,2024-04-15_10h21.05.440,replicate_nsd,2023.2.3,59.613006549363774,2024-04-15 10h22.26.068415 -0400,
images/image_3_seed_1.png,2,0,0,0,1,"[9, 19, 31, 42, 56, 68, 69, 70, 71]",,,,,0,74,74,74,501.61462258200027,,,,,,,,,,,,,,,,,,,,,,,,,,,,,,,,,,,,,,,,,,,,,,501.6003670990003,501.6004231229999,501.600429049,501.61462258200027,501.61462258200027,502.61410166600035,502.61410166600035,505.61449512800027,505.61449512800027,505.61449512800027,505.61449512800027,505.60036072599996,None,0,['1'],505.6006695800006,505.6006911300001,None,505.6007435090005,505.6007701970002,None,505.60082202800004,505.60083915999985,None,,,,,,,,,[0.04040786600035062],[None],,,,,,,,,41,001,0,,2024-04-15_10h21.05.440,replicate_nsd,2023.2.3,59.613006549363774,2024-04-15 10h22.26.068415 -0400,
images/image_447_seed_1.png,3,0,0,0,1,"[9, 19, 31, 42, 56, 68, 69, 70, 71]",,,,,0,75,75,75,505.61449512800027,,,,,,,,,,,,,,,,,,,,,,,,,,,,,,,,,,,,,,,,,,,,,,505.6010234109999,505.6010799100004,505.6010857700003,505.61449512800027,505.61449512800027,506.61406015800003,506.61406015800003,509.614693988,509.614693988,509.614693988,509.614693988,509.59981829700064,None,0,None,509.60003353400043,509.6000533309998,None,509.60010419599985,509.60013085599985,None,509.6001817289998,509.60019845700026,None,,,,,,,,,,,,,,,,,,,41,001,0,,2024-04-15_10h21.05.440,replicate_nsd,2023.2.3,59.613006549363774,2024-04-15 10h22.26.068415 -0400,
images/image_236_seed_1.png,4,0,0,0,1,"[9, 19, 31, 42, 56, 68, 69, 70, 71]",,,,,0,76,76,76,509.614693988,,,,,,,,,,,,,,,,,,,,,,,,,,,,,,,,,,,,,,,,,,,,,,509.600379988,509.60043734600004,509.60044312300033,509.614693988,509.614693988,510.61468039900046,510.61468039900046,513.6148069440005,513.6148069440005,513.6148069440005,513.6148069440005,513.5997668990003,None,0,None,513.599961639,513.5999812629998,None,513.6000315230003,513.6000567150004,None,513.6001062470004,513.6001225190003,None,,,,,,,,,,,,,,,,,,,41,001,0,,2024-04-15_10h21.05.440,replicate_nsd,2023.2.3,59.613006549363774,2024-04-15 10h22.26.068415 -0400,
images/image_359_seed_1.png,5,0,0,0,1,"[9, 19, 31, 42, 56, 68, 69, 70, 71]",,,,,0,77,77,77,513.6148069440005,,,,,,,,,,,,,,,,,,,,,,,,,,,,,,,,,,,,,,,,,,,,,,513.6002979320001,513.600352038,513.6003577010006,513.6148069440005,513.6148069440005,514.6147184640004,514.6147184640004,517.6140679670007,517.6140679670007,517.6140679670007,517.6140679670007,517.597849664,None,0,None,517.5980499120005,517.598069918,None,517.5981213740006,517.5981482719999,None,517.5981991810004,517.5982164730003,None,,,,,,,,,,,,,,,,,,,41,001,0,,2024-04-15_10h21.05.440,replicate_nsd,2023.2.3,59.613006549363774,2024-04-15 10h22.26.068415 -0400,
images/image_108_seed_1.png,6,0,0,0,1,"[9, 19, 31, 42, 56, 68, 69, 70, 71]",,,,,0,78,78,78,517.6140679670007,,,,,,,,,,,,,,,,,,,,,,,,,,,,,,,,,,,,,,,,,,,,,,517.5983970249999,517.5984520490001,517.5984579020005,517.6140679670007,517.6140679670007,518.6157868690007,518.6157868690007,521.615376148,521.615376148,521.615376148,521.615376148,521.5986935860001,None,0,None,521.598938915,521.5989619299999,None,521.5990237530004,521.5990542899999,None,521.5991157990002,521.5991352640003,None,,,,,,,,,,,,,,,,,,,41,001,0,,2024-04-15_10h21.05.440,replicate_nsd,2023.2.3,59.613006549363774,2024-04-15 10h22.26.068415 -0400,
images/image_427_seed_1.png,7,0,1,0,1,"[9, 19, 31, 42, 56, 68, 69, 70, 71]",,,,,0,79,79,79,521.615376148,,,,,,,,,,,,,,,,,,,,,,,,,,,,,,,,,,,,,,,,,,,,,,521.5993520749998,521.5994198790004,521.5994268620007,521.615376148,521.615376148,522.6150452070005,522.6150452070005,525.614805747,525.614805747,525.614805747,525.614805747,525.598076751,None,0,None,525.5982866720005,525.5983069000004,None,525.598359439,525.5983850210005,None,525.5984485939998,525.5984686490001,None,,,,,,,,,,,,,,,,,,,41,001,0,,2024-04-15_10h21.05.440,replicate_nsd,2023.2.3,59.613006549363774,2024-04-15 10h22.26.068415 -0400,
images/image_691_seed_1.png,8,0,0,0,1,"[9, 19, 31, 42, 56, 68, 69, 70, 71]",,,,,0,80,80,80,525.614805747,,,,,,,,,,,,,,,,,,,,,,,,,,,,,,,,,,,,,,,,,,,,,,525.5986715529998,525.598733371,525.5987396760002,525.614805747,525.614805747,526.6146982030004,526.6146982030004,529.6149288390006,529.6149288390006,529.6149288390006,529.6149288390006,529.597987952,None,0,"['2', '3']",529.5982867399998,529.5983067670004,None,529.5983562390002,529.5984163479998,None,529.5985019540003,529.598518197,None,,,,,,,,,"[0.41623532099947624, 2.952222418999554]","[None, None]",,,,,,,,,41,001,0,,2024-04-15_10h21.05.440,replicate_nsd,2023.2.3,59.613006549363774,2024-04-15 10h22.26.068415 -0400,
blank.jpg,9,1,0,0,1,"[9, 19, 31, 42, 56, 68, 69, 70, 71]",,,,,0,81,81,81,529.6149288390006,,,,,,,,,,,,,,,,,,,,,,,,,,,,,,,,,,,,,,,,,,,,,,529.5988304170005,529.5988867020005,529.5988925219999,,,,,,,,,529.6019697649999,None,0,None,529.6021316530005,533.5996591990006,"['4', '2']",533.5998763739999,533.5999064839998,None,533.5999621400006,533.5999796599999,None,529.6149288390006,529.6149288390006,533.6145935230006,533.6145935230006,,,"[0.05214382600024692, 1.3641401710001446]","[None, None]",,,,,,,,,,,41,001,0,,2024-04-15_10h21.05.440,replicate_nsd,2023.2.3,59.613006549363774,2024-04-15 10h22.26.068415 -0400,
images/image_236_seed_1.png,10,0,1,0,1,"[9, 19, 31, 42, 56, 68, 69, 70, 71]",,,,,0,82,82,82,533.6145935230006,,,,,,,,,,,,,,,,,,,,,,,,,,,,,,,,,,,,,,,,,,,,,,533.6001655099999,533.6002218640006,533.6002277480002,533.6145935230006,533.6145935230006,534.6143906260004,534.6143906260004,537.614959818,537.614959818,537.614959818,537.614959818,537.5989522690006,1,0,"['1', '1', '1', '1']",537.5994351859999,537.5994620380006,None,537.5995254070003,537.5995672540002,None,537.5996551750004,537.5996817120003,None,,,,,0.2366284790005011,None,,,"[0.2363828929992451, 0.4564264329992511, 0.6164481050000177, 0.8123733029997311]","[None, None, None, None]",,,,,,,,,41,001,0,,2024-04-15_10h21.05.440,replicate_nsd,2023.2.3,59.613006549363774,2024-04-15 10h22.26.068415 -0400,
images/image_580_seed_1.png,11,0,0,0,1,"[9, 19, 31, 42, 56, 68, 69, 70, 71]",,,,,0,83,83,83,537.614959818,,,,,,,,,,,,,,,,,,,,,,,,,,,,,,,,,,,,,,,,,,,,,,537.5999244479999,537.6000453329998,537.6000549569999,537.614959818,537.614959818,538.6169846480007,538.6169846480007,541.6157251350005,541.6157251350005,541.6157251350005,541.6157251350005,541.5990147940001,None,0,None,541.5992090320005,541.5992287099998,None,541.5992797600002,541.5993054280007,None,541.5993558139999,541.5993775679999,None,,,,,,,,,,,,,,,,,,,41,001,0,,2024-04-15_10h21.05.440,replicate_nsd,2023.2.3,59.613006549363774,2024-04-15 10h22.26.068415 -0400,
images/image_72_seed_1.png,12,0,0,0,1,"[9, 19, 31, 42, 56, 68, 69, 70, 71]",,,,,0,84,84,84,541.6157251350005,,,,,,,,,,,,,,,,,,,,,,,,,,,,,,,,,,,,,,,,,,,,,,541.5995950619999,541.5996490369998,541.5996547760005,541.6157251350005,541.6157251350005,542.6158315660005,542.6158315660005,545.6145194930004,545.6145194930004,545.6145194930004,545.6145194930004,545.600844869,None,0,None,545.6010475319999,545.6010674030003,None,545.6011178580002,545.6011424910002,None,545.6011927290001,545.6012093130003,None,,,,,,,,,,,,,,,,,,,41,001,0,,2024-04-15_10h21.05.440,replicate_nsd,2023.2.3,59.613006549363774,2024-04-15 10h22.26.068415 -0400,
images/image_634_seed_1.png,13,0,0,0,1,"[9, 19, 31, 42, 56, 68, 69, 70, 71]",,,,,0,85,85,85,545.6145194930004,,,,,,,,,,,,,,,,,,,,,,,,,,,,,,,,,,,,,,,,,,,,,,545.6013865980003,545.6014439840001,545.6014498889999,545.6145194930004,545.6145194930004,546.61515366,546.61515366,549.6146485650006,549.6146485650006,549.6146485650006,549.6146485650006,549.6004405069998,None,0,None,549.6007014160004,549.6007246400004,None,549.600785304,549.600816008,None,549.600876126,549.6008958100001,None,,,,,,,,,,,,,,,,,,,41,001,0,,2024-04-15_10h21.05.440,replicate_nsd,2023.2.3,59.613006549363774,2024-04-15 10h22.26.068415 -0400,
images/image_133_seed_1.png,14,0,0,0,1,"[9, 19, 31, 42, 56, 68, 69, 70, 71]",,,,,0,86,86,86,549.6146485650006,,,,,,,,,,,,,,,,,,,,,,,,,,,,,,,,,,,,,,,,,,,,,,549.6011125670002,549.6011815600004,549.6011885440003,549.6146485650006,549.6146485650006,550.6147179730006,550.6147179730006,553.6145013290006,553.6145013290006,553.6145013290006,553.6145013290006,553.6002063189999,None,0,None,553.6005719100003,553.600593006,None,553.6006454480003,553.600671491,None,553.600723259,553.6007397290005,None,,,,,,,,,,,,,,,,,,,41,001,0,,2024-04-15_10h21.05.440,replicate_nsd,2023.2.3,59.613006549363774,2024-04-15 10h22.26.068415 -0400,
images/image_34_seed_1.png,15,0,0,0,1,"[9, 19, 31, 42, 56, 68, 69, 70, 71]",,,,,0,87,87,87,553.6145013290006,,,,,,,,,,,,,,,,,,,,,,,,,,,,,,,,,,,,,,,,,,,,,,553.6009201940005,553.6009773360001,553.6009833210001,553.6145013290006,553.6145013290006,554.6145290730001,554.6145290730001,557.6144465240004,557.6144465240004,557.6144465240004,557.6144465240004,557.6000228749999,None,0,None,557.6002266940004,557.6002466070004,None,557.6002979250006,557.6003243700006,None,557.6003759200003,557.6003930659999,None,,,,,,,,,,,,,,,,,,,41,001,0,,2024-04-15_10h21.05.440,replicate_nsd,2023.2.3,59.613006549363774,2024-04-15 10h22.26.068415 -0400,
images/image_434_seed_1.png,16,0,0,0,1,"[9, 19, 31, 42, 56, 68, 69, 70, 71]",,,,,0,88,88,88,557.6144465240004,,,,,,,,,,,,,,,,,,,,,,,,,,,,,,,,,,,,,,,,,,,,,,557.6005756610002,557.60063094,557.6006367670007,557.6144465240004,557.6144465240004,558.6145323589999,558.6145323589999,561.614344011,561.614344011,561.614344011,561.614344011,561.6000212050003,None,0,None,561.6002241160004,561.600244188,None,561.6002957320006,561.600321936,None,561.6003726990002,561.6003895000003,None,,,,,,,,,,,,,,,,,,,41,001,0,,2024-04-15_10h21.05.440,replicate_nsd,2023.2.3,59.613006549363774,2024-04-15 10h22.26.068415 -0400,
images/image_425_seed_1.png,17,0,0,0,1,"[9, 19, 31, 42, 56, 68, 69, 70, 71]",,,,,0,89,89,89,561.614344011,,,,,,,,,,,,,,,,,,,,,,,,,,,,,,,,,,,,,,,,,,,,,,561.6005725860005,561.6006288220005,561.6006346140002,561.614344011,561.614344011,562.6142781280005,562.6142781280005,565.6147224690003,565.6147224690003,565.6147224690003,565.6147224690003,565.6002852620004,None,0,None,565.6005235100001,565.6005447329999,None,565.600598037,565.6006257830004,None,565.6006797690006,565.6006973620006,None,,,,,,,,,,,,,,,,,,,41,001,0,,2024-04-15_10h21.05.440,replicate_nsd,2023.2.3,59.613006549363774,2024-04-15 10h22.26.068415 -0400,
images/image_326_seed_1.png,18,0,0,0,1,"[9, 19, 31, 42, 56, 68, 69, 70, 71]",,,,,0,90,90,90,565.6147224690003,,,,,,,,,,,,,,,,,,,,,,,,,,,,,,,,,,,,,,,,,,,,,,565.6008884150006,565.6011117630005,565.6011185329999,565.6147224690003,565.6147224690003,566.6143083060006,566.6143083060006,569.6147203629998,569.6147203629998,569.6147203629998,569.6147203629998,569.6005936299998,None,0,None,569.6008144440002,569.6008347750003,None,569.6008868400004,569.6009130840002,None,569.6010370190006,569.6010691629999,None,,,,,,,,,,,,,,,,,,,41,001,0,,2024-04-15_10h21.05.440,replicate_nsd,2023.2.3,59.613006549363774,2024-04-15 10h22.26.068415 -0400,
blank.jpg,19,1,0,0,1,"[9, 19, 31, 42, 56, 68, 69, 70, 71]",,,,,0,91,91,91,569.6147203629998,,,,,,,,,,,,,,,,,,,,,,,,,,,,,,,,,,,,,,,,,,,,,,569.6013071260004,569.60138663,569.6013926040005,,,,,,,,,569.6040442419999,None,0,None,569.60427179,573.5999631820005,None,573.6000647620003,573.6000912660002,None,573.6001489600003,573.6001661270002,None,569.6147203629998,569.6147203629998,573.614567869,573.614567869,,,,,,,,,,,,,,,41,001,0,,2024-04-15_10h21.05.440,replicate_nsd,2023.2.3,59.613006549363774,2024-04-15 10h22.26.068415 -0400,
images/image_732_seed_1.png,20,0,0,0,1,"[9, 19, 31, 42, 56, 68, 69, 70, 71]",,,,,0,92,92,92,573.614567869,,,,,,,,,,,,,,,,,,,,,,,,,,,,,,,,,,,,,,,,,,,,,,573.6003521680004,573.6004065890002,573.6004123170005,573.614567869,573.614567869,574.6145746900002,574.6145746900002,577.6149511439999,577.6149511439999,577.6149511439999,577.6149511439999,577.5998844920005,None,0,None,577.6001256999998,577.6001489660002,None,577.6002069960005,577.6002359800004,None,577.6002932390002,577.6003121949998,None,,,,,,,,,,,,,,,,,,,41,001,0,,2024-04-15_10h21.05.440,replicate_nsd,2023.2.3,59.613006549363774,2024-04-15 10h22.26.068415 -0400,
images/image_538_seed_1.png,21,0,0,0,1,"[9, 19, 31, 42, 56, 68, 69, 70, 71]",,,,,0,93,93,93,577.6149511439999,,,,,,,,,,,,,,,,,,,,,,,,,,,,,,,,,,,,,,,,,,,,,,577.6005168219999,577.6005814970003,577.6005880339999,577.6149511439999,577.6149511439999,578.6144743539999,578.6144743539999,581.6151467220006,581.6151467220006,581.6151467220006,581.6151467220006,581.5981735300002,None,0,None,581.5984255600006,581.5984493209999,None,581.5985112460003,581.5985411629999,None,581.598602567,581.5986221600006,None,,,,,,,,,,,,,,,,,,,41,001,0,,2024-04-15_10h21.05.440,replicate_nsd,2023.2.3,59.613006549363774,2024-04-15 10h22.26.068415 -0400,
images/image_482_seed_1.png,22,0,0,0,1,"[9, 19, 31, 42, 56, 68, 69, 70, 71]",,,,,0,94,94,94,581.6151467220006,,,,,,,,,,,,,,,,,,,,,,,,,,,,,,,,,,,,,,,,,,,,,,581.5988380980007,581.5989074130002,581.5989142489998,581.6151467220006,581.6151467220006,582.6148796550005,582.6148796550005,585.6144877920005,585.6144877920005,585.6144877920005,585.6144877920005,585.6000214670003,None,0,None,585.6004495080006,585.6004714999999,None,585.6005252240002,585.6005529630002,None,585.6006070110006,585.6006242140002,None,,,,,,,,,,,,,,,,,,,41,001,0,,2024-04-15_10h21.05.440,replicate_nsd,2023.2.3,59.613006549363774,2024-04-15 10h22.26.068415 -0400,
images/image_450_seed_1.png,23,0,0,0,1,"[9, 19, 31, 42, 56, 68, 69, 70, 71]",,,,,0,95,95,95,585.6144877920005,,,,,,,,,,,,,,,,,,,,,,,,,,,,,,,,,,,,,,,,,,,,,,585.6008117780002,585.6009127070001,585.6009188449998,585.6144877920005,585.6144877920005,586.6140549490001,586.6140549490001,589.6154577730003,589.6154577730003,589.6154577730003,589.6154577730003,589.5996059119998,None,0,None,589.5998973249998,589.5999226419999,None,589.5999853090007,589.6000163099998,None,589.6000828120004,589.6001031229998,None,,,,,,,,,,,,,,,,,,,41,001,0,,2024-04-15_10h21.05.440,replicate_nsd,2023.2.3,59.613006549363774,2024-04-15 10h22.26.068415 -0400,
images/image_160_seed_1.png,24,0,0,0,1,"[9, 19, 31, 42, 56, 68, 69, 70, 71]",,,,,0,96,96,96,589.6154577730003,,,,,,,,,,,,,,,,,,,,,,,,,,,,,,,,,,,,,,,,,,,,,,589.6003254510006,589.6004045310001,589.6004389760001,589.6154577730003,589.6154577730003,590.6157075299998,590.6157075299998,593.6150072400005,593.6150072400005,593.6150072400005,593.6150072400005,593.6003914570001,None,0,None,593.6006704500005,593.600696382,None,593.6007584050003,593.6007889749999,None,593.6008509000003,593.6008715349999,None,,,,,,,,,,,,,,,,,,,41,001,0,,2024-04-15_10h21.05.440,replicate_nsd,2023.2.3,59.613006549363774,2024-04-15 10h22.26.068415 -0400,
images/image_159_seed_1.png,25,0,0,0,1,"[9, 19, 31, 42, 56, 68, 69, 70, 71]",,,,,0,97,97,97,593.6150072400005,,,,,,,,,,,,,,,,,,,,,,,,,,,,,,,,,,,,,,,,,,,,,,593.6010955070005,593.6011666869999,593.6011735580005,593.6150072400005,593.6150072400005,594.6163333539998,594.6163333539998,597.6141977360003,597.6141977360003,597.6141977360003,597.6141977360003,597.5993294290001,None,0,None,597.5998128290003,597.5998517010003,None,597.5999548420004,597.5999850550006,None,597.6001235980002,597.6001431800005,None,,,,,,,,,,,,,,,,,,,41,001,0,,2024-04-15_10h21.05.440,replicate_nsd,2023.2.3,59.613006549363774,2024-04-15 10h22.26.068415 -0400,
images/image_348_seed_1.png,26,0,0,0,1,"[9, 19, 31, 42, 56, 68, 69, 70, 71]",,,,,0,98,98,98,597.6141977360003,,,,,,,,,,,,,,,,,,,,,,,,,,,,,,,,,,,,,,,,,,,,,,597.6003458320001,597.6004053900006,597.600411118,597.6141977360003,597.6141977360003,598.616242866,598.616242866,601.6136728660003,601.6136728660003,601.6136728660003,601.6136728660003,601.5975656250002,None,0,None,601.5977652470001,601.5977851470006,None,601.5978357009999,601.597860584,None,601.5979108840002,601.5979275250002,None,,,,,,,,,,,,,,,,,,,41,001,0,,2024-04-15_10h21.05.440,replicate_nsd,2023.2.3,59.613006549363774,2024-04-15 10h22.26.068415 -0400,
images/image_396_seed_1.png,27,0,0,0,1,"[9, 19, 31, 42, 56, 68, 69, 70, 71]",,,,,0,99,99,99,601.6136728660003,,,,,,,,,,,,,,,,,,,,,,,,,,,,,,,,,,,,,,,,,,,,,,601.5981061880002,601.5981611380003,601.5981668260001,601.6136728660003,601.6136728660003,602.6147971890005,602.6147971890005,605.613837844,605.613837844,605.613837844,605.613837844,605.5976706950005,None,0,None,605.5979298470002,605.5979540469998,None,605.5980165400006,605.5980473979998,None,605.5981099800001,605.5981303409999,None,,,,,,,,,,,,,,,,,,,41,001,0,,2024-04-15_10h21.05.440,replicate_nsd,2023.2.3,59.613006549363774,2024-04-15 10h22.26.068415 -0400,
images/image_644_seed_1.png,28,0,0,0,1,"[9, 19, 31, 42, 56, 68, 69, 70, 71]",,,,,0,100,100,100,605.613837844,,,,,,,,,,,,,,,,,,,,,,,,,,,,,,,,,,,,,,,,,,,,,,605.5983471,605.5984157880002,605.5984230129998,605.613837844,605.613837844,606.6135111450003,606.6135111450003,609.6143360420001,609.6143360420001,609.6143360420001,609.6143360420001,609.5997017240006,None,0,None,609.6000609740004,609.6000846360002,None,609.6001548210006,609.6002051880005,None,609.600296312,609.6003146450003,None,,,,,,,,,,,,,,,,,,,41,001,0,,2024-04-15_10h21.05.440,replicate_nsd,2023.2.3,59.613006549363774,2024-04-15 10h22.26.068415 -0400,
images/image_373_seed_1.png,29,0,0,0,1,"[9, 19, 31, 42, 56, 68, 69, 70, 71]",,,,,0,101,101,101,609.6143360420001,,,,,,,,,,,,,,,,,,,,,,,,,,,,,,,,,,,,,,,,,,,,,,609.6005331710003,609.6006077460006,609.6006144080002,609.6143360420001,609.6143360420001,610.6164080660001,610.6164080660001,613.6145320109999,613.6145320109999,613.6145320109999,613.6145320109999,613.597950327,None,0,None,613.5982479620006,613.598277176,None,613.5983671220001,613.5984058210006,None,613.5984823859999,613.5985067510001,None,,,,,,,,,,,,,,,,,,,41,001,0,,2024-04-15_10h21.05.440,replicate_nsd,2023.2.3,59.613006549363774,2024-04-15 10h22.26.068415 -0400,
images/image_707_seed_1.png,30,0,0,0,1,"[9, 19, 31, 42, 56, 68, 69, 70, 71]",,,,,0,102,102,102,613.6145320109999,,,,,,,,,,,,,,,,,,,,,,,,,,,,,,,,,,,,,,,,,,,,,,613.5987657350006,613.5988472160006,613.5988555690001,613.6145320109999,613.6145320109999,614.615549872,614.615549872,617.6157831,617.6157831,617.6157831,617.6157831,617.5977801210001,None,0,None,617.5979800370005,617.5980000830004,None,617.5980522529999,617.5980787830003,None,617.598130196,617.5981469190001,None,,,,,,,,,,,,,,,,,,,41,001,0,,2024-04-15_10h21.05.440,replicate_nsd,2023.2.3,59.613006549363774,2024-04-15 10h22.26.068415 -0400,
blank.jpg,31,1,0,0,1,"[9, 19, 31, 42, 56, 68, 69, 70, 71]",,,,,0,103,103,103,617.6157831,,,,,,,,,,,,,,,,,,,,,,,,,,,,,,,,,,,,,,,,,,,,,,617.5983294990001,617.5983862630001,617.5983923100002,,,,,,,,,617.6015110810004,None,0,None,617.6016795860005,621.5975701950001,None,621.5976961189999,621.597728883,None,621.5978014140001,621.5978222450003,None,617.6157831,617.6157831,621.6141892360001,621.6141892360001,,,,,,,,,,,,,,,41,001,0,,2024-04-15_10h21.05.440,replicate_nsd,2023.2.3,59.613006549363774,2024-04-15 10h22.26.068415 -0400,
images/image_399_seed_1.png,32,0,1,0,1,"[9, 19, 31, 42, 56, 68, 69, 70, 71]",,,,,0,104,104,104,621.6141892360001,,,,,,,,,,,,,,,,,,,,,,,,,,,,,,,,,,,,,,,,,,,,,,621.5980884950004,621.5981568570005,621.5981641070002,621.6141892360001,621.6141892360001,622.6162601980004,622.6162601980004,625.6139487320006,625.6139487320006,625.6139487320006,625.6139487320006,625.5990033839998,None,0,None,625.5992152260005,625.5992356679999,None,625.5992880530002,625.5993143020005,None,625.5993647989999,625.5993811110002,None,,,,,,,,,,,,,,,,,,,41,001,0,,2024-04-15_10h21.05.440,replicate_nsd,2023.2.3,59.613006549363774,2024-04-15 10h22.26.068415 -0400,
images/image_54_seed_1.png,33,0,0,0,1,"[9, 19, 31, 42, 56, 68, 69, 70, 71]",,,,,0,105,105,105,625.6139487320006,,,,,,,,,,,,,,,,,,,,,,,,,,,,,,,,,,,,,,,,,,,,,,625.599558459,625.5996131760003,625.5996190060005,625.6139487320006,625.6139487320006,626.6139024519998,626.6139024519998,629.6137197859998,629.6137197859998,629.6137197859998,629.6137197859998,629.5970356090002,None,0,None,629.5972326259998,629.5972523800001,None,629.5973034520002,629.5973291930004,None,629.597379586,629.5973958459999,None,,,,,,,,,,,,,,,,,,,41,001,0,,2024-04-15_10h21.05.440,replicate_nsd,2023.2.3,59.613006549363774,2024-04-15 10h22.26.068415 -0400,
images/image_628_seed_1.png,34,0,0,0,1,"[9, 19, 31, 42, 56, 68, 69, 70, 71]",,,,,0,106,106,106,629.6137197859998,,,,,,,,,,,,,,,,,,,,,,,,,,,,,,,,,,,,,,,,,,,,,,629.5975744269999,629.597628511,629.5976343290004,629.6137197859998,629.6137197859998,630.6152035260002,630.6152035260002,633.6133910070002,633.6133910070002,633.6133910070002,633.6133910070002,633.5984846460005,None,0,None,633.5987170799999,633.5987405619999,None,633.5988024340004,633.5988323769998,None,633.5988939130002,633.5989143840006,None,,,,,,,,,,,,,,,,,,,41,001,0,,2024-04-15_10h21.05.440,replicate_nsd,2023.2.3,59.613006549363774,2024-04-15 10h22.26.068415 -0400,
images/image_534_seed_1.png,35,0,0,0,1,"[9, 19, 31, 42, 56, 68, 69, 70, 71]",,,,,0,107,107,107,633.6133910070002,,,,,,,,,,,,,,,,,,,,,,,,,,,,,,,,,,,,,,,,,,,,,,633.599128629,633.5991944540001,633.5992014080002,633.6133910070002,633.6133910070002,634.6163086790002,634.6163086790002,637.6144358230003,637.6144358230003,637.6144358230003,637.6144358230003,637.5977159949998,None,0,None,637.597934677,637.5979546400004,None,637.5980064840005,637.5980328840005,None,637.5980861260005,637.5981039400003,None,,,,,,,,,,,,,,,,,,,41,001,0,,2024-04-15_10h21.05.440,replicate_nsd,2023.2.3,59.613006549363774,2024-04-15 10h22.26.068415 -0400,
images/image_733_seed_1.png,36,0,0,0,1,"[9, 19, 31, 42, 56, 68, 69, 70, 71]",,,,,0,108,108,108,637.6144358230003,,,,,,,,,,,,,,,,,,,,,,,,,,,,,,,,,,,,,,,,,,,,,,637.5982899190003,637.5983488230004,637.5983547770002,637.6144358230003,637.6144358230003,638.6152419780001,638.6152419780001,641.6168653940003,641.6168653940003,641.6168653940003,641.6168653940003,641.6009095919999,None,0,None,641.6012243630003,641.6012527749999,None,641.6013267640001,641.6013639729999,None,641.6014364780003,641.6014598299998,None,,,,,,,,,,,,,,,,,,,41,001,0,,2024-04-15_10h21.05.440,replicate_nsd,2023.2.3,59.613006549363774,2024-04-15 10h22.26.068415 -0400,
images/image_684_seed_1.png,37,0,0,0,1,"[9, 19, 31, 42, 56, 68, 69, 70, 71]",,,,,0,109,109,109,641.6168653940003,,,,,,,,,,,,,,,,,,,,,,,,,,,,,,,,,,,,,,,,,,,,,,641.6017125420003,641.6018025399999,641.6018111040003,641.6168653940003,641.6168653940003,642.6160780800001,642.6160780800001,645.6309101480001,645.6309101480001,645.6309101480001,645.6309101480001,645.6165184290003,None,0,None,645.6167271889999,645.6167477750005,None,645.6168020929999,645.6168297009999,None,645.6168846810006,645.6169026369998,None,,,,,,,,,,,,,,,,,,,41,001,0,,2024-04-15_10h21.05.440,replicate_nsd,2023.2.3,59.613006549363774,2024-04-15 10h22.26.068415 -0400,
images/image_452_seed_1.png,38,0,0,0,1,"[9, 19, 31, 42, 56, 68, 69, 70, 71]",,,,,0,110,110,110,645.6309101480001,,,,,,,,,,,,,,,,,,,,,,,,,,,,,,,,,,,,,,,,,,,,,,645.6170942910003,645.617153999,645.6171600930002,645.6309101480001,645.6309101480001,646.6308601540004,646.6308601540004,649.630963869,649.630963869,649.630963869,649.630963869,649.6146170050006,None,0,None,649.6148409420002,649.6148620760005,None,649.6149160340001,649.6149436290007,None,649.6151584910003,649.6151770710003,None,,,,,,,,,,,,,,,,,,,41,001,0,,2024-04-15_10h21.05.440,replicate_nsd,2023.2.3,59.613006549363774,2024-04-15 10h22.26.068415 -0400,
images/image_272_seed_1.png,39,0,0,0,1,"[9, 19, 31, 42, 56, 68, 69, 70, 71]",,,,,0,111,111,111,649.630963869,,,,,,,,,,,,,,,,,,,,,,,,,,,,,,,,,,,,,,,,,,,,,,649.6153716939998,649.6154500190005,649.6154560559999,649.630963869,649.630963869,650.6309515550001,650.6309515550001,653.6311549460006,653.6311549460006,653.6311549460006,653.6311549460006,653.614887058,None,0,None,653.6151388830003,653.6151623020005,None,653.615221342,653.6152512890003,None,653.6153094649999,653.6153286640001,None,,,,,,,,,,,,,,,,,,,41,001,0,,2024-04-15_10h21.05.440,replicate_nsd,2023.2.3,59.613006549363774,2024-04-15 10h22.26.068415 -0400,
images/image_438_seed_1.png,40,0,0,0,1,"[9, 19, 31, 42, 56, 68, 69, 70, 71]",,,,,0,112,112,112,653.6311549460006,,,,,,,,,,,,,,,,,,,,,,,,,,,,,,,,,,,,,,,,,,,,,,653.6155560490006,653.6156220560006,653.6156285730003,653.6311549460006,653.6311549460006,654.63095075,654.63095075,657.6320004270001,657.6320004270001,657.6320004270001,657.6320004270001,657.6157358099999,None,0,None,657.61593937,657.6159592519998,None,657.6160107810001,657.6160365770002,None,657.6160879429999,657.6161046650004,None,,,,,,,,,,,,,,,,,,,41,001,0,,2024-04-15_10h21.05.440,replicate_nsd,2023.2.3,59.613006549363774,2024-04-15 10h22.26.068415 -0400,
images/image_738_seed_1.png,41,0,1,0,1,"[9, 19, 31, 42, 56, 68, 69, 70, 71]",,,,,0,113,113,113,657.6320004270001,,,,,,,,,,,,,,,,,,,,,,,,,,,,,,,,,,,,,,,,,,,,,,657.6163055870002,657.6163636219999,657.6163696130006,657.6320004270001,657.6320004270001,658.6308145920002,658.6308145920002,661.6333199430001,661.6333199430001,661.6333199430001,661.6333199430001,661.6165522040001,None,0,None,661.6168138829998,661.616837908,None,661.6169006230002,661.6169318230004,None,661.6169943310006,661.617014249,None,,,,,,,,,,,,,,,,,,,41,001,0,,2024-04-15_10h21.05.440,replicate_nsd,2023.2.3,59.613006549363774,2024-04-15 10h22.26.068415 -0400,
blank.jpg,42,1,0,0,1,"[9, 19, 31, 42, 56, 68, 69, 70, 71]",,,,,0,114,114,114,661.6333199430001,,,,,,,,,,,,,,,,,,,,,,,,,,,,,,,,,,,,,,,,,,,,,,661.6172314969999,661.6174765189999,661.6174841060001,,,,,,,,,661.620044886,None,0,None,661.6202578740003,665.6213702770001,None,665.6214737290002,665.621501519,None,665.6215599369998,665.6215775649998,None,661.6333199430001,661.6333199430001,665.6379273510001,665.6379273510001,,,,,,,,,,,,,,,41,001,0,,2024-04-15_10h21.05.440,replicate_nsd,2023.2.3,59.613006549363774,2024-04-15 10h22.26.068415 -0400,
images/image_147_seed_1.png,43,0,0,0,1,"[9, 19, 31, 42, 56, 68, 69, 70, 71]",,,,,0,115,115,115,665.6379273510001,,,,,,,,,,,,,,,,,,,,,,,,,,,,,,,,,,,,,,,,,,,,,,665.6217635379999,665.6218206660005,665.6218265240004,665.6379273510001,665.6379273510001,666.6474966690002,666.6474966690002,669.6474818140005,669.6474818140005,669.6474818140005,669.6474818140005,669.6315682690001,None,0,None,669.6317652150001,669.6317852359998,None,669.6318366080004,669.6318633070005,None,669.6319133670004,669.6319302230004,None,,,,,,,,,,,,,,,,,,,41,001,0,,2024-04-15_10h21.05.440,replicate_nsd,2023.2.3,59.613006549363774,2024-04-15 10h22.26.068415 -0400,
images/image_498_seed_1.png,44,0,0,0,1,"[9, 19, 31, 42, 56, 68, 69, 70, 71]",,,,,0,116,116,116,669.6474818140005,,,,,,,,,,,,,,,,,,,,,,,,,,,,,,,,,,,,,,,,,,,,,,669.6321095439998,669.6321664759998,669.6321723090005,669.6474818140005,669.6474818140005,670.6473016740001,670.6473016740001,673.6475607890006,673.6475607890006,673.6475607890006,673.6475607890006,673.6339134939999,None,0,None,673.6341176410006,673.6341377469998,None,673.6341891950005,673.6342151160006,None,673.6342656699999,673.6342826780001,None,,,,,,,,,,,,,,,,,,,41,001,0,,2024-04-15_10h21.05.440,replicate_nsd,2023.2.3,59.613006549363774,2024-04-15 10h22.26.068415 -0400,
images/image_748_seed_1.png,45,0,0,0,1,"[9, 19, 31, 42, 56, 68, 69, 70, 71]",,,,,0,117,117,117,673.6475607890006,,,,,,,,,,,,,,,,,,,,,,,,,,,,,,,,,,,,,,,,,,,,,,673.6344630670001,673.6345201700005,673.6345259750005,673.6475607890006,673.6475607890006,674.6477193860001,674.6477193860001,677.6478624770007,677.6478624770007,677.6478624770007,677.6478624770007,677.6308680370003,None,0,None,677.6311510290006,677.6311727440007,None,677.6312275810005,677.6312541540001,None,677.6313068320005,677.6313244600005,None,,,,,,,,,,,,,,,,,,,41,001,0,,2024-04-15_10h21.05.440,replicate_nsd,2023.2.3,59.613006549363774,2024-04-15 10h22.26.068415 -0400,
images/image_302_seed_1.png,46,0,1,0,1,"[9, 19, 31, 42, 56, 68, 69, 70, 71]",,,,,0,118,118,118,677.6478624770007,,,,,,,,,,,,,,,,,,,,,,,,,,,,,,,,,,,,,,,,,,,,,,677.63150615,677.6315676100003,677.6315732350004,677.6478624770007,677.6478624770007,678.648148839,678.648148839,681.6481832589998,681.6481832589998,681.6481832589998,681.6481832589998,681.6320557019999,None,0,None,681.6322647300003,681.6322844420001,None,681.6323343889999,681.6323600310006,None,681.632409975,681.632426401,None,,,,,,,,,,,,,,,,,,,41,001,0,,2024-04-15_10h21.05.440,replicate_nsd,2023.2.3,59.613006549363774,2024-04-15 10h22.26.068415 -0400,
images/image_335_seed_1.png,47,0,0,0,1,"[9, 19, 31, 42, 56, 68, 69, 70, 71]",,,,,0,119,119,119,681.6481832589998,,,,,,,,,,,,,,,,,,,,,,,,,,,,,,,,,,,,,,,,,,,,,,681.6326040920003,681.6326610330007,681.6326668450001,681.6481832589998,681.6481832589998,682.6481139540001,682.6481139540001,685.6492384479998,685.6492384479998,685.6492384479998,685.6492384479998,685.6318431250002,None,0,None,685.6320987320005,685.6321225230004,None,685.6321832590002,685.6322132390005,None,685.6322737420005,685.6322930739998,None,,,,,,,,,,,,,,,,,,,41,001,0,,2024-04-15_10h21.05.440,replicate_nsd,2023.2.3,59.613006549363774,2024-04-15 10h22.26.068415 -0400,
images/image_348_seed_1.png,48,0,1,0,1,"[9, 19, 31, 42, 56, 68, 69, 70, 71]",,,,,0,120,120,120,685.6492384479998,,,,,,,,,,,,,,,,,,,,,,,,,,,,,,,,,,,,,,,,,,,,,,685.6325095550001,685.6326019400003,685.6326126060003,685.6492384479998,685.6492384479998,686.6482579490003,686.6482579490003,689.6479787859998,689.6479787859998,689.6479787859998,689.6479787859998,689.6317977400004,None,0,None,689.6321758250006,689.6322039570005,None,689.6322686490003,689.6323006000002,None,689.6323629650005,689.6323833189999,None,,,,,,,,,,,,,,,,,,,41,001,0,,2024-04-15_10h21.05.440,replicate_nsd,2023.2.3,59.613006549363774,2024-04-15 10h22.26.068415 -0400,
images/image_234_seed_1.png,49,0,0,0,1,"[9, 19, 31, 42, 56, 68, 69, 70, 71]",,,,,0,121,121,121,689.6479787859998,,,,,,,,,,,,,,,,,,,,,,,,,,,,,,,,,,,,,,,,,,,,,,689.6326456010001,689.6327234589999,689.632731017,689.6479787859998,689.6479787859998,690.6491561100001,690.6491561100001,693.647548035,693.647548035,693.647548035,693.647548035,693.6309157080004,None,0,None,693.6311563930003,693.6311799559999,None,693.6312398589998,693.6312696470004,None,693.6313294390002,693.6313484689999,None,,,,,,,,,,,,,,,,,,,41,001,0,,2024-04-15_10h21.05.440,replicate_nsd,2023.2.3,59.613006549363774,2024-04-15 10h22.26.068415 -0400,
images/image_533_seed_1.png,50,0,1,0,1,"[9, 19, 31, 42, 56, 68, 69, 70, 71]",,,,,0,122,122,122,693.647548035,,,,,,,,,,,,,,,,,,,,,,,,,,,,,,,,,,,,,,,,,,,,,,693.631569919,693.6316342670007,693.6316410070003,693.647548035,693.647548035,694.6488940250001,694.6488940250001,697.6557028699999,697.6557028699999,697.6557028699999,697.6557028699999,697.6385257350003,None,0,None,697.6387275630004,697.6387476290001,None,697.6389483230005,697.6389744839998,None,697.6390255300003,697.6390420719999,None,,,,,,,,,,,,,,,,,,,41,001,0,,2024-04-15_10h21.05.440,replicate_nsd,2023.2.3,59.613006549363774,2024-04-15 10h22.26.068415 -0400,
images/image_244_seed_1.png,51,0,0,0,1,"[9, 19, 31, 42, 56, 68, 69, 70, 71]",,,,,0,123,123,123,697.6557028699999,,,,,,,,,,,,,,,,,,,,,,,,,,,,,,,,,,,,,,,,,,,,,,697.6392726479999,697.6393344420003,697.6393673210005,697.6557028699999,697.6557028699999,698.6477631160005,698.6477631160005,701.6476476610005,701.6476476610005,701.6476476610005,701.6476476610005,701.6309777420001,None,0,None,701.6311888250002,701.6312094519999,None,701.6312610900004,701.6312876420006,None,701.6313383800007,701.6313549420001,None,,,,,,,,,,,,,,,,,,,41,001,0,,2024-04-15_10h21.05.440,replicate_nsd,2023.2.3,59.613006549363774,2024-04-15 10h22.26.068415 -0400,
images/image_730_seed_1.png,52,0,0,0,1,"[9, 19, 31, 42, 56, 68, 69, 70, 71]",,,,,0,124,124,124,701.6476476610005,,,,,,,,,,,,,,,,,,,,,,,,,,,,,,,,,,,,,,,,,,,,,,701.631534401,701.631590465,701.6315962650006,701.6476476610005,701.6476476610005,702.6494196190006,702.6494196190006,705.6491554089998,705.6491554089998,705.6491554089998,705.6491554089998,705.6325424180004,None,0,None,705.6328338760004,705.632861735,None,705.6329342140007,705.6329693420003,None,705.6330398990003,705.6330626690005,None,,,,,,,,,,,,,,,,,,,41,001,0,,2024-04-15_10h21.05.440,replicate_nsd,2023.2.3,59.613006549363774,2024-04-15 10h22.26.068415 -0400,
images/image_55_seed_1.png,53,0,0,0,1,"[9, 19, 31, 42, 56, 68, 69, 70, 71]",,,,,0,125,125,125,705.6491554089998,,,,,,,,,,,,,,,,,,,,,,,,,,,,,,,,,,,,,,,,,,,,,,705.6333053460003,705.6333831960001,705.6333911870006,705.6491554089998,705.6491554089998,706.6496086770003,706.6496086770003,709.6491879290006,709.6491879290006,709.6491879290006,709.6491879290006,709.632369377,None,0,None,709.6326200860003,709.6326436220006,None,709.6327048889998,709.632735442,None,709.6327959760001,709.6328162509999,None,,,,,,,,,,,,,,,,,,,41,001,0,,2024-04-15_10h21.05.440,replicate_nsd,2023.2.3,59.613006549363774,2024-04-15 10h22.26.068415 -0400,
images/image_197_seed_1.png,54,0,0,0,1,"[9, 19, 31, 42, 56, 68, 69, 70, 71]",,,,,0,126,126,126,709.6491879290006,,,,,,,,,,,,,,,,,,,,,,,,,,,,,,,,,,,,,,,,,,,,,,709.633032834,709.6330991710001,709.6331061520004,709.6491879290006,709.6491879290006,710.6478667000001,710.6478667000001,713.647817653,713.647817653,713.647817653,713.647817653,713.6313909290002,None,0,None,713.6316135779998,713.6316341700003,None,713.6316866920006,713.6317127769998,None,713.6317641750002,713.6317809769998,None,,,,,,,,,,,,,,,,,,,41,001,0,,2024-04-15_10h21.05.440,replicate_nsd,2023.2.3,59.613006549363774,2024-04-15 10h22.26.068415 -0400,
images/image_99_seed_1.png,55,0,0,0,1,"[9, 19, 31, 42, 56, 68, 69, 70, 71]",,,,,0,127,127,127,713.647817653,,,,,,,,,,,,,,,,,,,,,,,,,,,,,,,,,,,,,,,,,,,,,,713.6319667160005,713.6320267649999,713.6320327160001,713.647817653,713.647817653,714.647197577,714.647197577,717.6468352170004,717.6468352170004,717.6468352170004,717.6468352170004,717.6301434240004,None,0,None,717.6303376430005,717.6303564170003,None,717.6304074870004,717.6304326180007,None,717.6304832180003,717.630499844,None,,,,,,,,,,,,,,,,,,,41,001,0,,2024-04-15_10h21.05.440,replicate_nsd,2023.2.3,59.613006549363774,2024-04-15 10h22.26.068415 -0400,
blank.jpg,56,1,0,0,1,"[9, 19, 31, 42, 56, 68, 69, 70, 71]",,,,,0,128,128,128,717.6468352170004,,,,,,,,,,,,,,,,,,,,,,,,,,,,,,,,,,,,,,,,,,,,,,717.6306992890004,717.6307555849999,717.630761458,,,,,,,,,717.6333638390006,None,0,None,717.6335316100003,721.6310175380004,None,721.6311196980005,721.6311483200006,None,721.6312073210001,721.6312243890006,None,717.6468352170004,717.6468352170004,721.6486277459999,721.6486277459999,,,,,,,,,,,,,,,41,001,0,,2024-04-15_10h21.05.440,replicate_nsd,2023.2.3,59.613006549363774,2024-04-15 10h22.26.068415 -0400,
images/image_621_seed_1.png,57,0,1,0,1,"[9, 19, 31, 42, 56, 68, 69, 70, 71]",,,,,0,129,129,129,721.6486277459999,,,,,,,,,,,,,,,,,,,,,,,,,,,,,,,,,,,,,,,,,,,,,,721.6314169930001,721.6314807240005,721.6314864960004,721.6486277459999,721.6486277459999,722.6484229050002,722.6484229050002,725.6491289430005,725.6491289430005,725.6491289430005,725.6491289430005,725.6326102889998,None,0,None,725.6328650140003,725.6328897250005,None,725.6329516040005,725.6329824530003,None,725.6330432949999,725.6330634650003,None,,,,,,,,,,,,,,,,,,,41,001,0,,2024-04-15_10h21.05.440,replicate_nsd,2023.2.3,59.613006549363774,2024-04-15 10h22.26.068415 -0400,
images/image_440_seed_1.png,58,0,0,0,1,"[9, 19, 31, 42, 56, 68, 69, 70, 71]",,,,,0,130,130,130,725.6491289430005,,,,,,,,,,,,,,,,,,,,,,,,,,,,,,,,,,,,,,,,,,,,,,725.6332787880001,725.6333491240002,725.633356112,725.6491289430005,725.6491289430005,726.6472215290005,726.6472215290005,729.6492571039998,729.6492571039998,729.6492571039998,729.6492571039998,729.6327133270006,None,0,None,729.6329658660006,729.632989271,None,729.6330497930003,729.6330806690003,None,729.6331422180001,729.6331621290001,None,,,,,,,,,,,,,,,,,,,41,001,0,,2024-04-15_10h21.05.440,replicate_nsd,2023.2.3,59.613006549363774,2024-04-15 10h22.26.068415 -0400,
images/image_345_seed_1.png,59,0,0,0,1,"[9, 19, 31, 42, 56, 68, 69, 70, 71]",,,,,0,131,131,131,729.6492571039998,,,,,,,,,,,,,,,,,,,,,,,,,,,,,,,,,,,,,,,,,,,,,,729.6333938160005,729.6334619770005,729.6334691760003,729.6492571039998,729.6492571039998,730.6477457990004,730.6477457990004,733.6491402540005,733.6491402540005,733.6491402540005,733.6491402540005,733.6316646740006,None,0,None,733.6318731219999,733.6318929200006,None,733.6319444130004,733.631970376,None,733.6320213680001,733.632038273,None,,,,,,,,,,,,,,,,,,,41,001,0,,2024-04-15_10h21.05.440,replicate_nsd,2023.2.3,59.613006549363774,2024-04-15 10h22.26.068415 -0400,
images/image_492_seed_1.png,60,0,0,0,1,"[9, 19, 31, 42, 56, 68, 69, 70, 71]",,,,,0,132,132,132,733.6491402540005,,,,,,,,,,,,,,,,,,,,,,,,,,,,,,,,,,,,,,,,,,,,,,733.6322256630001,733.6322912400001,733.6322974040004,733.6491402540005,733.6491402540005,734.6489132269999,734.6489132269999,737.6477254299998,737.6477254299998,737.6477254299998,737.6477254299998,737.6311502570006,None,0,None,737.6313976199999,737.6314212739999,None,737.6314825610007,737.6315131430001,None,737.6315740950004,737.6315938050002,None,,,,,,,,,,,,,,,,,,,41,001,0,,2024-04-15_10h21.05.440,replicate_nsd,2023.2.3,59.613006549363774,2024-04-15 10h22.26.068415 -0400,
images/image_516_seed_1.png,61,0,0,0,1,"[9, 19, 31, 42, 56, 68, 69, 70, 71]",,,,,0,133,133,133,737.6477254299998,,,,,,,,,,,,,,,,,,,,,,,,,,,,,,,,,,,,,,,,,,,,,,737.6318106830004,737.6318808510005,737.6318877350004,737.6477254299998,737.6477254299998,738.6484914849998,738.6484914849998,741.6485156870003,741.6485156870003,741.6485156870003,741.6485156870003,741.6305717360001,None,0,None,741.63077806,741.6307985720005,None,741.6308495849999,741.6308754440006,None,741.6309262760005,741.630943618,None,,,,,,,,,,,,,,,,,,,41,001,0,,2024-04-15_10h21.05.440,replicate_nsd,2023.2.3,59.613006549363774,2024-04-15 10h22.26.068415 -0400,
images/image_572_seed_1.png,62,0,0,0,1,"[9, 19, 31, 42, 56, 68, 69, 70, 71]",,,,,0,134,134,134,741.6485156870003,,,,,,,,,,,,,,,,,,,,,,,,,,,,,,,,,,,,,,,,,,,,,,741.6311247499998,741.6311818559998,741.6311877960006,741.6485156870003,741.6485156870003,742.647097137,742.647097137,745.6472062100001,745.6472062100001,745.6472062100001,745.6472062100001,745.6308753270005,None,0,None,745.631308125,745.6313341660007,None,745.6314488870003,745.631480864,None,745.6315426259998,745.6315668530005,None,,,,,,,,,,,,,,,,,,,41,001,0,,2024-04-15_10h21.05.440,replicate_nsd,2023.2.3,59.613006549363774,2024-04-15 10h22.26.068415 -0400,
images/image_660_seed_1.png,63,0,0,0,1,"[9, 19, 31, 42, 56, 68, 69, 70, 71]",,,,,0,135,135,135,745.6472062100001,,,,,,,,,,,,,,,,,,,,,,,,,,,,,,,,,,,,,,,,,,,,,,745.6319033030004,745.6320123060004,745.6320236930005,745.6472062100001,745.6472062100001,746.6470316089999,746.6470316089999,749.6468879109998,749.6468879109998,749.6468879109998,749.6468879109998,749.6302333990006,None,0,None,749.6304234119998,749.630442871,None,749.6304925450004,749.6305178910006,None,749.6305675330004,749.6305838970002,None,,,,,,,,,,,,,,,,,,,41,001,0,,2024-04-15_10h21.05.440,replicate_nsd,2023.2.3,59.613006549363774,2024-04-15 10h22.26.068415 -0400,
