current_image,trial_index,is_blank_trial,is_repeat,is_new_run,run_num,all_blanks_list,practice.thisRepN,practice.thisTrialN,practice.thisN,practice.thisIndex,loop_all_images.thisRepN,loop_all_images.thisTrialN,loop_all_images.thisN,loop_all_images.thisIndex,thisRow.t,notes,set_up.started,set_up.stopped,practice_continue.started,key_resp_6.started,text_6.started,practice_continue.stopped,key_resp_6.keys,key_resp_6.rt,key_resp_6.duration,set_skips_and_correct_key_2.started,set_skips_and_correct_key_2.stopped,practice_trial.started,polygon_3.started,all_keys_pressed_2.started,image_2.started,press_if_repeat_2.started,image_2.stopped,press_if_repeat_2.stopped,polygon_3.stopped,all_keys_pressed_2.stopped,practice_trial.stopped,press_if_repeat_2.keys,press_if_repeat_2.corr,press_if_repeat_2.rt,press_if_repeat_2.duration,all_keys_pressed_2.keys,blank_trial_2.started,blank_trial_2.stopped,all_keys_pressed_2.rt,all_keys_pressed_2.duration,polygon_4.started,polygon_4.stopped,testing_continue.started,key_resp_7.started,text_7.started,testing_continue.stopped,key_resp_7.keys,key_resp_7.rt,key_resp_7.duration,waiting_fmri.started,key_resp_2.started,text_3.started,waiting_fmri.stopped,key_resp_2.keys,key_resp_2.rt,key_resp_2.duration,set_skips_and_correct_key.started,set_skips_and_correct_key.stopped,trial.started,polygon.started,all_keys_pressed.started,image.started,press_if_repeat.started,image.stopped,press_if_repeat.stopped,polygon.stopped,all_keys_pressed.stopped,trial.stopped,press_if_repeat.keys,press_if_repeat.corr,press_if_repeat.rt,press_if_repeat.duration,all_keys_pressed.keys,blank_trial.started,blank_trial.stopped,blank_trial_testing_keys.keys,run_wait2_2.started,run_wait2_2.stopped,key_resp_5.keys,waiting_fmri_2.started,waiting_fmri_2.stopped,key_resp_4.keys,all_keys_pressed.rt,all_keys_pressed.duration,blank_trial_testing_keys.started,polygon_2.started,blank_trial_testing_keys.stopped,polygon_2.stopped,blank_trial_testing_keys.rt,blank_trial_testing_keys.duration,participant,session,starting_run,,date,expName,psychopyVersion,frameRate,expStart,
,,,,,,,,,,,,,,,,,0.011152959000355622,0.011341088999870408,0.011354629000379646,0.030787577000410238,0.030787577000410238,62.47681976000058,1,62.445224418999715,None,,,,,,,,,,,,,,,,,,,,,,,,,,,,,,,,,,,,,,,,,,,,,,,,,,,,,,,,,,,,,,,,,,,,,,,,45,001,0,,2024-04-16_10h21.05.102,replicate_nsd,2023.2.3,60.02260703451255,2024-04-16 10h21.17.687935 -0400,
practice_images/w_boardwalk1.jpg,0,0,,,,,0,0,0,0,,,,,62.51320051899984,,,,,,,,,,,62.48456853600055,62.484667436000564,62.48467683200033,62.51320051899984,62.51320051899984,63.50949589500033,63.50949589500033,66.51049030700051,66.51049030700051,66.51049030700051,66.51049030700051,66.49369613999988,2,0,2.758039937999456,None,None,66.49467667099998,66.49471901200013,,,,,,,,,,,,,,,,,,,,,,,,,,,,,,,,,,,,,,,,,,,,,,,,,,,,,45,001,0,,2024-04-16_10h21.05.102,replicate_nsd,2023.2.3,60.02260703451255,2024-04-16 10h21.17.687935 -0400,
practice_images/w_monument1.jpg,1,0,,,,,0,1,1,1,,,,,66.51049030700051,,,,,,,,,,,66.49499526599993,66.49511481800073,66.49512649799999,66.51049030700051,66.51049030700051,67.51013626500026,67.51013626500026,70.51006865900035,70.51006865900035,70.51006865900035,70.51006865900035,70.49366952800028,1,0,2.930764376999832,None,"['2', '1', '2']",70.49500092500057,70.49504864000028,"[0.07097802299995237, 0.22262738999961584, 0.7196631239994531]","[None, None, None]",,,,,,,,,,,,,,,,,,,,,,,,,,,,,,,,,,,,,,,,,,,,,,,,,,,45,001,0,,2024-04-16_10h21.05.102,replicate_nsd,2023.2.3,60.02260703451255,2024-04-16 10h21.17.687935 -0400,
practice_images/w_kitchen1.jpg,2,0,,,,,0,2,2,2,,,,,70.51006865900035,,,,,,,,,,,70.4953267360006,70.4954523940005,70.49546467500022,70.51006865900035,70.51006865900035,71.510241813,71.510241813,74.50984881100067,74.50984881100067,74.50984881100067,74.50984881100067,74.49290900200049,1,0,2.7390177020006377,None,"['2', '1', '2']",74.49356670700035,74.49360006300049,"[0.23405131199979223, 0.5780363309995664, 0.8624549199994362]","[None, None, None]",,,,,,,,,,,,,,,,,,,,,,,,,,,,,,,,,,,,,,,,,,,,,,,,,,,45,001,0,,2024-04-16_10h21.05.102,replicate_nsd,2023.2.3,60.02260703451255,2024-04-16 10h21.17.687935 -0400,
practice_images/w_boardwalk2.jpg,3,0,,,,,0,3,3,3,,,,,74.50984881100067,,,,,,,,,,,74.49382043200058,74.49391718200059,74.49392691899993,74.50984881100067,74.50984881100067,75.5102786590005,75.5102786590005,78.51007754800048,78.51007754800048,78.51007754800048,78.51007754800048,78.4941830480002,2,0,2.858545537000282,None,"['2', '1', '2']",78.49517195000044,78.49521402800019,"[0.013157530999706069, 0.3550088769998183, 0.6622833089995765]","[None, None, None]",,,,,,,,,,,,,,,,,,,,,,,,,,,,,,,,,,,,,,,,,,,,,,,,,,,45,001,0,,2024-04-16_10h21.05.102,replicate_nsd,2023.2.3,60.02260703451255,2024-04-16 10h21.17.687935 -0400,
practice_images/w_bedroom1.jpg,4,0,,,,,0,4,4,4,,,,,78.51007754800048,,,,,,,,,,,78.49548495300041,78.49560142900009,78.49561314400034,78.51007754800048,78.51007754800048,79.51042527200025,79.51042527200025,82.51048238900057,82.51048238900057,82.51048238900057,82.51048238900057,82.49419374399986,1,0,2.8549681300000884,None,"['1', '2', '1']",82.49501218500063,82.49505377600053,"[0.16351039800065337, 0.48023319900039496, 0.8249756499999421]","[None, None, None]",,,,,,,,,,,,,,,,,,,,,,,,,,,,,,,,,,,,,,,,,,,,,,,,,,,45,001,0,,2024-04-16_10h21.05.102,replicate_nsd,2023.2.3,60.02260703451255,2024-04-16 10h21.17.687935 -0400,
practice_images/w_bedroom1.jpg,5,0,,,,,0,5,5,5,,,,,82.51048238900057,,,,,,,,,,,82.49532770000042,82.49545393500011,82.49546644600014,82.51048238900057,82.51048238900057,83.51048041700051,83.51048041700051,86.5101417270007,86.5101417270007,86.5101417270007,86.5101417270007,86.49422391000007,1,0,2.9394122809999317,None,"['2', '1']",86.495022694,86.49506414200005,"[0.20728277400030493, 0.6101057890000448]","[None, None]",,,,,,,,,,,,,,,,,,,,,,,,,,,,,,,,,,,,,,,,,,,,,,,,,,,45,001,0,,2024-04-16_10h21.05.102,replicate_nsd,2023.2.3,60.02260703451255,2024-04-16 10h21.17.687935 -0400,
practice_images/w_bedroom2.jpg,6,0,,,,,0,6,6,6,,,,,86.5101417270007,,,,,,,,,,,86.49533453799995,86.49545170900001,86.49546369500058,86.5101417270007,86.5101417270007,87.51062348600044,87.51062348600044,90.51048759800051,90.51048759800051,90.51048759800051,90.51048759800051,90.49441254200065,2,0,2.806490904000384,None,"['2', '1']",90.49525929599986,90.49530038300054,"[0.2951943009993556, 0.6925174909993075]","[None, None]",,,,,,,,,,,,,,,,,,,,,,,,,,,,,,,,,,,,,,,,,,,,,,,,,,,45,001,0,,2024-04-16_10h21.05.102,replicate_nsd,2023.2.3,60.02260703451255,2024-04-16 10h21.17.687935 -0400,
practice_images/w_bedroom2.jpg,7,0,,,,,0,7,7,7,,,,,90.51048759800051,,,,,,,,,,,90.4955740510004,90.49569087800046,90.49570256000061,90.51048759800051,90.51048759800051,91.51057425300041,91.51057425300041,94.50977962500019,94.50977962500019,94.50977962500019,94.50977962500019,94.49471403500047,1,0,2.8500412630000937,None,"['1', '2', '1']",94.49570236999989,94.49574454899994,"[0.15551634699932038, 0.4815930320000916, 0.9231040029999349]","[None, None, None]",,,,,,,,,,,,,,,,,,,,,,,,,,,,,,,,,,,,,,,,,,,,,,,,,,,45,001,0,,2024-04-16_10h21.05.102,replicate_nsd,2023.2.3,60.02260703451255,2024-04-16 10h21.17.687935 -0400,
practice_images/w_auditorium2.jpg,8,0,,,,,0,8,8,8,,,,,94.50977962500019,,,,,,,,,,,94.49601534000067,94.49613342700013,94.49614515800022,94.50977962500019,94.50977962500019,95.51065353800004,95.51065353800004,98.51048248900042,98.51048248900042,98.51048248900042,98.51048248900042,98.4942101380002,2,0,2.8841613499998857,None,"['2', '1', '2']",98.49476574200071,98.49479442400025,"[0.19264854799985187, 0.584506686000168, 0.9514368829995874]","[None, None, None]",,,,,,,,,,,,,,,,,,,,,,,,,,,,,,,,,,,,,,,,,,,,,,,,,,,45,001,0,,2024-04-16_10h21.05.102,replicate_nsd,2023.2.3,60.02260703451255,2024-04-16 10h21.17.687935 -0400,
practice_images/w_auditorium1.jpg,9,0,,,,,0,9,9,9,,,,,98.51048248900042,,,,,,,,,,,98.49498291800046,98.49506428400036,98.49507244200049,98.51048248900042,98.51048248900042,99.51081301100021,99.51081301100021,102.56069525500061,102.56069525500061,102.56069525500061,102.56069525500061,102.5446056740002,2,0,2.8865582670005097,None,"['1', '2']",102.54540795499997,102.54544944000008,"[0.4037310110006729, 0.7740723189999699]","[None, None]",,,,,,,,,,,,,,,,,,,,,,,,,,,,,,,,,,,,,,,,,,,,,,,,,,,45,001,0,,2024-04-16_10h21.05.102,replicate_nsd,2023.2.3,60.02260703451255,2024-04-16 10h21.17.687935 -0400,
blank.jpg,10,1,,,,,0,10,10,10,,,,,102.56069525500061,,,,,,,,,,,102.54571922200012,102.54583690300024,102.54584923600032,,,,,,,,,102.55050529800064,None,0,,,None,102.55091084200012,106.54409686800045,,,102.56069525500061,106.56091501599985,,,,,,,,,,,,,,,,,,,,,,,,,,,,,,,,,,,,,,,,,,,,,,,,,45,001,0,,2024-04-16_10h21.05.102,replicate_nsd,2023.2.3,60.02260703451255,2024-04-16 10h21.17.687935 -0400,
practice_images/w_monument2.jpg,11,0,,,,,0,11,11,11,,,,,106.56091501599985,,,,,,,,,,,106.54447674400035,106.54459602099996,106.5446081,106.56091501599985,106.56091501599985,107.56094819900045,107.56094819900045,110.56099579400052,110.56099579400052,110.56099579400052,110.56099579400052,110.544576968,1,0,2.9615972680003324,None,"['2', '1']",110.5453834509999,110.54542561300059,"[0.2648249449994182, 0.7325943229998302]","[None, None]",,,,,,,,,,,,,,,,,,,,,,,,,,,,,,,,,,,,,,,,,,,,,,,,,,,45,001,0,,2024-04-16_10h21.05.102,replicate_nsd,2023.2.3,60.02260703451255,2024-04-16 10h21.17.687935 -0400,
practice_images/w_monument1.jpg,12,0,,,,,0,12,12,12,,,,,110.56099579400052,,,,,,,,,,,110.54569950800033,110.5458165630007,110.54582843300068,110.56099579400052,110.56099579400052,111.56119043400031,111.56119043400031,114.5611840850006,114.5611840850006,114.5611840850006,114.5611840850006,114.54488269000012,1,0,2.6527636390001135,None,"['2', '1']",114.54569701499986,114.54573886400067,"[0.29364933899978496, 0.7098020549992725]","[None, None]",,,,,,,,,,,,,,,,,,,,,,,,,,,,,,,,,,,,,,,,,,,,,,,,,,,45,001,0,,2024-04-16_10h21.05.102,replicate_nsd,2023.2.3,60.02260703451255,2024-04-16 10h21.17.687935 -0400,
practice_images/w_boardwalk2.jpg,13,0,,,,,0,13,13,13,,,,,114.5611840850006,,,,,,,,,,,114.54601447599998,114.54613241200059,114.54614430200036,114.5611840850006,114.5611840850006,115.56123027100057,115.56123027100057,118.56149166400064,118.56149166400064,118.56149166400064,118.56149166400064,118.5450804380007,1,0,2.8872110709999106,None,"['2', '1', '2']",118.54614321600002,118.54618564100019,"[0.020927440000377828, 0.41407037600038166, 0.7661200769998686]","[None, None, None]",,,,,,,,,,,,,,,,,,,,,,,,,,,,,,,,,,,,,,,,,,,,,,,,,,,45,001,0,,2024-04-16_10h21.05.102,replicate_nsd,2023.2.3,60.02260703451255,2024-04-16 10h21.17.687935 -0400,
practice_images/w_kitchen1.jpg,14,0,,,,,0,14,14,14,,,,,118.56149166400064,,,,,,,,,,,118.54647505499997,118.54659469700073,118.54660666200016,118.56149166400064,118.56149166400064,119.56139769299989,119.56139769299989,122.56154784299997,122.56154784299997,122.56154784299997,122.56154784299997,122.54513995400066,2,0,2.854276377000133,None,"['2', '1']",122.54595178300042,122.54599405499994,"[0.327051446999576, 0.6589884719996917]","[None, None]",,,,,,,,,,,,,,,,,,,,,,,,,,,,,,,,,,,,,,,,,,,,,,,,,,,45,001,0,,2024-04-16_10h21.05.102,replicate_nsd,2023.2.3,60.02260703451255,2024-04-16 10h21.17.687935 -0400,
practice_images/w_monument2.jpg,15,0,,,,,0,15,15,15,,,,,122.56154784299997,,,,,,,,,,,122.54626462700071,122.5463827450003,122.54639494599996,122.56154784299997,122.56154784299997,123.56150310000066,123.56150310000066,126.56126976199994,126.56126976199994,126.56126976199994,126.56126976199994,126.545095425,2,0,2.869881441999496,None,"['1', '2']",126.54590762899988,126.54594889000055,"[0.2863233420002871, 0.6241351070002565]","[None, None]",,,,,,,,,,,,,,,,,,,,,,,,,,,,,,,,,,,,,,,,,,,,,,,,,,,45,001,0,,2024-04-16_10h21.05.102,replicate_nsd,2023.2.3,60.02260703451255,2024-04-16 10h21.17.687935 -0400,
practice_images/w_kitchen2.jpg,16,0,,,,,0,16,16,16,,,,,126.56126976199994,,,,,,,,,,,126.54622111200024,126.54633957399983,126.54635153300023,126.56126976199994,126.56126976199994,127.56058595200011,127.56058595200011,130.56150051199984,130.56150051199984,130.56150051199984,130.56150051199984,130.54511711000032,2,0,2.5582464720000644,None,"['1', '2']",130.5459322200004,130.54597373600063,"[0.18181013000048551, 0.5660585220002758]","[None, None]",,,,,,,,,,,,,,,,,,,,,,,,,,,,,,,,,,,,,,,,,,,,,,,,,,,45,001,0,,2024-04-16_10h21.05.102,replicate_nsd,2023.2.3,60.02260703451255,2024-04-16 10h21.17.687935 -0400,
practice_images/w_auditorium2.jpg,17,0,,,,,0,17,17,17,,,,,130.56150051199984,,,,,,,,,,,130.54624424400026,130.54636356399988,130.54637591200026,130.56150051199984,130.56150051199984,131.57837421600016,131.57837421600016,134.57836211700032,134.57836211700032,134.57836211700032,134.57836211700032,134.56187002300067,1,0,2.5983468260001246,None,"['1', '2', '1']",134.56266541100013,134.56270537,"[0.06111871799930668, 0.42916519199934555, 0.8091361050001069]","[None, None, None]",,,,,,,,,,,,,,,,,,,,,,,,,,,,,,,,,,,,,,,,,,,,,,,,,,,45,001,0,,2024-04-16_10h21.05.102,replicate_nsd,2023.2.3,60.02260703451255,2024-04-16 10h21.17.687935 -0400,
practice_images/w_boardwalk1.jpg,18,0,,,,,0,18,18,18,,,,,134.57836211700032,,,,,,,,,,,134.56298608500038,134.563100761,134.56311256900062,134.57836211700032,134.57836211700032,135.57835179999984,135.57835179999984,138.57860880299995,138.57860880299995,138.57860880299995,138.57860880299995,138.56220080100047,1,0,2.739316547999806,None,"['2', '1', '2']",138.56300812900008,138.56304897500013,"[0.06658415399942896, 0.4376059520000126, 0.8176843419996658]","[None, None, None]",,,,,,,,,,,,,,,,,,,,,,,,,,,,,,,,,,,,,,,,,,,,,,,,,,,45,001,0,,2024-04-16_10h21.05.102,replicate_nsd,2023.2.3,60.02260703451255,2024-04-16 10h21.17.687935 -0400,
practice_images/w_auditorium1.jpg,19,0,,,,,0,19,19,19,,,,,138.57860880299995,,,,,,,,,,,138.56332168600056,138.56343923199984,138.5634513190007,138.57860880299995,138.57860880299995,139.57858010600012,139.57858010600012,142.58219128400015,142.58219128400015,142.58219128400015,142.58219128400015,142.56234877499992,1,0,2.8308950919999916,None,"['2', '1']",142.56315492800059,142.56319649000034,"[0.16696588400009205, 0.7221868130000075]","[None, None]",,,,,,,,,,,,,,,,,,,,,,,,,,,,,,,,,,,,,,,,,,,,,,,,,,,45,001,0,,2024-04-16_10h21.05.102,replicate_nsd,2023.2.3,60.02260703451255,2024-04-16 10h21.17.687935 -0400,
,,,,,,,,,,,,,,,,,,,,,,,,,,,,,,,,,,,,,,,,,,,,,,,,,142.56325640400064,142.58219128400015,142.58219128400015,142.8453923500001,2,0.259129877000305,None,,,,,,,,,,,,,,,,,,,,,,,,,,,,,,,,,,,,,,,,,,45,001,0,,2024-04-16_10h21.05.102,replicate_nsd,2023.2.3,60.02260703451255,2024-04-16 10h21.17.687935 -0400,
,,,,,,,,,,,,,,,,,,,,,,,,,,,,,,,,,,,,,,,,,,,,,,,,,,,,,,,,142.84541710900066,142.86201838000034,142.86201838000034,145.81133174200022,equal,2.939845482000237,None,,,,,,,,,,,,,,,,,,,,,,,,,,,,,,,,,,,45,001,0,,2024-04-16_10h21.05.102,replicate_nsd,2023.2.3,60.02260703451255,2024-04-16 10h21.17.687935 -0400,
images/image_342_seed_1.png,0,0,0,0,0,"[9, 19, 29, 39, 49, 59, 68, 69, 70, 71]",,,,,0,0,0,0,145.91723917800027,,,,,,,,,,,,,,,,,,,,,,,,,,,,,,,,,,,,,,,,,,,,,,,,145.8875251590007,145.88759867499994,145.88760543900025,145.91723917800027,145.91723917800027,146.89544521300013,146.89544521300013,149.90886532700006,149.90886532700006,149.90886532700006,149.90886532700006,149.87901812600012,2,0,2.8173949239999274,None,None,149.88201822700012,149.88205879199995,None,149.882745635,149.8827990890004,None,149.88348398400012,149.88351975300066,None,,,,,,,,,45,001,0,,2024-04-16_10h21.05.102,replicate_nsd,2023.2.3,60.02260703451255,2024-04-16 10h21.17.687935 -0400,
images/image_100_seed_1.png,1,0,0,0,0,"[9, 19, 29, 39, 49, 59, 68, 69, 70, 71]",,,,,0,1,1,1,149.90886532700006,,,,,,,,,,,,,,,,,,,,,,,,,,,,,,,,,,,,,,,,,,,,,,,,149.88444702800007,149.88453249800023,149.88454113900025,149.90886532700006,149.90886532700006,150.8954056170005,150.8954056170005,153.90978566300055,153.90978566300055,153.90978566300055,153.90978566300055,153.87929009100026,2,0,2.9176595419994555,None,"['1', '2', '1']",153.88193116999992,153.88198179000028,None,153.88211181899987,153.88216865899994,None,153.88229045900061,153.88232648700068,None,"[0.16722346200003813, 0.511798999000348, 0.8781078140000318]","[None, None, None]",,,,,,,45,001,0,,2024-04-16_10h21.05.102,replicate_nsd,2023.2.3,60.02260703451255,2024-04-16 10h21.17.687935 -0400,
images/paired_image_875_2.png,2,0,0,0,0,"[9, 19, 29, 39, 49, 59, 68, 69, 70, 71]",,,,,0,2,2,2,153.90978566300055,,,,,,,,,,,,,,,,,,,,,,,,,,,,,,,,,,,,,,,,,,,,,,,,153.8826776830001,153.8827780850006,153.8827883419999,153.90978566300055,153.90978566300055,154.89570762699987,154.89570762699987,157.89711964400067,157.89711964400067,157.89711964400067,157.89711964400067,157.87937189700006,2,0,2.6357771129996763,None,"['1', '2']",157.88018872800058,157.88023261499984,None,157.88034588900064,157.8804022459999,None,157.8805159550002,157.88055351999992,None,"[0.23268690900022193, 0.5647814479998488]","[None, None]",,,,,,,45,001,0,,2024-04-16_10h21.05.102,replicate_nsd,2023.2.3,60.02260703451255,2024-04-16 10h21.17.687935 -0400,
images/w_escalator1.jpg,3,0,0,0,0,"[9, 19, 29, 39, 49, 59, 68, 69, 70, 71]",,,,,0,3,3,3,157.89711964400067,,,,,,,,,,,,,,,,,,,,,,,,,,,,,,,,,,,,,,,,,,,,,,,,157.88093233700056,157.8810530720002,157.88106630200036,157.89711964400067,157.89711964400067,158.89568413800043,158.89568413800043,161.90978015400015,161.90978015400015,161.90978015400015,161.90978015400015,161.87870889700025,2,0,2.965269549000368,None,"['1', '2', '1']",161.87953408900012,161.87957848899987,None,161.87968941200052,161.87974558299993,None,161.87985986200056,161.87989709400063,None,"[0.030043892999856325, 0.3749981939999998, 0.7842581859995335]","[None, None, None]",,,,,,,45,001,0,,2024-04-16_10h21.05.102,replicate_nsd,2023.2.3,60.02260703451255,2024-04-16 10h21.17.687935 -0400,
images/image_658_seed_1.png,4,0,0,0,0,"[9, 19, 29, 39, 49, 59, 68, 69, 70, 71]",,,,,0,4,4,4,161.90978015400015,,,,,,,,,,,,,,,,,,,,,,,,,,,,,,,,,,,,,,,,,,,,,,,,161.88029608800025,161.8803930740005,161.88040341000033,161.90978015400015,161.90978015400015,162.89590368800054,162.89590368800054,165.90619250000054,165.90619250000054,165.90619250000054,165.90619250000054,165.87952038300045,2,0,2.8949511390001135,None,"['1', '2']",165.88034159000017,165.8803859720001,None,165.88049806300023,165.88055396800064,None,165.88066884100044,165.88070586400045,None,"[0.38355798500015226, 0.7446478289994047]","[None, None]",,,,,,,45,001,0,,2024-04-16_10h21.05.102,replicate_nsd,2023.2.3,60.02260703451255,2024-04-16 10h21.17.687935 -0400,
images/image_91_seed_1.png,5,0,0,0,0,"[9, 19, 29, 39, 49, 59, 68, 69, 70, 71]",,,,,0,5,5,5,165.90619250000054,,,,,,,,,,,,,,,,,,,,,,,,,,,,,,,,,,,,,,,,,,,,,,,,165.88108734400066,165.88121034300002,165.88122360499983,165.90619250000054,165.90619250000054,166.89606253500006,166.89606253500006,169.90697488800015,169.90697488800015,169.90697488800015,169.90697488800015,169.8796436570001,2,0,2.9523039089999656,None,"['1', '2']",169.8804591450007,169.88050400200063,None,169.8806167570001,169.88067102500008,None,169.8807860300003,169.8808231339999,None,"[0.4287185790008152, 0.7743350370001281]","[None, None]",,,,,,,45,001,0,,2024-04-16_10h21.05.102,replicate_nsd,2023.2.3,60.02260703451255,2024-04-16 10h21.17.687935 -0400,
images/image_518_seed_1.png,6,0,0,0,0,"[9, 19, 29, 39, 49, 59, 68, 69, 70, 71]",,,,,0,6,6,6,169.90697488800015,,,,,,,,,,,,,,,,,,,,,,,,,,,,,,,,,,,,,,,,,,,,,,,,169.881206733,169.8813444770003,169.881354526,169.90697488800015,169.90697488800015,170.89604023799984,170.89604023799984,173.9084019689999,173.9084019689999,173.9084019689999,173.9084019689999,173.879816054,2,0,2.9190782200003014,None,"['1', '2']",173.88063472400063,173.88067954300004,None,173.88079118800033,173.88084686399998,None,173.88096118300018,173.88099813100052,None,"[0.3835593430003428, 0.7186115000004065]","[None, None]",,,,,,,45,001,0,,2024-04-16_10h21.05.102,replicate_nsd,2023.2.3,60.02260703451255,2024-04-16 10h21.17.687935 -0400,
images/image_393_seed_1.png,7,0,0,0,0,"[9, 19, 29, 39, 49, 59, 68, 69, 70, 71]",,,,,0,7,7,7,173.9084019689999,,,,,,,,,,,,,,,,,,,,,,,,,,,,,,,,,,,,,,,,,,,,,,,,173.8813791880002,173.8815012240002,173.88151441599985,173.9084019689999,173.9084019689999,174.89618410300045,174.89618410300045,177.9017360759999,177.9017360759999,177.9017360759999,177.9017360759999,177.87963434199992,1,1,2.6299903220005945,None,"['1', '2']",177.88045248600065,177.8805039380004,None,177.88062090899984,177.88066595200053,None,177.88075602400022,177.88078517099984,None,"[0.2967504899997948, 0.712180898999577]","[None, None]",,,,,,,45,001,0,,2024-04-16_10h21.05.102,replicate_nsd,2023.2.3,60.02260703451255,2024-04-16 10h21.17.687935 -0400,
images/image_27_seed_1.png,8,0,0,0,0,"[9, 19, 29, 39, 49, 59, 68, 69, 70, 71]",,,,,0,8,8,8,177.9017360759999,,,,,,,,,,,,,,,,,,,,,,,,,,,,,,,,,,,,,,,,,,,,,,,,177.8810900790004,177.88119055700008,177.88120090900065,177.9017360759999,177.9017360759999,178.8966088490006,178.8966088490006,181.89627702800044,181.89627702800044,181.89627702800044,181.89627702800044,181.8803319510007,1,1,2.8057025840007555,None,"['2', '1', '2']",181.88115732799997,181.88120202100072,None,181.88131411599988,181.88137019100031,None,181.88148431199988,181.8815207560001,None,"[0.0372704800001884, 0.5036408680007298, 0.9285242510004537]","[None, None, None]",,,,,,,45,001,0,,2024-04-16_10h21.05.102,replicate_nsd,2023.2.3,60.02260703451255,2024-04-16 10h21.17.687935 -0400,
blank.jpg,9,1,0,0,0,"[9, 19, 29, 39, 49, 59, 68, 69, 70, 71]",,,,,0,9,9,9,181.89627702800044,,,,,,,,,,,,,,,,,,,,,,,,,,,,,,,,,,,,,,,,,,,,,,,,181.88190126900008,181.8820228630002,181.88203562299987,,,,,,,,,181.88538233100007,None,0,,,None,181.88570531799996,185.87998424000034,"['2', '1', '2', '1', '2', '1', '2', '1', '2']",185.8822851220002,185.88235139500011,None,185.88248491100057,185.88252374400054,None,,,181.89627702800044,181.89627702800044,185.90986735300066,185.90986735300066,"[0.20186545999968075, 0.6011821799993413, 1.008152746999258, 1.4377640099992277, 1.891942010999628, 2.329204179000044, 2.810425973999372, 3.2276486619994103, 3.6158374579999872]","[None, None, None, None, None, None, None, None, None]",45,001,0,,2024-04-16_10h21.05.102,replicate_nsd,2023.2.3,60.02260703451255,2024-04-16 10h21.17.687935 -0400,
images/image_45_seed_1.png,10,0,0,0,0,"[9, 19, 29, 39, 49, 59, 68, 69, 70, 71]",,,,,0,10,10,10,185.90986735300066,,,,,,,,,,,,,,,,,,,,,,,,,,,,,,,,,,,,,,,,,,,,,,,,185.88291582800048,185.8830506130007,185.88306113999988,185.90986735300066,185.90986735300066,186.89599437500056,186.89599437500056,189.90857512599996,189.90857512599996,189.90857512599996,189.90857512599996,189.88035345000026,2,0,2.8693869180006004,None,"['2', '1']",189.88135802600027,189.88140824899983,None,189.88152180999987,189.8815785300003,None,189.88169351299985,189.88173081200057,None,"[0.3565795149997939, 0.7608582060001936]","[None, None]",,,,,,,45,001,0,,2024-04-16_10h21.05.102,replicate_nsd,2023.2.3,60.02260703451255,2024-04-16 10h21.17.687935 -0400,
images/image_7_seed_1.png,11,0,0,0,0,"[9, 19, 29, 39, 49, 59, 68, 69, 70, 71]",,,,,0,11,11,11,189.90857512599996,,,,,,,,,,,,,,,,,,,,,,,,,,,,,,,,,,,,,,,,,,,,,,,,189.88211237500036,189.88223352400018,189.88224635799997,189.90857512599996,189.90857512599996,190.89649066899983,190.89649066899983,193.90817104100006,193.90817104100006,193.90817104100006,193.90817104100006,193.88049109700023,1,1,2.857387892000588,None,"['1', '2']",193.88131069300016,193.88135602200055,None,193.88146808500005,193.88152287600042,None,193.88163663900013,193.88167255400003,None,"[0.27328830899932655, 0.6777664530000038]","[None, None]",,,,,,,45,001,0,,2024-04-16_10h21.05.102,replicate_nsd,2023.2.3,60.02260703451255,2024-04-16 10h21.17.687935 -0400,
images/image_319_seed_1.png,12,0,0,0,0,"[9, 19, 29, 39, 49, 59, 68, 69, 70, 71]",,,,,0,12,12,12,193.90817104100006,,,,,,,,,,,,,,,,,,,,,,,,,,,,,,,,,,,,,,,,,,,,,,,,193.8820502540002,193.88217702200018,193.8821875880003,193.90817104100006,193.90817104100006,194.89659349900012,194.89659349900012,197.90184636400045,197.90184636400045,197.90184636400045,197.90184636400045,197.88036229600038,None,0,,,['2'],197.88100277800004,197.88104713900066,None,197.88115999599995,197.88121522800066,None,197.88132716900054,197.88136315700012,None,[0.15237040000010893],[None],,,,,,,45,001,0,,2024-04-16_10h21.05.102,replicate_nsd,2023.2.3,60.02260703451255,2024-04-16 10h21.17.687935 -0400,
images/5_100.png,13,0,0,0,0,"[9, 19, 29, 39, 49, 59, 68, 69, 70, 71]",,,,,0,13,13,13,197.90184636400045,,,,,,,,,,,,,,,,,,,,,,,,,,,,,,,,,,,,,,,,,,,,,,,,197.88174226200044,197.88186193900037,197.8818746450006,197.90184636400045,197.90184636400045,198.89681389199995,198.89681389199995,201.90556848300002,201.90556848300002,201.90556848300002,201.90556848300002,201.88049280999985,None,0,,,None,201.88092640300056,201.88096934500027,None,201.88108486300007,201.881140683,None,201.88125571599994,201.88129176100028,None,,,,,,,,,45,001,0,,2024-04-16_10h21.05.102,replicate_nsd,2023.2.3,60.02260703451255,2024-04-16 10h21.17.687935 -0400,
images/image_270_seed_1.png,14,0,0,0,0,"[9, 19, 29, 39, 49, 59, 68, 69, 70, 71]",,,,,0,14,14,14,201.90556848300002,,,,,,,,,,,,,,,,,,,,,,,,,,,,,,,,,,,,,,,,,,,,,,,,201.88167183400037,201.88179348700032,201.88180639200073,201.90556848300002,201.90556848300002,202.89694219300054,202.89694219300054,205.90785676399992,205.90785676399992,205.90785676399992,205.90785676399992,205.88053761799983,None,0,,,None,205.88097280700003,205.88101627500055,None,205.88113183800033,205.8811886860003,None,205.88130323600035,205.88133961600033,None,,,,,,,,,45,001,0,,2024-04-16_10h21.05.102,replicate_nsd,2023.2.3,60.02260703451255,2024-04-16 10h21.17.687935 -0400,
images/image_648_seed_1.png,15,0,0,0,0,"[9, 19, 29, 39, 49, 59, 68, 69, 70, 71]",,,,,0,15,15,15,205.90785676399992,,,,,,,,,,,,,,,,,,,,,,,,,,,,,,,,,,,,,,,,,,,,,,,,205.88172140300048,205.88184084300065,205.88185374900058,205.90785676399992,205.90785676399992,206.89697154500027,206.89697154500027,209.90943008500017,209.90943008500017,209.90943008500017,209.90943008500017,209.88071636099994,None,0,,,None,209.88114787500035,209.88119209100023,None,209.8813061589999,209.88136335800027,None,209.88147666199984,209.88151298699995,None,,,,,,,,,45,001,0,,2024-04-16_10h21.05.102,replicate_nsd,2023.2.3,60.02260703451255,2024-04-16 10h21.17.687935 -0400,
images/paired_image_115_1.png,16,0,0,0,0,"[9, 19, 29, 39, 49, 59, 68, 69, 70, 71]",,,,,0,16,16,16,209.90943008500017,,,,,,,,,,,,,,,,,,,,,,,,,,,,,,,,,,,,,,,,,,,,,,,,209.8818944980003,209.88201506299993,209.88202785800058,209.90943008500017,209.90943008500017,210.8970209170002,210.8970209170002,213.9075464160005,213.9075464160005,213.9075464160005,213.9075464160005,213.88079150400063,None,0,,,None,213.88122577500053,213.88126954900054,None,213.88138593200074,213.88144230099988,None,213.8815565900004,213.88159300500047,None,,,,,,,,,45,001,0,,2024-04-16_10h21.05.102,replicate_nsd,2023.2.3,60.02260703451255,2024-04-16 10h21.17.687935 -0400,
images/image_562_seed_1.png,17,0,0,0,0,"[9, 19, 29, 39, 49, 59, 68, 69, 70, 71]",,,,,0,17,17,17,213.9075464160005,,,,,,,,,,,,,,,,,,,,,,,,,,,,,,,,,,,,,,,,,,,,,,,,213.8819738430002,213.88209474999985,213.88210781700036,213.9075464160005,213.9075464160005,214.89719538200006,214.89719538200006,217.90704343900052,217.90704343900052,217.90704343900052,217.90704343900052,217.8808841250002,None,0,,,None,217.88131156200052,217.88135454500025,None,217.88146796799992,217.88152406900008,None,217.8816369850001,217.88167273999989,None,,,,,,,,,45,001,0,,2024-04-16_10h21.05.102,replicate_nsd,2023.2.3,60.02260703451255,2024-04-16 10h21.17.687935 -0400,
images/paired_image_676_2.png,18,0,0,0,0,"[9, 19, 29, 39, 49, 59, 68, 69, 70, 71]",,,,,0,18,18,18,217.90704343900052,,,,,,,,,,,,,,,,,,,,,,,,,,,,,,,,,,,,,,,,,,,,,,,,217.88205359600033,217.88217309900028,217.88218594800037,217.90704343900052,217.90704343900052,218.89722680100022,218.89722680100022,221.89743320100024,221.89743320100024,221.89743320100024,221.89743320100024,221.8810246560006,None,0,,,None,221.88145418000022,221.88149773900022,None,221.88161032800053,221.8816663860007,None,221.88177957600055,221.881816178,None,,,,,,,,,45,001,0,,2024-04-16_10h21.05.102,replicate_nsd,2023.2.3,60.02260703451255,2024-04-16 10h21.17.687935 -0400,
blank.jpg,19,1,0,0,0,"[9, 19, 29, 39, 49, 59, 68, 69, 70, 71]",,,,,0,19,19,19,221.89743320100024,,,,,,,,,,,,,,,,,,,,,,,,,,,,,,,,,,,,,,,,,,,,,,,,221.8821906940002,221.88231193000047,221.88232475899986,,,,,,,,,221.88617584500025,None,0,,,None,221.88657381300072,225.88033097900006,None,225.88054458199986,225.8806046610007,None,225.88073517300018,225.88077348300067,None,,,221.89743320100024,221.89743320100024,225.9039197230004,225.9039197230004,,,45,001,0,,2024-04-16_10h21.05.102,replicate_nsd,2023.2.3,60.02260703451255,2024-04-16 10h21.17.687935 -0400,
images/image_669_seed_1.png,20,0,0,0,0,"[9, 19, 29, 39, 49, 59, 68, 69, 70, 71]",,,,,0,20,20,20,225.9039197230004,,,,,,,,,,,,,,,,,,,,,,,,,,,,,,,,,,,,,,,,,,,,,,,,225.88116837000052,225.88128966100066,225.88130278300014,225.9039197230004,225.9039197230004,226.89623368499997,226.89623368499997,229.90133934000005,229.90133934000005,229.90133934000005,229.90133934000005,229.8798566510004,2,0,2.7093516640006783,None,None,229.88019712500045,229.8802226730004,None,229.8802843500007,229.88031688200044,None,229.88037875999999,229.88039900100011,None,,,,,,,,,45,001,0,,2024-04-16_10h21.05.102,replicate_nsd,2023.2.3,60.02260703451255,2024-04-16 10h21.17.687935 -0400,
images/image_501_seed_1.png,21,0,0,0,0,"[9, 19, 29, 39, 49, 59, 68, 69, 70, 71]",,,,,0,21,21,21,229.90133934000005,,,,,,,,,,,,,,,,,,,,,,,,,,,,,,,,,,,,,,,,,,,,,,,,229.88061695099987,229.88068480499987,229.88069180399998,229.90133934000005,229.90133934000005,230.8962438940007,230.8962438940007,233.8964303769999,233.8964303769999,233.8964303769999,233.8964303769999,233.87993325300067,1,1,2.597709541999393,None,"['1', '2', '1']",233.8803979029999,233.880423091,None,233.8804852430003,233.8805179910005,None,233.8805810370004,233.88060189800035,None,"[0.09920242699990922, 0.4217361239998354, 0.7554751669995312]","[None, None, None]",,,,,,,45,001,0,,2024-04-16_10h21.05.102,replicate_nsd,2023.2.3,60.02260703451255,2024-04-16 10h21.17.687935 -0400,
images/10_89.png,22,0,0,0,0,"[9, 19, 29, 39, 49, 59, 68, 69, 70, 71]",,,,,0,22,22,22,233.8964303769999,,,,,,,,,,,,,,,,,,,,,,,,,,,,,,,,,,,,,,,,,,,,,,,,233.8808144479999,233.8808829310001,233.88089005300026,233.8964303769999,233.8964303769999,234.89633985399996,234.89633985399996,237.9083447310004,237.9083447310004,237.9083447310004,237.9083447310004,237.88134327199987,1,1,2.769054543000493,None,"['1', '2']",237.882171837,237.88221704100033,None,237.88233119600045,237.88238813299995,None,237.88250342300034,237.88254081300056,None,"[0.7330602020001606, 0.980783658999826]","[None, None]",,,,,,,45,001,0,,2024-04-16_10h21.05.102,replicate_nsd,2023.2.3,60.02260703451255,2024-04-16 10h21.17.687935 -0400,
images/image_537_seed_1.png,23,0,0,0,0,"[9, 19, 29, 39, 49, 59, 68, 69, 70, 71]",,,,,0,23,23,23,237.9083447310004,,,,,,,,,,,,,,,,,,,,,,,,,,,,,,,,,,,,,,,,,,,,,,,,237.882927181,237.8830482379999,237.8830611330004,237.9083447310004,237.9083447310004,238.89774108200072,238.89774108200072,241.90753217900055,241.90753217900055,241.90753217900055,241.90753217900055,241.8815821070002,1,1,2.7391552129993215,None,"['2', '1', '2']",241.88243074300044,241.88247972099998,None,241.8825924190005,241.882648023,None,241.88276357999985,241.88280114200006,None,"[0.069061461000274, 0.4690727200004403, 0.9093655050000962]","[None, None, None]",,,,,,,45,001,0,,2024-04-16_10h21.05.102,replicate_nsd,2023.2.3,60.02260703451255,2024-04-16 10h21.17.687935 -0400,
images/image_430_seed_1.png,24,0,0,0,0,"[9, 19, 29, 39, 49, 59, 68, 69, 70, 71]",,,,,0,24,24,24,241.90753217900055,,,,,,,,,,,,,,,,,,,,,,,,,,,,,,,,,,,,,,,,,,,,,,,,241.88318339800026,241.88330986300025,241.88332284399985,241.90753217900055,241.90753217900055,242.89792228100032,242.89792228100032,245.90926602499985,245.90926602499985,245.90926602499985,245.90926602499985,245.88156181500017,2,0,2.7398860780003815,None,"['2', '1', '2']",245.8823655010001,245.88241016900065,None,245.88252029600062,245.8825741240007,None,245.8826847800001,245.8827204980007,None,"[0.08834486300020217, 0.472465992999787, 0.8845733050002309]","[None, None, None]",,,,,,,45,001,0,,2024-04-16_10h21.05.102,replicate_nsd,2023.2.3,60.02260703451255,2024-04-16 10h21.17.687935 -0400,
images/image_423_seed_1.png,25,0,0,0,0,"[9, 19, 29, 39, 49, 59, 68, 69, 70, 71]",,,,,0,25,25,25,245.90926602499985,,,,,,,,,,,,,,,,,,,,,,,,,,,,,,,,,,,,,,,,,,,,,,,,245.88308984200012,245.88320827400003,245.88322075500037,245.90926602499985,245.90926602499985,246.89675720700052,246.89675720700052,249.90638637400025,249.90638637400025,249.90638637400025,249.90638637400025,249.8807355050003,2,0,2.9339613419997477,None,"['1', '2']",249.88155065299998,249.8815959930007,None,249.88170807799997,249.88176266100072,None,249.8818770200005,249.88191281700074,None,"[0.10710060400015209, 0.4991760550001345]","[None, None]",,,,,,,45,001,0,,2024-04-16_10h21.05.102,replicate_nsd,2023.2.3,60.02260703451255,2024-04-16 10h21.17.687935 -0400,
images/paired_image_777_2.png,26,0,0,0,0,"[9, 19, 29, 39, 49, 59, 68, 69, 70, 71]",,,,,0,26,26,26,249.90638637400025,,,,,,,,,,,,,,,,,,,,,,,,,,,,,,,,,,,,,,,,,,,,,,,,249.88229108500036,249.88241139799993,249.88242419200014,249.90638637400025,249.90638637400025,250.89537099900008,250.89537099900008,253.902260201,253.902260201,253.902260201,253.902260201,253.8808740280001,2,0,2.212374895000721,None,['1'],253.881687479,253.88173293900036,None,253.8818450610006,253.88190020000002,None,253.88201607700012,253.88205320100042,None,[0.5207393410000805],[None],,,,,,,45,001,0,,2024-04-16_10h21.05.102,replicate_nsd,2023.2.3,60.02260703451255,2024-04-16 10h21.17.687935 -0400,
,,,,,,,,,,,,,,,253.902260201,,,,,,,,,,,,,,,,,,,,,,,,,,,,,,,,,,,,,,,,,,,,,,,,253.88243757100008,253.88256125899989,253.88257460500063,253.902260201,253.902260201,,,,,,,,,,,,,,,,,,,,,,,,,,,,,,,,,,,,,,,
