current_image,trial_index,is_blank_trial,is_repeat,is_new_run,run_num,all_blanks_list,practice.thisRepN,practice.thisTrialN,practice.thisN,practice.thisIndex,loop_all_images.thisRepN,loop_all_images.thisTrialN,loop_all_images.thisN,loop_all_images.thisIndex,thisRow.t,notes,set_up.started,set_up.stopped,practice_continue.started,key_resp_6.started,text_6.started,practice_continue.stopped,key_resp_6.keys,key_resp_6.rt,key_resp_6.duration,set_skips_and_correct_key_2.started,set_skips_and_correct_key_2.stopped,practice_trial.started,polygon_3.started,all_keys_pressed_2.started,image_2.started,press_if_repeat_2.started,image_2.stopped,press_if_repeat_2.stopped,polygon_3.stopped,all_keys_pressed_2.stopped,practice_trial.stopped,press_if_repeat_2.keys,press_if_repeat_2.corr,press_if_repeat_2.rt,press_if_repeat_2.duration,all_keys_pressed_2.keys,blank_trial_2.started,blank_trial_2.stopped,all_keys_pressed_2.rt,all_keys_pressed_2.duration,polygon_4.started,polygon_4.stopped,testing_continue.started,key_resp_7.started,text_7.started,testing_continue.stopped,key_resp_7.keys,key_resp_7.rt,key_resp_7.duration,waiting_fmri.started,key_resp_2.started,text_3.started,waiting_fmri.stopped,key_resp_2.keys,key_resp_2.rt,key_resp_2.duration,set_skips_and_correct_key.started,set_skips_and_correct_key.stopped,trial.started,polygon.started,all_keys_pressed.started,image.started,press_if_repeat.started,image.stopped,press_if_repeat.stopped,polygon.stopped,all_keys_pressed.stopped,trial.stopped,press_if_repeat.keys,press_if_repeat.corr,all_keys_pressed.keys,blank_trial.started,blank_trial.stopped,blank_trial_testing_keys.keys,run_wait2_2.started,run_wait2_2.stopped,key_resp_5.keys,waiting_fmri_2.started,waiting_fmri_2.stopped,key_resp_4.keys,press_if_repeat.rt,press_if_repeat.duration,all_keys_pressed.rt,all_keys_pressed.duration,blank_trial_testing_keys.started,polygon_2.started,blank_trial_testing_keys.stopped,polygon_2.stopped,participant,session,starting_run,,date,expName,psychopyVersion,frameRate,expStart,
,,,,,,,,,,,,,,,,,0.03155108299688436,0.03178881399799138,0.03181046999816317,0.046014327999728266,0.046014327999728266,9.652946574999078,1,9.590744057997654,None,,,,,,,,,,,,,,,,,,,,,,,,,,,,,,,,,,,,,,,,,,,,,,,,,,,,,,,,,,,,,,,,,,,,,,54,001,0,,2024-04-13_09h46.22.206,replicate_nsd,2023.2.3,60.018556056522776,2024-04-13 09h46.35.086366 -0400,
practice_images/paired_image_35_2.png,0,0,,,,,0,0,0,0,,,,,9.730819507996785,,,,,,,,,,,9.67974062400026,9.679845605998707,9.67985705299725,9.730819507996785,9.730819507996785,10.71965583400015,10.71965583400015,13.722131709997484,13.722131709997484,13.722131709997484,13.722131709997484,13.703201615997386,2,0,2.853264166002191,None,None,13.704250714999944,13.704295059997094,,,,,,,,,,,,,,,,,,,,,,,,,,,,,,,,,,,,,,,,,,,,,,,,,,,54,001,0,,2024-04-13_09h46.22.206,replicate_nsd,2023.2.3,60.018556056522776,2024-04-13 09h46.35.086366 -0400,
practice_images/paired_image_21_2.png,1,0,,,,,0,1,1,1,,,,,13.722131709997484,,,,,,,,,,,13.704570581998269,13.704658010999992,13.704670035996969,13.722131709997484,13.722131709997484,14.719687510998483,14.719687510998483,17.718759793999197,17.718759793999197,17.718759793999197,17.718759793999197,17.70284446599908,1,0,2.6772293709982478,None,"['1', '2', '1', '2', '1', '2', '1', '2']",17.703911844997492,17.703955646000395,"[0.0027283249983156566, 0.1227848329981498, 0.31875081899852375, 0.35478327599776094, 0.5146128829983354, 0.6227925200000755, 0.7626731409982312, 0.8427413149984204]","[None, None, None, None, None, None, None, None]",,,,,,,,,,,,,,,,,,,,,,,,,,,,,,,,,,,,,,,,,,,,,,,,,54,001,0,,2024-04-13_09h46.22.206,replicate_nsd,2023.2.3,60.018556056522776,2024-04-13 09h46.35.086366 -0400,
practice_images/paired_image_16_1.png,2,0,,,,,0,2,2,2,,,,,17.718759793999197,,,,,,,,,,,17.70423575699897,17.704321913999593,17.704333770998346,17.718759793999197,17.718759793999197,18.71969087999969,18.71969087999969,21.718625563997193,21.718625563997193,21.718625563997193,21.718625563997193,21.703452441997797,1,0,2.673237685998174,None,"['1', '2', '1', '2', '1', '1']",21.704376683999726,21.704417398999794,"[0.11405747499884455, 0.1940357919993403, 0.33813209499930963, 0.4979592799973034, 0.6581698709996999, 0.9421728849993087]","[None, None, None, None, None, None]",,,,,,,,,,,,,,,,,,,,,,,,,,,,,,,,,,,,,,,,,,,,,,,,,54,001,0,,2024-04-13_09h46.22.206,replicate_nsd,2023.2.3,60.018556056522776,2024-04-13 09h46.35.086366 -0400,
practice_images/paired_image_15_1.png,3,0,,,,,0,3,3,3,,,,,21.718625563997193,,,,,,,,,,,21.704687739998917,21.70477224899878,21.704783992998273,21.718625563997193,21.718625563997193,22.71967016399867,22.71967016399867,25.71917154899711,25.71917154899711,25.71917154899711,25.71917154899711,25.703026463997958,1,0,2.653246586000023,None,"['1', '2', '1', '2', '1']",25.70363844199892,25.703668415997527,"[0.13827490899711847, 0.39811578299850225, 0.5061783689998265, 0.7981124029975035, 0.9743213939982525]","[None, None, None, None, None]",,,,,,,,,,,,,,,,,,,,,,,,,,,,,,,,,,,,,,,,,,,,,,,,,54,001,0,,2024-04-13_09h46.22.206,replicate_nsd,2023.2.3,60.018556056522776,2024-04-13 09h46.35.086366 -0400,
practice_images/paired_image_4_2.png,4,0,,,,,0,4,4,4,,,,,25.71917154899711,,,,,,,,,,,25.7038573739992,25.703917676997662,25.703925709000032,25.71917154899711,25.71917154899711,26.71938682799737,26.71938682799737,29.718795176999265,29.718795176999265,29.718795176999265,29.718795176999265,29.703292286998476,1,0,2.953529702997912,None,"['2', '1', '1']",29.7040943519969,29.704136075997667,"[0.06960144199911156, 0.23770559100012179, 0.5377289699972607]","[None, None, None]",,,,,,,,,,,,,,,,,,,,,,,,,,,,,,,,,,,,,,,,,,,,,,,,,54,001,0,,2024-04-13_09h46.22.206,replicate_nsd,2023.2.3,60.018556056522776,2024-04-13 09h46.35.086366 -0400,
practice_images/paired_image_22_2.png,5,0,,,,,0,5,5,5,,,,,29.718795176999265,,,,,,,,,,,29.704404862997762,29.704489667998132,29.704501239997626,29.718795176999265,29.718795176999265,30.719430364999425,30.719430364999425,33.718664156996965,33.718664156996965,33.718664156996965,33.718664156996965,33.70329603499704,1,0,2.421481450997817,None,"['2', '1', '2', '1', '2', '1']",33.7041080759991,33.70414890599932,"[0.01807942600134993, 0.2781145070002822, 0.317961484000989, 0.5461315049979021, 0.626144909998402, 0.8261380350013496]","[None, None, None, None, None, None]",,,,,,,,,,,,,,,,,,,,,,,,,,,,,,,,,,,,,,,,,,,,,,,,,54,001,0,,2024-04-13_09h46.22.206,replicate_nsd,2023.2.3,60.018556056522776,2024-04-13 09h46.35.086366 -0400,
practice_images/paired_image_33_1.png,6,0,,,,,0,6,6,6,,,,,33.718664156996965,,,,,,,,,,,33.70442041599745,33.704504563997034,33.704516248999425,33.718664156996965,33.718664156996965,34.719754704998195,34.719754704998195,37.718723083999066,37.718723083999066,37.718723083999066,37.718723083999066,37.70310827499998,1,0,2.7970164329999534,None,"['1', '1', '2']",37.703908131999924,37.703950123999675,"[0.1782749710000644, 0.6502138870018825, 0.762248474999069]","[None, None, None]",,,,,,,,,,,,,,,,,,,,,,,,,,,,,,,,,,,,,,,,,,,,,,,,,54,001,0,,2024-04-13_09h46.22.206,replicate_nsd,2023.2.3,60.018556056522776,2024-04-13 09h46.35.086366 -0400,
practice_images/paired_image_28_2.png,7,0,,,,,0,7,7,7,,,,,37.718723083999066,,,,,,,,,,,37.704219180999644,37.704303467999125,37.70431506599925,37.718723083999066,37.718723083999066,38.71942958699947,38.71942958699947,41.71974418299942,41.71974418299942,41.71974418299942,41.71974418299942,41.70316339299825,1,0,2.697330202001467,None,"['2', '1', '2', '1', '2']",41.70396809999875,41.704009151999344,"[0.0340712760007591, 0.3581888170010643, 0.5461833830013347, 0.6941928950000147, 0.8101365490001626]","[None, None, None, None, None]",,,,,,,,,,,,,,,,,,,,,,,,,,,,,,,,,,,,,,,,,,,,,,,,,54,001,0,,2024-04-13_09h46.22.206,replicate_nsd,2023.2.3,60.018556056522776,2024-04-13 09h46.35.086366 -0400,
practice_images/blank.jpg,8,0,,,,,0,8,8,8,,,,,41.71974418299942,,,,,,,,,,,41.70427860400014,41.70436358299776,41.70437554700038,41.71974418299942,41.71974418299942,42.719149242999265,42.719149242999265,45.71924332999697,45.71924332999697,45.71924332999697,45.71924332999697,45.70336164099717,2,0,2.789760853000189,None,"['1', '2']",45.70417815199835,45.70422042399878,"[0.14518580400181236, 0.4891571380030655]","[None, None]",,,,,,,,,,,,,,,,,,,,,,,,,,,,,,,,,,,,,,,,,,,,,,,,,54,001,0,,2024-04-13_09h46.22.206,replicate_nsd,2023.2.3,60.018556056522776,2024-04-13 09h46.35.086366 -0400,
practice_images/paired_image_33_2.png,9,0,,,,,0,9,9,9,,,,,45.71924332999697,,,,,,,,,,,45.70449128600012,45.70457652899859,45.704588463999244,45.71924332999697,45.71924332999697,46.769781890998274,46.769781890998274,49.76976935299899,49.76976935299899,49.76976935299899,49.76976935299899,49.75332300299851,2,0,2.8751588279992575,None,"['1', '2', '1', '2', '1']",49.75413191199914,49.75417364999885,"[0.061676444001932396, 0.16964140200070688, 0.36964067200096906, 0.45350763000169536, 0.6855601390016091]","[None, None, None, None, None]",,,,,,,,,,,,,,,,,,,,,,,,,,,,,,,,,,,,,,,,,,,,,,,,,54,001,0,,2024-04-13_09h46.22.206,replicate_nsd,2023.2.3,60.018556056522776,2024-04-13 09h46.35.086366 -0400,
practice_images/blank.jpg,10,1,,,,,0,10,10,10,,,,,49.76976935299899,,,,,,,,,,,49.75444849099949,49.75453436799944,49.754546234999,,,,,,,,,49.757867912998336,None,0,,,None,49.75826082899948,53.75331106500016,,,49.76976935299899,53.76879943599852,,,,,,,,,,,,,,,,,,,,,,,,,,,,,,,,,,,,,,,,,,,,,,,54,001,0,,2024-04-13_09h46.22.206,replicate_nsd,2023.2.3,60.018556056522776,2024-04-13 09h46.35.086366 -0400,
practice_images/paired_image_26_2.png,11,0,,,,,0,11,11,11,,,,,53.76879943599852,,,,,,,,,,,53.75369631799913,53.75378711799931,53.75379943699954,53.76879943599852,53.76879943599852,54.769790225996985,54.769790225996985,57.76903680599935,57.76903680599935,57.76903680599935,57.76903680599935,57.75309370499963,2,0,2.9349749679968227,None,"['1', '1', '1']",57.75392299399755,57.753956373999245,"[0.20813327199721243, 0.504088473997399, 0.9320006489979278]","[None, None, None]",,,,,,,,,,,,,,,,,,,,,,,,,,,,,,,,,,,,,,,,,,,,,,,,,54,001,0,,2024-04-13_09h46.22.206,replicate_nsd,2023.2.3,60.018556056522776,2024-04-13 09h46.35.086366 -0400,
practice_images/paired_image_35_1.png,12,0,,,,,0,12,12,12,,,,,57.76903680599935,,,,,,,,,,,57.75417479299722,57.75424330399983,57.75425256000017,57.76903680599935,57.76903680599935,58.76975696899899,58.76975696899899,61.76886451599785,61.76886451599785,61.76886451599785,61.76886451599785,61.75291826299872,2,0,2.771146316998056,None,"['1', '2']",61.7534825219991,61.7535088409968,"[0.13575654499800294, 0.3039119169989135]","[None, None]",,,,,,,,,,,,,,,,,,,,,,,,,,,,,,,,,,,,,,,,,,,,,,,,,54,001,0,,2024-04-13_09h46.22.206,replicate_nsd,2023.2.3,60.018556056522776,2024-04-13 09h46.35.086366 -0400,
practice_images/paired_image_6_1.png,13,0,,,,,0,13,13,13,,,,,61.76886451599785,,,,,,,,,,,61.75368583599993,61.75374273799753,61.75375037899721,61.76886451599785,61.76886451599785,62.76952768599949,62.76952768599949,65.76885524399768,65.76885524399768,65.76885524399768,65.76885524399768,65.7528787889969,None,0,,,"['2', '1']",65.75351120099731,65.75355199999831,"[0.26389170499896863, 0.4319431389994861]","[None, None]",,,,,,,,,,,,,,,,,,,,,,,,,,,,,,,,,,,,,,,,,,,,,,,,,54,001,0,,2024-04-13_09h46.22.206,replicate_nsd,2023.2.3,60.018556056522776,2024-04-13 09h46.35.086366 -0400,
practice_images/paired_image_34_1.png,14,0,,,,,0,14,14,14,,,,,65.76885524399768,,,,,,,,,,,65.75382179299777,65.75390656399759,65.75391852199755,65.76885524399768,65.76885524399768,66.76941966499726,66.76941966499726,69.76928811899779,69.76928811899779,69.76928811899779,69.76928811899779,69.7530014369986,None,0,,,None,69.75342557099793,69.75346550199902,,,,,,,,,,,,,,,,,,,,,,,,,,,,,,,,,,,,,,,,,,,,,,,,,,,54,001,0,,2024-04-13_09h46.22.206,replicate_nsd,2023.2.3,60.018556056522776,2024-04-13 09h46.35.086366 -0400,
practice_images/paired_image_11_2.png,15,0,,,,,0,15,15,15,,,,,69.76928811899779,,,,,,,,,,,69.75374066099903,69.75382641599936,69.7538381589984,69.76928811899779,69.76928811899779,70.7695137999981,70.7695137999981,73.76901613299924,73.76901613299924,73.76901613299924,73.76901613299924,73.75307642199914,None,0,,,None,73.75350748100027,73.7535488029971,,,,,,,,,,,,,,,,,,,,,,,,,,,,,,,,,,,,,,,,,,,,,,,,,,,54,001,0,,2024-04-13_09h46.22.206,replicate_nsd,2023.2.3,60.018556056522776,2024-04-13 09h46.35.086366 -0400,
practice_images/paired_image_24_2.png,16,0,,,,,0,16,16,16,,,,,73.76901613299924,,,,,,,,,,,73.75383120299739,73.75391771199793,73.75392979299795,73.76901613299924,73.76901613299924,74.76954679600021,74.76954679600021,77.76900581599693,77.76900581599693,77.76900581599693,77.76900581599693,77.7533167449983,2,0,2.7472874429986405,None,None,77.75391342399962,77.75395321099859,,,,,,,,,,,,,,,,,,,,,,,,,,,,,,,,,,,,,,,,,,,,,,,,,,,54,001,0,,2024-04-13_09h46.22.206,replicate_nsd,2023.2.3,60.018556056522776,2024-04-13 09h46.35.086366 -0400,
practice_images/paired_image_25_1.png,17,0,,,,,0,17,17,17,,,,,77.76900581599693,,,,,,,,,,,77.75422124499892,77.754305784998,77.75431745899914,77.76900581599693,77.76900581599693,78.76942036299806,78.76942036299806,81.76929538499826,81.76929538499826,81.76929538499826,81.76929538499826,81.75289803799751,1,0,2.6633799039991572,None,"['2', '1', '2']",81.75346961999821,81.75349869599813,"[0.49193216699859477, 0.6717784430002212, 0.9038837129992316]","[None, None, None]",,,,,,,,,,,,,,,,,,,,,,,,,,,,,,,,,,,,,,,,,,,,,,,,,54,001,0,,2024-04-13_09h46.22.206,replicate_nsd,2023.2.3,60.018556056522776,2024-04-13 09h46.35.086366 -0400,
practice_images/paired_image_3_1.png,18,0,,,,,0,18,18,18,,,,,81.76929538499826,,,,,,,,,,,81.75368901299953,81.75374851299784,81.75375651799914,81.76929538499826,81.76929538499826,82.76841525599957,82.76841525599957,85.7689359319993,85.7689359319993,85.7689359319993,85.7689359319993,85.7529757049997,2,0,2.6483723759993154,None,"['1', '2', '1', '2', '1']",85.75385143899985,85.75390293099917,"[0.0876554930000566, 0.3514621520007495, 0.5514543780009262, 0.7273940790000779, 0.8954795879981248]","[None, None, None, None, None]",,,,,,,,,,,,,,,,,,,,,,,,,,,,,,,,,,,,,,,,,,,,,,,,,54,001,0,,2024-04-13_09h46.22.206,replicate_nsd,2023.2.3,60.018556056522776,2024-04-13 09h46.35.086366 -0400,
practice_images/paired_image_29_1.png,19,0,,,,,0,19,19,19,,,,,85.7689359319993,,,,,,,,,,,85.7541693359999,85.75426057000004,85.75427216899698,85.7689359319993,85.7689359319993,86.76958679299787,86.76958679299787,89.77201344399873,89.77201344399873,89.77201344399873,89.77201344399873,89.75336769400019,1,0,2.71513958200012,None,['2'],89.7541664729979,89.75420816299811,[0.027976401001069462],[None],,,,,,,,,,,,,,,,,,,,,,,,,,,,,,,,,,,,,,,,,,,,,,,,,54,001,0,,2024-04-13_09h46.22.206,replicate_nsd,2023.2.3,60.018556056522776,2024-04-13 09h46.35.086366 -0400,
,,,,,,,,,,,,,,,,,,,,,,,,,,,,,,,,,,,,,,,,,,,,,,,,,89.75426612599767,89.77201344399873,89.77201344399873,90.26887637099935,1,0.48873660300159827,None,,,,,,,,,,,,,,,,,,,,,,,,,,,,,,,,,,,,,,,,54,001,0,,2024-04-13_09h46.22.206,replicate_nsd,2023.2.3,60.018556056522776,2024-04-13 09h46.35.086366 -0400,
,,,,,,,,,,,,,,,,,,,,,,,,,,,,,,,,,,,,,,,,,,,,,,,,,,,,,,,,90.26890109099986,90.28597744899889,90.28597744899889,96.98634941799901,equal,6.698902724998334,None,,,,,,,,,,,,,,,,,,,,,,,,,,,,,,,,,54,001,0,,2024-04-13_09h46.22.206,replicate_nsd,2023.2.3,60.018556056522776,2024-04-13 09h46.35.086366 -0400,
images/image_533_seed_1.png,0,0,0,0,0,"[9, 19, 29, 39, 49, 59, 68, 69, 70, 71]",,,,,0,0,0,0,97.09938842699921,,,,,,,,,,,,,,,,,,,,,,,,,,,,,,,,,,,,,,,,,,,,,,,,97.06617235699741,97.06624189099966,97.06624871799795,97.09938842699921,97.09938842699921,98.08598212099969,98.08598212099969,101.09099693099779,101.09099693099779,101.09099693099779,101.09099693099779,101.0698247170003,None,0,None,101.07195028699789,101.07199089399728,None,101.07267302199762,101.07276818099854,None,101.07346473199868,101.073502018,None,,,,,,,,,54,001,0,,2024-04-13_09h46.22.206,replicate_nsd,2023.2.3,60.018556056522776,2024-04-13 09h46.35.086366 -0400,
images/image_609_seed_1.png,1,0,0,0,0,"[9, 19, 29, 39, 49, 59, 68, 69, 70, 71]",,,,,0,1,1,1,101.09099693099779,,,,,,,,,,,,,,,,,,,,,,,,,,,,,,,,,,,,,,,,,,,,,,,,101.0744184489995,101.07450558799974,101.07451603499794,101.09099693099779,101.09099693099779,102.08639992799726,102.08639992799726,105.09556405199692,105.09556405199692,105.09556405199692,105.09556405199692,105.07006772499881,2,0,['2'],105.07307495699933,105.07311464799932,None,105.07321814999887,105.08231211399834,None,105.08241491399895,105.08244175299842,None,2.8105262650024088,None,[0.7979022609979438],[None],,,,,54,001,0,,2024-04-13_09h46.22.206,replicate_nsd,2023.2.3,60.018556056522776,2024-04-13 09h46.35.086366 -0400,
images/image_615_seed_1.png,2,0,0,0,0,"[9, 19, 29, 39, 49, 59, 68, 69, 70, 71]",,,,,0,2,2,2,105.09556405199692,,,,,,,,,,,,,,,,,,,,,,,,,,,,,,,,,,,,,,,,,,,,,,,,105.08271192000029,105.08283408599891,105.08284319999802,105.09556405199692,105.09556405199692,106.08581879199846,106.08581879199846,109.0867144469994,109.0867144469994,109.0867144469994,109.0867144469994,109.0698995069979,2,0,"['2', '1', '2', '1', '2', '1', '2']",109.07083514499755,109.07088208599816,None,109.07099507999737,109.07110086999819,None,109.07122078300017,109.07125869599986,None,2.846985631997086,None,"[0.1251993730002141, 0.2892203210030857, 0.40934310700322385, 0.573315690002346, 0.6813743740021891, 0.8453250570019009, 0.949339142000099]","[None, None, None, None, None, None, None]",,,,,54,001,0,,2024-04-13_09h46.22.206,replicate_nsd,2023.2.3,60.018556056522776,2024-04-13 09h46.35.086366 -0400,
images/image_548_seed_1.png,3,0,0,0,0,"[9, 19, 29, 39, 49, 59, 68, 69, 70, 71]",,,,,0,3,3,3,109.0867144469994,,,,,,,,,,,,,,,,,,,,,,,,,,,,,,,,,,,,,,,,,,,,,,,,109.07163514700005,109.0717418940003,109.07175495299816,109.0867144469994,109.0867144469994,110.08638551999684,110.08638551999684,113.08529636700041,113.08529636700041,113.08529636700041,113.08529636700041,113.06989873499697,2,0,"['1', '2', '1', '2', '1', '2']",113.07086621399867,113.07091376599783,None,113.07102643699909,113.07112999200035,None,113.07125002499743,113.07128711000041,None,0.4545011970003543,None,"[0.10219572799906018, 0.23003668199817184, 0.4300243979996594, 0.5862161289987853, 0.7062006769992877, 0.8660115050006425]","[None, None, None, None, None, None]",,,,,54,001,0,,2024-04-13_09h46.22.206,replicate_nsd,2023.2.3,60.018556056522776,2024-04-13 09h46.35.086366 -0400,
images/image_306_seed_1.png,4,0,0,0,0,"[9, 19, 29, 39, 49, 59, 68, 69, 70, 71]",,,,,0,4,4,4,113.08529636700041,,,,,,,,,,,,,,,,,,,,,,,,,,,,,,,,,,,,,,,,,,,,,,,,113.07166589699773,113.07177368499833,113.07178668899724,113.08529636700041,113.08529636700041,114.08641604299919,114.08641604299919,117.08530016299846,117.08530016299846,117.08530016299846,117.08530016299846,117.06979312199837,None,0,None,117.070288101997,117.07033292999768,None,117.070447135,117.0705499479991,None,117.07066919499994,117.07070537799882,None,,,,,,,,,54,001,0,,2024-04-13_09h46.22.206,replicate_nsd,2023.2.3,60.018556056522776,2024-04-13 09h46.35.086366 -0400,
images/image_372_seed_1.png,5,0,0,0,0,"[9, 19, 29, 39, 49, 59, 68, 69, 70, 71]",,,,,0,5,5,5,117.08530016299846,,,,,,,,,,,,,,,,,,,,,,,,,,,,,,,,,,,,,,,,,,,,,,,,117.07107840199751,117.07118424299915,117.07119694399807,117.08530016299846,117.08530016299846,118.08616274099768,118.08616274099768,121.08687672700034,121.08687672700034,121.08687672700034,121.08687672700034,121.06990732399936,None,0,None,121.07041012499758,121.0704550579976,None,121.07057002999863,121.07067457499943,None,121.07079346399769,121.07083097799841,None,,,,,,,,,54,001,0,,2024-04-13_09h46.22.206,replicate_nsd,2023.2.3,60.018556056522776,2024-04-13 09h46.35.086366 -0400,
images/image_688_seed_1.png,6,0,0,0,0,"[9, 19, 29, 39, 49, 59, 68, 69, 70, 71]",,,,,0,6,6,6,121.08687672700034,,,,,,,,,,,,,,,,,,,,,,,,,,,,,,,,,,,,,,,,,,,,,,,,121.071206659999,121.0713145310001,121.0713276059978,121.08687672700034,121.08687672700034,122.08586360299887,122.08586360299887,125.08859734999714,125.08859734999714,125.08859734999714,125.08859734999714,125.06992155300031,None,0,None,125.07044372299788,125.07048965099966,None,125.07060377299786,125.07070775600005,None,125.07109318999937,125.07113178899817,None,,,,,,,,,54,001,0,,2024-04-13_09h46.22.206,replicate_nsd,2023.2.3,60.018556056522776,2024-04-13 09h46.35.086366 -0400,
images/image_96_seed_1.png,7,0,0,0,0,"[9, 19, 29, 39, 49, 59, 68, 69, 70, 71]",,,,,0,7,7,7,125.08859734999714,,,,,,,,,,,,,,,,,,,,,,,,,,,,,,,,,,,,,,,,,,,,,,,,125.07151060699834,125.0716195299974,125.07163253899853,125.08859734999714,125.08859734999714,126.08642312299708,126.08642312299708,129.0862891509969,129.0862891509969,129.0862891509969,129.0862891509969,129.0698820079997,None,0,None,129.0704002479979,129.07044634699923,None,129.0705597039996,129.0706639309974,None,129.0707827469996,129.07081984899924,None,,,,,,,,,54,001,0,,2024-04-13_09h46.22.206,replicate_nsd,2023.2.3,60.018556056522776,2024-04-13 09h46.35.086366 -0400,
images/image_651_seed_1.png,8,0,0,0,0,"[9, 19, 29, 39, 49, 59, 68, 69, 70, 71]",,,,,0,8,8,8,129.0862891509969,,,,,,,,,,,,,,,,,,,,,,,,,,,,,,,,,,,,,,,,,,,,,,,,129.07119302499996,129.07129958899895,129.0713124319991,129.0862891509969,129.0862891509969,130.0863789449977,130.0863789449977,133.08527838499867,133.08527838499867,133.08527838499867,133.08527838499867,133.06982954900013,None,0,None,133.07035158599683,133.07039687900033,None,133.07051104600032,133.07061538400012,None,133.0707349189979,133.07077205399764,None,,,,,,,,,54,001,0,,2024-04-13_09h46.22.206,replicate_nsd,2023.2.3,60.018556056522776,2024-04-13 09h46.35.086366 -0400,
images/blank.jpg,9,1,0,0,0,"[9, 19, 29, 39, 49, 59, 68, 69, 70, 71]",,,,,0,9,9,9,133.08527838499867,,,,,,,,,,,,,,,,,,,,,,,,,,,,,,,,,,,,,,,,,,,,,,,,133.07114565699885,133.07125329399787,133.07126635199893,,,,,,,,,133.07815241199933,None,0,None,133.07856191099927,137.0696842039979,None,137.06990255299752,137.0700251299968,None,137.0701611959994,137.07020087599813,None,,,,,133.08527838499867,133.08527838499867,137.08713482599705,137.08713482599705,54,001,0,,2024-04-13_09h46.22.206,replicate_nsd,2023.2.3,60.018556056522776,2024-04-13 09h46.35.086366 -0400,
images/image_564_seed_1.png,10,0,0,0,0,"[9, 19, 29, 39, 49, 59, 68, 69, 70, 71]",,,,,0,10,10,10,137.08713482599705,,,,,,,,,,,,,,,,,,,,,,,,,,,,,,,,,,,,,,,,,,,,,,,,137.07059435499832,137.07070100599958,137.07071376000022,137.08713482599705,137.08713482599705,138.08636872900024,138.08636872900024,141.08542553199732,141.08542553199732,141.08542553199732,141.08542553199732,141.06989829799932,None,0,None,141.07041144100003,141.07045803099754,None,141.07057245399847,141.0706743970004,None,141.0707908029981,141.07082670799718,None,,,,,,,,,54,001,0,,2024-04-13_09h46.22.206,replicate_nsd,2023.2.3,60.018556056522776,2024-04-13 09h46.35.086366 -0400,
images/image_81_seed_1.png,11,0,0,0,0,"[9, 19, 29, 39, 49, 59, 68, 69, 70, 71]",,,,,0,11,11,11,141.08542553199732,,,,,,,,,,,,,,,,,,,,,,,,,,,,,,,,,,,,,,,,,,,,,,,,141.07119617199714,141.0713012519991,141.07131409700014,141.08542553199732,141.08542553199732,142.0858956009979,142.0858956009979,145.08552602299824,145.08552602299824,145.08552602299824,145.08552602299824,145.06991934399775,None,0,None,145.07044296699678,145.0704907779982,None,145.07060748099684,145.07071118399836,None,145.0708313699979,145.07086862899814,None,,,,,,,,,54,001,0,,2024-04-13_09h46.22.206,replicate_nsd,2023.2.3,60.018556056522776,2024-04-13 09h46.35.086366 -0400,
images/image_393_seed_1.png,12,0,0,0,0,"[9, 19, 29, 39, 49, 59, 68, 69, 70, 71]",,,,,0,12,12,12,145.08552602299824,,,,,,,,,,,,,,,,,,,,,,,,,,,,,,,,,,,,,,,,,,,,,,,,145.0712464449971,145.07135427899993,145.07136704599907,145.08552602299824,145.08552602299824,146.08603721199688,146.08603721199688,149.08671638099986,149.08671638099986,149.08671638099986,149.08671638099986,149.06995558699782,None,0,None,149.07051069099907,149.07055690299967,None,149.07067253199784,149.07077714600018,None,149.0708955959999,149.07093303500005,None,,,,,,,,,54,001,0,,2024-04-13_09h46.22.206,replicate_nsd,2023.2.3,60.018556056522776,2024-04-13 09h46.35.086366 -0400,
images/image_194_seed_1.png,13,0,0,0,0,"[9, 19, 29, 39, 49, 59, 68, 69, 70, 71]",,,,,0,13,13,13,149.08671638099986,,,,,,,,,,,,,,,,,,,,,,,,,,,,,,,,,,,,,,,,,,,,,,,,149.0713409789969,149.0714517460001,149.07146482299868,149.08671638099986,149.08671638099986,150.08544675699886,150.08544675699886,153.088717224,153.088717224,153.088717224,153.088717224,153.06970776399976,None,0,None,153.0702052639972,153.07025021299705,None,153.07036263999908,153.070464436998,None,153.07058178399893,153.07061822899777,None,,,,,,,,,54,001,0,,2024-04-13_09h46.22.206,replicate_nsd,2023.2.3,60.018556056522776,2024-04-13 09h46.35.086366 -0400,
images/image_639_seed_1.png,14,0,0,0,0,"[9, 19, 29, 39, 49, 59, 68, 69, 70, 71]",,,,,0,14,14,14,153.088717224,,,,,,,,,,,,,,,,,,,,,,,,,,,,,,,,,,,,,,,,,,,,,,,,153.0709906239972,153.07109641699935,153.07110919999832,153.088717224,153.088717224,154.08608509699843,154.08608509699843,157.0858956239972,157.0858956239972,157.0858956239972,157.0858956239972,157.06957366299685,None,0,None,157.07012585699704,157.07017118699878,None,157.07028567700036,157.07038865399954,None,157.070506328997,157.07054321800024,None,,,,,,,,,54,001,0,,2024-04-13_09h46.22.206,replicate_nsd,2023.2.3,60.018556056522776,2024-04-13 09h46.35.086366 -0400,
images/image_677_seed_1.png,15,0,0,0,0,"[9, 19, 29, 39, 49, 59, 68, 69, 70, 71]",,,,,0,15,15,15,157.0858956239972,,,,,,,,,,,,,,,,,,,,,,,,,,,,,,,,,,,,,,,,,,,,,,,,157.07092135399944,157.07102753099753,157.07104029699985,157.0858956239972,157.0858956239972,158.08606041299936,158.08606041299936,161.0850829689989,161.0850829689989,161.0850829689989,161.0850829689989,161.06979474699983,None,0,None,161.0702890649991,161.0703334259997,None,161.07044813299945,161.0705505429978,None,161.0706693079992,161.07070657700024,None,,,,,,,,,54,001,0,,2024-04-13_09h46.22.206,replicate_nsd,2023.2.3,60.018556056522776,2024-04-13 09h46.35.086366 -0400,
images/image_46_seed_1.png,16,0,0,0,0,"[9, 19, 29, 39, 49, 59, 68, 69, 70, 71]",,,,,0,16,16,16,161.0850829689989,,,,,,,,,,,,,,,,,,,,,,,,,,,,,,,,,,,,,,,,,,,,,,,,161.0710846969996,161.07119013099873,161.07120285400015,161.0850829689989,161.0850829689989,162.0863917739989,162.0863917739989,165.08514847599872,165.08514847599872,165.08514847599872,165.08514847599872,165.06970089899914,None,0,None,165.07025358899773,165.0702984849995,None,165.0704131559978,165.0705154899988,None,165.07063470499997,165.07067155599725,None,,,,,,,,,54,001,0,,2024-04-13_09h46.22.206,replicate_nsd,2023.2.3,60.018556056522776,2024-04-13 09h46.35.086366 -0400,
images/image_420_seed_1.png,17,0,0,0,0,"[9, 19, 29, 39, 49, 59, 68, 69, 70, 71]",,,,,0,17,17,17,165.08514847599872,,,,,,,,,,,,,,,,,,,,,,,,,,,,,,,,,,,,,,,,,,,,,,,,165.07105188399873,165.0711762519968,165.0711896549983,165.08514847599872,165.08514847599872,166.08638439899732,166.08638439899732,169.0853218709999,169.0853218709999,169.0853218709999,169.0853218709999,169.06994577599835,None,0,None,169.07049794299746,169.07054341299954,None,169.0706595479969,169.07076217899885,None,169.07087880299878,169.07091516599758,None,,,,,,,,,54,001,0,,2024-04-13_09h46.22.206,replicate_nsd,2023.2.3,60.018556056522776,2024-04-13 09h46.35.086366 -0400,
images/image_446_seed_1.png,18,0,0,0,0,"[9, 19, 29, 39, 49, 59, 68, 69, 70, 71]",,,,,0,18,18,18,169.0853218709999,,,,,,,,,,,,,,,,,,,,,,,,,,,,,,,,,,,,,,,,,,,,,,,,169.07129086799978,169.07139770199865,169.07141076699918,169.0853218709999,169.0853218709999,170.08638959399832,170.08638959399832,173.08637668899974,173.08637668899974,173.08637668899974,173.08637668899974,173.0699547289987,None,0,None,173.07045368299805,173.07049909999841,None,173.07061341099688,173.07071702599933,None,173.070834533999,173.07087128799685,None,,,,,,,,,54,001,0,,2024-04-13_09h46.22.206,replicate_nsd,2023.2.3,60.018556056522776,2024-04-13 09h46.35.086366 -0400,
images/blank.jpg,19,1,0,0,0,"[9, 19, 29, 39, 49, 59, 68, 69, 70, 71]",,,,,0,19,19,19,173.08637668899974,,,,,,,,,,,,,,,,,,,,,,,,,,,,,,,,,,,,,,,,,,,,,,,,173.07124200500039,173.07134736799708,173.07136037399687,,,,,,,,,173.07470994100004,None,0,None,173.0750267939984,177.069953334998,None,177.0701690049973,177.07028999699833,None,177.0704263259977,177.07046546699712,None,,,,,173.08637668899974,173.08637668899974,177.08572574499703,177.08572574499703,54,001,0,,2024-04-13_09h46.22.206,replicate_nsd,2023.2.3,60.018556056522776,2024-04-13 09h46.35.086366 -0400,
images/image_701_seed_1.png,20,0,0,0,0,"[9, 19, 29, 39, 49, 59, 68, 69, 70, 71]",,,,,0,20,20,20,177.08572574499703,,,,,,,,,,,,,,,,,,,,,,,,,,,,,,,,,,,,,,,,,,,,,,,,177.07085983999787,177.0709669309981,177.0709798659991,177.08572574499703,177.08572574499703,178.08589107599983,178.08589107599983,181.08746469799735,181.08746469799735,181.08746469799735,181.08746469799735,181.0726345999974,None,0,None,181.07325024599777,181.07329610299712,None,181.07340984199982,181.07351309299702,None,181.07363617499868,181.07367309300025,None,,,,,,,,,54,001,0,,2024-04-13_09h46.22.206,replicate_nsd,2023.2.3,60.018556056522776,2024-04-13 09h46.35.086366 -0400,
images/image_489_seed_1.png,21,0,0,0,0,"[9, 19, 29, 39, 49, 59, 68, 69, 70, 71]",,,,,0,21,21,21,181.08746469799735,,,,,,,,,,,,,,,,,,,,,,,,,,,,,,,,,,,,,,,,,,,,,,,,181.0740580269994,181.0741647449977,181.07417763099875,181.08746469799735,181.08746469799735,182.08612868699856,182.08612868699856,185.08531459699952,185.08531459699952,185.08531459699952,185.08531459699952,185.06955555899913,None,0,None,185.07005108799785,185.07009728999765,None,185.0702129129968,185.07031527199797,None,185.07043353399786,185.07047051399786,None,,,,,,,,,54,001,0,,2024-04-13_09h46.22.206,replicate_nsd,2023.2.3,60.018556056522776,2024-04-13 09h46.35.086366 -0400,
images/image_250_seed_1.png,22,0,0,0,0,"[9, 19, 29, 39, 49, 59, 68, 69, 70, 71]",,,,,0,22,22,22,185.08531459699952,,,,,,,,,,,,,,,,,,,,,,,,,,,,,,,,,,,,,,,,,,,,,,,,185.07084875799774,185.0709559229981,185.07096912999987,185.08531459699952,185.08531459699952,186.08641613999862,186.08641613999862,189.08664610899723,189.08664610899723,189.08664610899723,189.08664610899723,189.07012872599807,None,0,None,189.070757649999,189.07080218400006,None,189.0709163199972,189.07101861199772,None,189.07113809599832,189.0711752419993,None,,,,,,,,,54,001,0,,2024-04-13_09h46.22.206,replicate_nsd,2023.2.3,60.018556056522776,2024-04-13 09h46.35.086366 -0400,
images/image_703_seed_1.png,23,0,0,0,0,"[9, 19, 29, 39, 49, 59, 68, 69, 70, 71]",,,,,0,23,23,23,189.08664610899723,,,,,,,,,,,,,,,,,,,,,,,,,,,,,,,,,,,,,,,,,,,,,,,,189.0715513019968,189.07165711599737,189.07166979699832,189.08664610899723,189.08664610899723,190.08640670199748,190.08640670199748,193.08596112599844,193.08596112599844,193.08596112599844,193.08596112599844,193.06914589299777,None,0,None,193.06977379599994,193.06982881099975,None,193.06996011699812,193.07006903199726,None,193.0701953909993,193.07023361499887,None,,,,,,,,,54,001,0,,2024-04-13_09h46.22.206,replicate_nsd,2023.2.3,60.018556056522776,2024-04-13 09h46.35.086366 -0400,
images/image_409_seed_1.png,24,0,0,0,0,"[9, 19, 29, 39, 49, 59, 68, 69, 70, 71]",,,,,0,24,24,24,193.08596112599844,,,,,,,,,,,,,,,,,,,,,,,,,,,,,,,,,,,,,,,,,,,,,,,,193.07062415899782,193.07071363499927,193.07072394299757,193.08596112599844,193.08596112599844,194.08608943099898,194.08608943099898,197.085411500997,197.085411500997,197.085411500997,197.085411500997,197.06957923299706,None,0,None,197.07014878299742,197.07019645499895,None,197.07031334099884,197.0704170909994,None,197.07053547000032,197.070572274999,None,,,,,,,,,54,001,0,,2024-04-13_09h46.22.206,replicate_nsd,2023.2.3,60.018556056522776,2024-04-13 09h46.35.086366 -0400,
images/image_596_seed_1.png,25,0,0,0,0,"[9, 19, 29, 39, 49, 59, 68, 69, 70, 71]",,,,,0,25,25,25,197.085411500997,,,,,,,,,,,,,,,,,,,,,,,,,,,,,,,,,,,,,,,,,,,,,,,,197.07094812200012,197.07105557799878,197.07106818199827,197.085411500997,197.085411500997,198.086035737997,198.086035737997,201.08534263899855,201.08534263899855,201.08534263899855,201.08534263899855,201.06954888999826,None,0,None,201.07004690800022,201.07009322999875,None,201.0702081499985,201.0703107829977,None,201.0704297159973,201.07046757499847,None,,,,,,,,,54,001,0,,2024-04-13_09h46.22.206,replicate_nsd,2023.2.3,60.018556056522776,2024-04-13 09h46.35.086366 -0400,
images/image_187_seed_1.png,26,0,0,0,0,"[9, 19, 29, 39, 49, 59, 68, 69, 70, 71]",,,,,0,26,26,26,201.08534263899855,,,,,,,,,,,,,,,,,,,,,,,,,,,,,,,,,,,,,,,,,,,,,,,,201.070847873998,201.07095540499722,201.07096855899727,201.08534263899855,201.08534263899855,202.08637748599722,202.08637748599722,205.08529665499736,205.08529665499736,205.08529665499736,205.08529665499736,205.06998957500036,None,0,None,205.07054585199876,205.0705918709973,None,205.07070741999996,205.07080970199968,None,205.07092774099874,205.07096519399784,None,,,,,,,,,54,001,0,,2024-04-13_09h46.22.206,replicate_nsd,2023.2.3,60.018556056522776,2024-04-13 09h46.35.086366 -0400,
images/image_245_seed_1.png,27,0,0,0,0,"[9, 19, 29, 39, 49, 59, 68, 69, 70, 71]",,,,,0,27,27,27,205.08529665499736,,,,,,,,,,,,,,,,,,,,,,,,,,,,,,,,,,,,,,,,,,,,,,,,205.07134273299744,205.07144946799963,205.07146212099906,205.08529665499736,205.08529665499736,206.08608390799782,206.08608390799782,209.08529744299813,209.08529744299813,209.08529744299813,209.08529744299813,209.06990368699917,None,0,None,209.0704037129981,209.07044889299868,None,209.07056299299802,209.07066583799678,None,209.07078626499788,209.0708235619968,None,,,,,,,,,54,001,0,,2024-04-13_09h46.22.206,replicate_nsd,2023.2.3,60.018556056522776,2024-04-13 09h46.35.086366 -0400,
images/image_447_seed_1.png,28,0,0,0,0,"[9, 19, 29, 39, 49, 59, 68, 69, 70, 71]",,,,,0,28,28,28,209.08529744299813,,,,,,,,,,,,,,,,,,,,,,,,,,,,,,,,,,,,,,,,,,,,,,,,209.0711975899976,209.07130394100022,209.0713169369992,209.08529744299813,209.08529744299813,210.08602388699728,210.08602388699728,213.08605467499729,213.08605467499729,213.08605467499729,213.08605467499729,213.06991114799894,None,0,None,213.0704656329981,213.0705115919991,None,213.07062709199818,213.0707301379989,None,213.07084997999846,213.0708870769995,None,,,,,,,,,54,001,0,,2024-04-13_09h46.22.206,replicate_nsd,2023.2.3,60.018556056522776,2024-04-13 09h46.35.086366 -0400,
images/blank.jpg,29,1,0,0,0,"[9, 19, 29, 39, 49, 59, 68, 69, 70, 71]",,,,,0,29,29,29,213.08605467499729,,,,,,,,,,,,,,,,,,,,,,,,,,,,,,,,,,,,,,,,,,,,,,,,213.07126382999922,213.07136994699977,213.07138287799899,,,,,,,,,213.07422247399882,None,0,None,213.07455406000008,217.0698679629968,None,217.07008215099995,217.07020170800024,None,217.07033805899846,217.0703770589971,None,,,,,213.08605467499729,213.08605467499729,217.0854739030001,217.0854739030001,54,001,0,,2024-04-13_09h46.22.206,replicate_nsd,2023.2.3,60.018556056522776,2024-04-13 09h46.35.086366 -0400,
images/image_732_seed_1.png,30,0,0,0,0,"[9, 19, 29, 39, 49, 59, 68, 69, 70, 71]",,,,,0,30,30,30,217.0854739030001,,,,,,,,,,,,,,,,,,,,,,,,,,,,,,,,,,,,,,,,,,,,,,,,217.07076996199976,217.07087590299852,217.07088917500005,217.0854739030001,217.0854739030001,218.08609064199845,218.08609064199845,221.0853265529986,221.0853265529986,221.0853265529986,221.0853265529986,221.0699004369999,None,0,None,221.07039744599751,221.0704447959979,None,221.07055942399893,221.07066272500015,None,221.0707799640004,221.07081655599904,None,,,,,,,,,54,001,0,,2024-04-13_09h46.22.206,replicate_nsd,2023.2.3,60.018556056522776,2024-04-13 09h46.35.086366 -0400,
images/image_692_seed_1.png,31,0,0,0,0,"[9, 19, 29, 39, 49, 59, 68, 69, 70, 71]",,,,,0,31,31,31,221.0853265529986,,,,,,,,,,,,,,,,,,,,,,,,,,,,,,,,,,,,,,,,,,,,,,,,221.07119004199922,221.07129534100022,221.0713080200003,221.0853265529986,221.0853265529986,222.0860885869988,222.0860885869988,,,,,225.0695609989998,None,0,None,225.07006188899686,225.07010659599837,None,225.07022012599919,225.0703232199994,None,225.07044142700033,225.07047775499814,None,,,,,,,,,54,001,0,,2024-04-13_09h46.22.206,replicate_nsd,2023.2.3,60.018556056522776,2024-04-13 09h46.35.086366 -0400,
,,,,,,,,,,,,,,,,,,,,,,,,,,,,,,,,,,,,,,,,,,,,,,,,,,,,,,,,,,,,,,,225.07084967899937,225.07095605499853,225.07096854100018,,,,,,,,,,,,,,,,,,,,,,,,,,,,,,,,,,,,,,,
