current_image,is_repeat,trial_index,is_blank_trial,is_new_run,run_num,all_blanks_list,loop_all_images.thisRepN,loop_all_images.thisTrialN,loop_all_images.thisN,loop_all_images.thisIndex,thisRow.t,notes,set_up.started,set_up.stopped,waiting_fmri.started,key_resp_2.started,text_3.started,waiting_fmri.stopped,key_resp_2.keys,key_resp_2.rt,key_resp_2.duration,set_skips_and_correct_key.started,set_skips_and_correct_key.stopped,trial.started,polygon.started,image.started,press_if_repeat.started,image.stopped,press_if_repeat.stopped,polygon.stopped,trial.stopped,press_if_repeat.keys,press_if_repeat.corr,blank_trial.started,blank_trial.stopped,key_resp_3.keys,run_wait2.started,run_wait2.stopped,key_resp_5.keys,waiting_fmri_2.started,waiting_fmri_2.stopped,key_resp_4.keys,press_if_repeat.rt,press_if_repeat.duration,key_resp_3.started,polygon_2.started,key_resp_3.stopped,polygon_2.stopped,key_resp_3.rt,key_resp_3.duration,participant,session,starting_run,,date,expName,psychopyVersion,frameRate,expStart,
,,,,,,,,,,,,,0.03090254900052969,0.031112360999031807,0.031132346999584115,0.041661975999886636,0.041661975999886636,1.6835038400004123,5,1.6307066659992415,None,,,,,,,,,,,,,,,,,,,,,,,,,,,,,,5,001,0,,2024-04-11_15h23.06.310,replicate_nsd,2023.2.3,59.90438529221281,2024-04-11 15h23.18.007027 -0400,
images/5_12 copy 3.jpg,0,0,0,0,0,"[9, 19, 29, 39, 49, 59, 68, 69, 70, 71]",0,0,0,0,1.8065889890003746,,,,,,,,,,,1.7592119349992572,1.75928336799916,1.7592909519989917,1.8065889890003746,2.7823424420002993,2.7823424420002993,5.782998173999658,5.782998173999658,5.782998173999658,5.766820991999339,None,0,5.768238409998958,5.7682881979999365,None,5.769067186000029,5.769127907999064,None,5.769825765999485,5.769861487999151,None,,,,,,,,,5,001,0,,2024-04-11_15h23.06.310,replicate_nsd,2023.2.3,59.90438529221281,2024-04-11 15h23.18.007027 -0400,
images/20_40 copy 3.jpg,0,1,0,0,0,"[9, 19, 29, 39, 49, 59, 68, 69, 70, 71]",0,1,1,1,5.782998173999658,,,,,,,,,,,5.770778865000466,5.770861523000349,5.770871056000033,5.782998173999658,6.782486154999788,6.782486154999788,9.795582761998958,9.795582761998958,9.795582761998958,9.77004788799968,None,0,9.770324171999164,9.770384445999298,None,9.770497280998825,9.787615940998876,None,9.787717158000305,9.78774230899944,None,,,,,,,,,5,001,0,,2024-04-11_15h23.06.310,replicate_nsd,2023.2.3,59.90438529221281,2024-04-11 15h23.18.007027 -0400,
images/9_0 copy 3.jpg,0,2,0,0,0,"[9, 19, 29, 39, 49, 59, 68, 69, 70, 71]",0,2,2,2,9.795582761998958,,,,,,,,,,,9.787967811998897,9.788046456998927,9.78805336500045,9.795582761998958,10.782728121999753,10.782728121999753,13.787024221999673,13.787024221999673,13.787024221999673,13.767163507000078,None,0,13.767479123998783,13.76752168799976,None,13.767634579000514,13.776086394000231,None,13.77618132399948,13.77620647799995,None,,,,,,,,,5,001,0,,2024-04-11_15h23.06.310,replicate_nsd,2023.2.3,59.90438529221281,2024-04-11 15h23.18.007027 -0400,
images/5_0 copy.jpg,0,3,0,0,0,"[9, 19, 29, 39, 49, 59, 68, 69, 70, 71]",0,3,3,3,13.787024221999673,,,,,,,,,,,13.776467658999536,13.776536854998994,13.776544832999207,13.787024221999673,14.782280158000503,14.782280158000503,17.789547368000058,17.789547368000058,17.789547368000058,17.76866534600049,None,0,17.76899045999926,17.769032210999285,None,17.769146729999193,17.777226248999796,None,17.777333424999597,17.77735838099943,None,,,,,,,,,5,001,0,,2024-04-11_15h23.06.310,replicate_nsd,2023.2.3,59.90438529221281,2024-04-11 15h23.18.007027 -0400,
images/pair03 copy 3.jpg,0,4,0,0,0,"[9, 19, 29, 39, 49, 59, 68, 69, 70, 71]",0,4,4,4,17.789547368000058,,,,,,,,,,,17.77761920100056,17.777725873000236,17.7777327849999,17.789547368000058,18.78405461699913,18.78405461699913,21.785301964999235,21.785301964999235,21.785301964999235,21.76661448899904,None,0,21.766937487000177,21.766981602999294,None,21.767095524999604,21.775813332000325,None,21.775909427999068,21.77593462599907,None,,,,,,,,,5,001,0,,2024-04-11_15h23.06.310,replicate_nsd,2023.2.3,59.90438529221281,2024-04-11 15h23.18.007027 -0400,
images/pair02 copy.jpg,0,5,0,0,0,"[9, 19, 29, 39, 49, 59, 68, 69, 70, 71]",0,5,5,5,21.785301964999235,,,,,,,,,,,21.776193416999376,21.776264096999512,21.776271807999365,21.785301964999235,22.782340752999517,22.782340752999517,25.836749922998933,25.836749922998933,25.836749922998933,25.817065511999317,"['1', '1', '1', '1', '1', '1', '1', '1', '1']",0,25.819145710000157,25.819184902000416,None,25.819286874999307,25.827185811000163,None,25.827268164999623,25.827289807999477,None,"[0.025982502000260865, 0.24605202699967776, 0.45798030699916126, 0.6540305649996299, 1.242018521999853, 2.2940338409989636, 2.5220349760002136, 2.7380051229993114, 2.9500245119998]","[None, None, None, None, None, None, None, None, None]",,,,,,,5,001,0,,2024-04-11_15h23.06.310,replicate_nsd,2023.2.3,59.90438529221281,2024-04-11 15h23.18.007027 -0400,
images/17_28 copy.jpg,0,6,0,0,0,"[9, 19, 29, 39, 49, 59, 68, 69, 70, 71]",0,6,6,6,25.836749922998933,,,,,,,,,,,25.82751162099885,25.827572803000294,25.827579573999174,25.836749922998933,26.83271936299934,26.83271936299934,29.83584454999982,29.83584454999982,29.83584454999982,29.81700752100005,"['1', '1', '1', '1', '1']",0,29.817557719999968,29.8176030249997,None,29.817713858999923,29.8251567899988,None,29.825236032000248,29.82525661100044,None,"[0.10764064100112591, 2.231651726000564, 2.4676290600000357, 2.6676263560002553, 2.879623762000847]","[None, None, None, None, None]",,,,,,,5,001,0,,2024-04-11_15h23.06.310,replicate_nsd,2023.2.3,59.90438529221281,2024-04-11 15h23.18.007027 -0400,
images/24_0.jpg,0,7,0,0,0,"[9, 19, 29, 39, 49, 59, 68, 69, 70, 71]",0,7,7,7,29.83584454999982,,,,,,,,,,,29.825468990000445,29.825558487998933,29.825565420000203,29.83584454999982,30.833172802998888,30.833172802998888,33.83735689800051,33.83735689800051,33.83735689800051,33.816909332999785,"['1', '1', '1', '1', '1', '1', '1']",0,33.81745837999915,33.817502767000406,None,33.817612011000165,33.825843934999284,None,33.82594045299993,33.82596558299883,None,"[0.03516095300074085, 0.48717063600088295, 0.7311244930006069, 0.9472557810004218, 1.1952423330003512, 1.4431939050009532, 1.7271926240009634]","[None, None, None, None, None, None, None]",,,,,,,5,001,0,,2024-04-11_15h23.06.310,replicate_nsd,2023.2.3,59.90438529221281,2024-04-11 15h23.18.007027 -0400,
images/pair04 copy 5.jpg,0,8,0,0,0,"[9, 19, 29, 39, 49, 59, 68, 69, 70, 71]",0,8,8,8,33.83735689800051,,,,,,,,,,,33.82622343299954,33.82629314800033,33.8263010390001,33.83735689800051,34.8327306279989,34.8327306279989,37.83626000500044,37.83626000500044,37.83626000500044,37.81701005499963,"['1', '1', '1', '1']",0,37.817547040000136,37.81759069399959,None,37.817700075000175,37.82620054399922,None,37.826295138000205,37.82631965099972,None,"[2.1796138039990183, 2.3916512920004607, 2.5996443719996023, 2.823681869000211]","[None, None, None, None]",,,,,,,5,001,0,,2024-04-11_15h23.06.310,replicate_nsd,2023.2.3,59.90438529221281,2024-04-11 15h23.18.007027 -0400,
images/blank.jpg,0,9,1,0,0,"[9, 19, 29, 39, 49, 59, 68, 69, 70, 71]",0,9,9,9,37.83626000500044,,,,,,,,,,,37.8265775130003,37.826647580999634,37.82665526100027,,,,,,,37.83124945000054,None,0,37.831416732000434,41.818540745000064,1,41.8197043250002,41.82768475699959,None,41.82777933699981,41.82780370799992,None,,,37.83626000500044,37.83626000500044,41.83950429600009,41.83950429600009,2.09211928699915,None,5,001,0,,2024-04-11_15h23.06.310,replicate_nsd,2023.2.3,59.90438529221281,2024-04-11 15h23.18.007027 -0400,
images/8_28 copy 4.jpg,0,10,0,0,0,"[9, 19, 29, 39, 49, 59, 68, 69, 70, 71]",0,10,10,10,41.83950429600009,,,,,,,,,,,41.82806221399915,41.82813728399924,41.828145317000235,41.83950429600009,42.8326788079994,42.8326788079994,45.83475457299937,45.83475457299937,45.83475457299937,45.81814444199881,"['1', '1', '1', '1', '1', '1', '1']",0,45.81869356400057,45.81874238599994,None,45.81885128199974,45.81891398100015,None,45.81901797299906,45.81905218599968,None,"[0.18767639600082475, 0.42371592900053656, 0.6516741779996664, 0.863744525000584, 1.1437005450006836, 1.3757074220011418, 1.5956907640011195]","[None, None, None, None, None, None, None]",,,,,,,5,001,0,,2024-04-11_15h23.06.310,replicate_nsd,2023.2.3,59.90438529221281,2024-04-11 15h23.18.007027 -0400,
images/8_12 copy 4.jpg,0,11,0,0,0,"[9, 19, 29, 39, 49, 59, 68, 69, 70, 71]",0,11,11,11,45.83475457299937,,,,,,,,,,,45.8194044819993,45.81950264199986,45.81951393300005,45.83475457299937,46.83360892099881,46.83360892099881,49.833194120999906,49.833194120999906,49.833194120999906,49.816626824000195,['1'],0,49.81691380399934,49.816936498998984,None,49.816990191000514,49.822715936999884,None,49.82278521099943,49.82280345300023,None,[0.8867637140010629],[None],,,,,,,5,001,0,,2024-04-11_15h23.06.310,replicate_nsd,2023.2.3,59.90438529221281,2024-04-11 15h23.18.007027 -0400,
images/pair04 copy 7.jpg,0,12,0,0,0,"[9, 19, 29, 39, 49, 59, 68, 69, 70, 71]",0,12,12,12,49.833194120999906,,,,,,,,,,,49.82299105099992,49.82304627299891,49.823051956998825,49.833194120999906,50.83395187499991,50.83395187499991,52.136415898999985,52.136415898999985,52.136415898999985,52.121752524999465,None,0,52.12199499499911,52.12202509400049,None,52.12210473199957,52.12869056599993,None,52.12878494399956,52.128807166000115,None,,,,,,,,,5,001,0,,2024-04-11_15h23.06.310,replicate_nsd,2023.2.3,59.90438529221281,2024-04-11 15h23.18.007027 -0400,
images/23_12 copy 3.jpg,0,13,0,0,0,"[9, 19, 29, 39, 49, 59, 68, 69, 70, 71]",0,13,13,13,52.136415898999985,,,,,,,,,,,52.12904071099911,52.12911049200011,52.129117422999116,52.136415898999985,52.323953809998784,52.323953809998784,52.97763663600017,52.97763663600017,52.97763663600017,52.96583057600037,None,0,52.96599337000043,52.96601375299906,None,52.9660675060004,52.970550804000595,None,52.97061602099893,52.97063299000001,None,,,,,,,,,5,001,0,,2024-04-11_15h23.06.310,replicate_nsd,2023.2.3,59.90438529221281,2024-04-11 15h23.18.007027 -0400,
images/24_40.jpg,0,14,0,0,0,"[9, 19, 29, 39, 49, 59, 68, 69, 70, 71]",0,14,14,14,52.97763663600017,,,,,,,,,,,52.97081117199923,52.970859421999194,52.970865097999194,52.97763663600017,53.16296767399945,53.16296767399945,53.82641734199933,53.82641734199933,53.82641734199933,53.81316762700044,None,0,53.81333314800031,53.81335394099915,None,53.81340891199943,53.81815359400025,None,53.81822071299939,53.818238341000324,None,,,,,,,,,5,001,0,,2024-04-11_15h23.06.310,replicate_nsd,2023.2.3,59.90438529221281,2024-04-11 15h23.18.007027 -0400,
images/pair08 copy 6.jpg,0,15,0,0,0,"[9, 19, 29, 39, 49, 59, 68, 69, 70, 71]",0,15,15,15,53.82641734199933,,,,,,,,,,,53.81842293400041,53.81847201999881,53.818477384998914,53.82641734199933,54.00796534999972,54.00796534999972,54.65635132999887,54.65635132999887,54.65635132999887,54.64422753500003,None,0,54.644419734999246,54.64444233500035,None,54.64450173200021,54.64952251700015,None,54.64959482300037,54.64961440299885,None,,,,,,,,,5,001,0,,2024-04-11_15h23.06.310,replicate_nsd,2023.2.3,59.90438529221281,2024-04-11 15h23.18.007027 -0400,
images/13_12 copy 6.jpg,0,16,0,0,0,"[9, 19, 29, 39, 49, 59, 68, 69, 70, 71]",0,16,16,16,54.65635132999887,,,,,,,,,,,54.649814633999995,54.64986826799941,54.649874302998796,54.65635132999887,54.83816552499957,54.83816552499957,55.477290105000066,55.477290105000066,55.477290105000066,55.46579398100039,None,0,55.46596391499952,55.46598489099961,None,55.46604044199921,55.470985513000414,None,55.471055771000465,55.471074305,None,,,,,,,,,5,001,0,,2024-04-11_15h23.06.310,replicate_nsd,2023.2.3,59.90438529221281,2024-04-11 15h23.18.007027 -0400,
images/23_28 copy 7.jpg,0,17,0,0,0,"[9, 19, 29, 39, 49, 59, 68, 69, 70, 71]",0,17,17,17,55.477290105000066,,,,,,,,,,,55.47126739499981,55.471318718000475,55.471324561000074,55.477290105000066,55.66001952700026,55.66001952700026,56.299388117999115,56.299388117999115,56.299388117999115,56.286455716999626,None,0,56.28662832500049,56.286650236999776,None,56.28670836399942,56.29136615800053,None,56.29143523899984,56.29145382599927,None,,,,,,,,,5,001,0,,2024-04-11_15h23.06.310,replicate_nsd,2023.2.3,59.90438529221281,2024-04-11 15h23.18.007027 -0400,
images/pair15 copy 5.jpg,0,18,0,0,0,"[9, 19, 29, 39, 49, 59, 68, 69, 70, 71]",0,18,18,18,56.299388117999115,,,,,,,,,,,56.29164487299931,56.29169594599989,56.291701684000145,56.299388117999115,56.48813609799981,56.48813609799981,57.12747587599915,57.12747587599915,57.12747587599915,57.115290371999436,None,0,57.11547142999916,57.115494415000285,None,57.115555262998896,57.12063484600003,None,57.120706939998854,57.12072648299909,None,,,,,,,,,5,001,0,,2024-04-11_15h23.06.310,replicate_nsd,2023.2.3,59.90438529221281,2024-04-11 15h23.18.007027 -0400,
images/blank.jpg,0,19,1,0,0,"[9, 19, 29, 39, 49, 59, 68, 69, 70, 71]",0,19,19,19,57.12747587599915,,,,,,,,,,,57.120927996998944,57.12098182599948,57.12098802999935,,,,,,,57.12371605699991,None,0,57.123845918998995,57.86209644799965,None,57.862195102999976,57.867811834999884,None,57.86789126199983,57.86790876699888,None,,,57.12747587599915,57.12747587599915,57.87407247199917,57.87407247199917,,,5,001,0,,2024-04-11_15h23.06.310,replicate_nsd,2023.2.3,59.90438529221281,2024-04-11 15h23.18.007027 -0400,
images/19_28 copy 5.jpg,0,20,0,0,0,"[9, 19, 29, 39, 49, 59, 68, 69, 70, 71]",0,20,20,20,57.87407247199917,,,,,,,,,,,57.8680993149992,57.86815684099929,57.8681627269998,57.87407247199917,58.058049879000464,58.058049879000464,58.692316478000066,58.692316478000066,58.692316478000066,58.68595868599914,None,0,58.68614555699969,58.686167346999355,None,58.686239094000484,58.68626998599939,None,58.68632190700009,58.68633810499887,None,,,,,,,,,5,001,0,,2024-04-11_15h23.06.310,replicate_nsd,2023.2.3,59.90438529221281,2024-04-11 15h23.18.007027 -0400,
images/18_40 copy 3.jpg,0,21,0,0,0,"[9, 19, 29, 39, 49, 59, 68, 69, 70, 71]",0,21,21,21,58.692316478000066,,,,,,,,,,,58.6865141039998,58.68656098199972,58.68656643000031,58.692316478000066,58.876589622999745,58.876589622999745,59.521516511998925,59.521516511998925,59.521516511998925,59.507927306000056,None,0,59.50809497699993,59.50811563000025,None,59.50817044500036,59.513017634999414,None,59.513084599999274,59.513102216000334,None,,,,,,,,,5,001,0,,2024-04-11_15h23.06.310,replicate_nsd,2023.2.3,59.90438529221281,2024-04-11 15h23.18.007027 -0400,
images/pair18 copy 5.jpg,0,22,0,0,0,"[9, 19, 29, 39, 49, 59, 68, 69, 70, 71]",0,22,22,22,59.521516511998925,,,,,,,,,,,59.513286504999996,59.51333559900013,59.51334132900047,59.521516511998925,59.70531882399882,59.70531882399882,60.348229023000385,60.348229023000385,60.348229023000385,60.33540718999939,None,0,60.33559586800038,60.335619735000364,None,60.33568199599904,60.341031058000226,None,60.34110689899899,60.34112656999969,None,,,,,,,,,5,001,0,,2024-04-11_15h23.06.310,replicate_nsd,2023.2.3,59.90438529221281,2024-04-11 15h23.18.007027 -0400,
images/pair07 copy.jpg,0,23,0,0,0,"[9, 19, 29, 39, 49, 59, 68, 69, 70, 71]",0,23,23,23,60.348229023000385,,,,,,,,,,,60.34134998599984,60.34140660899902,60.34141324099983,60.348229023000385,60.531518802999926,60.531518802999926,61.176256024000395,61.176256024000395,61.176256024000395,61.16379597100058,None,0,61.16396866499963,61.163990201999695,None,61.16404775400042,61.16901602100006,None,61.16908797999895,61.16910708499927,None,,,,,,,,,5,001,0,,2024-04-11_15h23.06.310,replicate_nsd,2023.2.3,59.90438529221281,2024-04-11 15h23.18.007027 -0400,
images/22_40.jpg,0,24,0,0,0,"[9, 19, 29, 39, 49, 59, 68, 69, 70, 71]",0,24,24,24,61.176256024000395,,,,,,,,,,,61.16930309300005,61.16935909200038,61.16936512099892,61.176256024000395,61.35930284799906,61.35930284799906,62.00126429999909,62.00126429999909,62.00126429999909,61.98955756699979,None,0,61.98973699899943,61.98976034299994,None,61.989826555000036,61.994884134999666,None,61.99495746299908,61.99497657699976,None,,,,,,,,,5,001,0,,2024-04-11_15h23.06.310,replicate_nsd,2023.2.3,59.90438529221281,2024-04-11 15h23.18.007027 -0400,
images/16_0 copy 2.jpg,0,25,0,0,0,"[9, 19, 29, 39, 49, 59, 68, 69, 70, 71]",0,25,25,25,62.00126429999909,,,,,,,,,,,61.99517821399968,61.9952315649989,61.99523774699992,62.00126429999909,62.18514686999879,62.18514686999879,62.82310529999995,62.82310529999995,62.82310529999995,62.81125266100025,None,0,62.81145551100053,62.81147769400013,None,62.81154397099999,62.81674937899879,None,62.81682081299914,62.816839574999904,None,,,,,,,,,5,001,0,,2024-04-11_15h23.06.310,replicate_nsd,2023.2.3,59.90438529221281,2024-04-11 15h23.18.007027 -0400,
images/20_12 copy 5.jpg,0,26,0,0,0,"[9, 19, 29, 39, 49, 59, 68, 69, 70, 71]",0,26,26,26,62.82310529999995,,,,,,,,,,,62.81703608299904,62.817088546999,62.817094641999574,62.82310529999995,63.00436353399891,63.00436353399891,63.645709305999844,63.645709305999844,63.645709305999844,63.6345374499997,None,0,63.6347015249994,63.6347216209997,None,63.63477542500004,63.63925761899918,None,63.63932378999925,63.639341292999234,None,,,,,,,,,5,001,0,,2024-04-11_15h23.06.310,replicate_nsd,2023.2.3,59.90438529221281,2024-04-11 15h23.18.007027 -0400,
images/9_12 copy 6.jpg,0,27,0,0,0,"[9, 19, 29, 39, 49, 59, 68, 69, 70, 71]",0,27,27,27,63.645709305999844,,,,,,,,,,,63.63952076100031,63.639569117000065,63.639574636999896,63.645709305999844,63.82840555599978,63.82840555599978,64.47293765900031,64.47293765900031,64.47293765900031,64.4621191089991,None,0,64.46229060299993,64.46231210099904,None,64.46236787899943,64.46730061500057,None,64.4673684850004,64.46738643999925,None,,,,,,,,,5,001,0,,2024-04-11_15h23.06.310,replicate_nsd,2023.2.3,59.90438529221281,2024-04-11 15h23.18.007027 -0400,
images/13_12 copy 3.jpg,0,28,0,0,0,"[9, 19, 29, 39, 49, 59, 68, 69, 70, 71]",0,28,28,28,64.47293765900031,,,,,,,,,,,64.46757319300013,64.46762402199965,64.4676298989998,64.47293765900031,64.65854352600036,64.65854352600036,65.30032966199906,65.30032966199906,65.30032966199906,65.28853827800049,None,0,65.2887364369999,65.28876273400056,None,65.28883088899966,65.29442383599962,None,65.29450657000052,65.29452839199985,None,,,,,,,,,5,001,0,,2024-04-11_15h23.06.310,replicate_nsd,2023.2.3,59.90438529221281,2024-04-11 15h23.18.007027 -0400,
images/blank.jpg,0,29,1,0,0,"[9, 19, 29, 39, 49, 59, 68, 69, 70, 71]",0,29,29,29,65.30032966199906,,,,,,,,,,,65.29475675899994,65.2948175069996,65.29482446399925,,,,,,,65.29639962699912,None,0,65.29654077299892,66.02841159499985,None,66.02851092899982,66.03361110399965,None,66.03368480499921,66.03370379700027,None,,,65.30032966199906,65.30032966199906,66.03982726499999,66.03982726499999,,,5,001,0,,2024-04-11_15h23.06.310,replicate_nsd,2023.2.3,59.90438529221281,2024-04-11 15h23.18.007027 -0400,
images/19_12 copy 4.jpg,0,30,0,0,0,"[9, 19, 29, 39, 49, 59, 68, 69, 70, 71]",0,30,30,30,66.03982726499999,,,,,,,,,,,66.03390171499996,66.03395762599939,66.03396361900013,66.03982726499999,66.22252862099958,66.22252862099958,66.85834900999907,66.85834900999907,66.85834900999907,66.85192351899968,None,0,66.85210335599913,66.85212690699882,None,66.85218783299933,66.85222059899934,None,66.85227821099943,66.8522961919989,None,,,,,,,,,5,001,0,,2024-04-11_15h23.06.310,replicate_nsd,2023.2.3,59.90438529221281,2024-04-11 15h23.18.007027 -0400,
images/11_0 copy 7.jpg,0,31,0,0,0,"[9, 19, 29, 39, 49, 59, 68, 69, 70, 71]",0,31,31,31,66.85834900999907,,,,,,,,,,,66.85248999099895,66.85254114499912,66.85254725699997,66.85834900999907,67.04071739199935,67.04071739199935,67.6865916379993,67.6865916379993,67.6865916379993,67.67454335199909,None,0,67.67473116099973,67.6747553109999,None,67.67481774899898,67.68004818599911,None,67.68012493099923,67.68014529399989,None,,,,,,,,,5,001,0,,2024-04-11_15h23.06.310,replicate_nsd,2023.2.3,59.90438529221281,2024-04-11 15h23.18.007027 -0400,
images/8_0 copy 3.jpg,0,32,0,0,0,"[9, 19, 29, 39, 49, 59, 68, 69, 70, 71]",0,32,32,32,67.6865916379993,,,,,,,,,,,67.6803567120005,67.68042972799958,67.68043626600047,67.6865916379993,67.87015315700046,67.87015315700046,68.51827255599892,68.51827255599892,68.51827255599892,68.50510940899949,None,0,68.50529632799953,68.50532077800017,None,68.50538428999971,68.51074420499936,None,68.510822885999,68.51084421399901,None,,,,,,,,,5,001,0,,2024-04-11_15h23.06.310,replicate_nsd,2023.2.3,59.90438529221281,2024-04-11 15h23.18.007027 -0400,
images/pair08.jpg,0,33,0,0,0,"[9, 19, 29, 39, 49, 59, 68, 69, 70, 71]",0,33,33,33,68.51827255599892,,,,,,,,,,,68.51106251999954,68.5111206370002,68.51112720899982,68.51827255599892,68.70212328399975,68.70212328399975,69.34506497700022,69.34506497700022,69.34506497700022,69.33356843599904,None,0,69.3337617899997,69.33378680699934,None,69.33385362300032,69.33923846700054,None,69.33931642199968,69.33933736200015,None,,,,,,,,,5,001,0,,2024-04-11_15h23.06.310,replicate_nsd,2023.2.3,59.90438529221281,2024-04-11 15h23.18.007027 -0400,
images/13_12 copy 3.jpg,1,34,0,0,0,"[9, 19, 29, 39, 49, 59, 68, 69, 70, 71]",0,34,34,34,69.34506497700022,,,,,,,,,,,69.33955112399963,69.3396099799993,69.3396167259998,69.34506497700022,69.53133224900012,69.53133224900012,70.17476171700037,70.17476171700037,70.17476171700037,70.16284236799947,None,0,70.16302493299918,70.16304825000043,None,70.16310940199946,70.16834227599975,None,70.16841715199917,70.16843676200006,None,,,,,,,,,5,001,0,,2024-04-11_15h23.06.310,replicate_nsd,2023.2.3,59.90438529221281,2024-04-11 15h23.18.007027 -0400,
images/6_28 copy 7.jpg,0,35,0,0,0,"[9, 19, 29, 39, 49, 59, 68, 69, 70, 71]",0,35,35,35,70.17476171700037,,,,,,,,,,,70.16864172100031,70.16869696200047,70.16870322499926,70.17476171700037,70.35632821199943,70.35632821199943,71.00210799100023,71.00210799100023,71.00210799100023,70.99068187100056,None,0,70.99087449800027,70.99089657900004,None,70.9909519720004,70.99630394799897,None,70.99637657200037,70.9963945290001,None,,,,,,,,,5,001,0,,2024-04-11_15h23.06.310,replicate_nsd,2023.2.3,59.90438529221281,2024-04-11 15h23.18.007027 -0400,
images/11_0 copy 2.jpg,0,36,0,0,0,"[9, 19, 29, 39, 49, 59, 68, 69, 70, 71]",0,36,36,36,71.00210799100023,,,,,,,,,,,70.99658266900042,70.99663825199968,70.99664400300026,71.00210799100023,71.18740008199893,71.18740008199893,71.83511314399948,71.83511314399948,71.83511314399948,71.82369672499954,None,0,71.82388164099939,71.82393504399988,None,71.82401262199892,71.82891595500041,None,71.82898673199998,71.8290046940001,None,,,,,,,,,5,001,0,,2024-04-11_15h23.06.310,replicate_nsd,2023.2.3,59.90438529221281,2024-04-11 15h23.18.007027 -0400,
images/17_40 copy 4.jpg,0,37,0,0,0,"[9, 19, 29, 39, 49, 59, 68, 69, 70, 71]",0,37,37,37,71.83511314399948,,,,,,,,,,,71.82920054100032,71.82927274599933,71.82927893699889,71.83511314399948,72.01901931099928,72.01901931099928,72.6627741859993,72.6627741859993,72.6627741859993,72.65101790799963,None,0,72.65121147399987,72.65123643200059,None,72.65130276899981,72.65685569800007,None,72.65693513099905,72.65695653799958,None,,,,,,,,,5,001,0,,2024-04-11_15h23.06.310,replicate_nsd,2023.2.3,59.90438529221281,2024-04-11 15h23.18.007027 -0400,
images/23_28 copy 2.jpg,0,38,0,0,0,"[9, 19, 29, 39, 49, 59, 68, 69, 70, 71]",0,38,38,38,72.6627741859993,,,,,,,,,,,72.6571751399988,72.65723445599906,72.65724129499904,72.6627741859993,72.84710468999947,72.84710468999947,73.49018836399955,73.49018836399955,73.49018836399955,73.47859093499937,None,0,73.47879673599891,73.47882251199917,None,73.47888961299941,73.48437773399928,None,73.48445449899918,73.48447478699927,None,,,,,,,,,5,001,0,,2024-04-11_15h23.06.310,replicate_nsd,2023.2.3,59.90438529221281,2024-04-11 15h23.18.007027 -0400,
images/blank.jpg,0,39,1,0,0,"[9, 19, 29, 39, 49, 59, 68, 69, 70, 71]",0,39,39,39,73.49018836399955,,,,,,,,,,,73.48468667599991,73.4847440020003,73.48475052200047,,,,,,,73.48618365000038,None,0,73.4863182049994,74.22437704299955,None,74.22447200100032,74.22929485799978,None,74.22936814499917,74.229386858,None,,,73.49018836399955,73.49018836399955,74.2356596589998,74.2356596589998,,,5,001,0,,2024-04-11_15h23.06.310,replicate_nsd,2023.2.3,59.90438529221281,2024-04-11 15h23.18.007027 -0400,
images/15_28 copy.jpg,0,40,0,0,0,"[9, 19, 29, 39, 49, 59, 68, 69, 70, 71]",0,40,40,40,74.2356596589998,,,,,,,,,,,74.22958321499937,74.22963902099946,74.22964493899963,74.2356596589998,74.41908545499973,74.41908545499973,75.05794522999895,75.05794522999895,75.05794522999895,75.05128845099898,None,0,75.051487626999,75.05151091900007,None,75.05157206600052,75.05160459699982,None,75.05166238499987,75.05167991099916,None,,,,,,,,,5,001,0,,2024-04-11_15h23.06.310,replicate_nsd,2023.2.3,59.90438529221281,2024-04-11 15h23.18.007027 -0400,
images/6_0 copy 5.jpg,0,41,0,0,0,"[9, 19, 29, 39, 49, 59, 68, 69, 70, 71]",0,41,41,41,75.05794522999895,,,,,,,,,,,75.0518718709991,75.05192336899927,75.05192939199878,75.05794522999895,75.24129782300042,75.24129782300042,75.88624723700013,75.88624723700013,75.88624723700013,75.87452876399948,None,0,75.87472590499965,75.87475101699965,None,75.8748181230003,75.88030482300019,None,75.88038523399882,75.88040685899978,None,,,,,,,,,5,001,0,,2024-04-11_15h23.06.310,replicate_nsd,2023.2.3,59.90438529221281,2024-04-11 15h23.18.007027 -0400,
images/20_12 copy.jpg,0,42,0,0,0,"[9, 19, 29, 39, 49, 59, 68, 69, 70, 71]",0,42,42,42,75.88624723700013,,,,,,,,,,,75.88062949099913,75.880689824,75.88069703399924,75.88624723700013,76.07075162699948,76.07075162699948,76.71315926599891,76.71315926599891,76.71315926599891,76.70200803300031,None,0,76.70219429999997,76.70221774099991,None,76.70227902799888,76.70731993799927,None,76.70739605199924,76.70741627499956,None,,,,,,,,,5,001,0,,2024-04-11_15h23.06.310,replicate_nsd,2023.2.3,59.90438529221281,2024-04-11 15h23.18.007027 -0400,
images/6_28 copy 4.jpg,0,43,0,0,0,"[9, 19, 29, 39, 49, 59, 68, 69, 70, 71]",0,43,43,43,76.71315926599891,,,,,,,,,,,76.70762727299916,76.70768372499879,76.70769024699985,76.71315926599891,76.9015690060005,76.9015690060005,77.54317067599914,77.54317067599914,77.54317067599914,77.53183539900056,None,0,77.53201436500058,77.53203696399942,None,77.5320967560001,77.53730519300007,None,77.53738020600031,77.53739942900029,None,,,,,,,,,5,001,0,,2024-04-11_15h23.06.310,replicate_nsd,2023.2.3,59.90438529221281,2024-04-11 15h23.18.007027 -0400,
images/5_12 copy 5.jpg,0,44,0,0,0,"[9, 19, 29, 39, 49, 59, 68, 69, 70, 71]",0,44,44,44,77.54317067599914,,,,,,,,,,,77.53760244399928,77.53765739099981,77.53766355500011,77.54317067599914,77.72529323999879,77.72529323999879,78.372309209999,78.372309209999,78.372309209999,78.36046203299884,None,0,78.36062976599897,78.36065087799943,None,78.36070562799978,78.36574261100031,None,78.36581797899998,78.36583715899906,None,,,,,,,,,5,001,0,,2024-04-11_15h23.06.310,replicate_nsd,2023.2.3,59.90438529221281,2024-04-11 15h23.18.007027 -0400,
images/20_0 copy 5.jpg,0,45,0,0,0,"[9, 19, 29, 39, 49, 59, 68, 69, 70, 71]",0,45,45,45,78.372309209999,,,,,,,,,,,78.3660363580002,78.36609176899947,78.3660979060005,78.372309209999,78.55571264199898,78.55571264199898,79.19591239299916,79.19591239299916,79.19591239299916,79.18535186199915,None,0,79.18551929000023,79.1855405819988,None,79.18559499399998,79.19014195099953,None,79.19021189399973,79.19023058200037,None,,,,,,,,,5,001,0,,2024-04-11_15h23.06.310,replicate_nsd,2023.2.3,59.90438529221281,2024-04-11 15h23.18.007027 -0400,
images/22_40 copy 4.jpg,0,46,0,0,0,"[9, 19, 29, 39, 49, 59, 68, 69, 70, 71]",0,46,46,46,79.19591239299916,,,,,,,,,,,79.19044287199904,79.19049465599892,79.19050054699983,79.19591239299916,79.38246655500006,79.38246655500006,80.03046663500027,80.03046663500027,80.03046663500027,80.01787943999989,None,0,80.01808313899892,80.01810937099981,None,80.01817831900007,80.02382188899901,None,80.02390629799993,80.02392843300004,None,,,,,,,,,5,001,0,,2024-04-11_15h23.06.310,replicate_nsd,2023.2.3,59.90438529221281,2024-04-11 15h23.18.007027 -0400,
images/9_28 copy 6.jpg,0,47,0,0,0,"[9, 19, 29, 39, 49, 59, 68, 69, 70, 71]",0,47,47,47,80.03046663500027,,,,,,,,,,,80.02415738699892,80.02421939499982,80.02422643099999,80.03046663500027,80.21510127900001,80.21510127900001,80.86038917000042,80.86038917000042,80.86038917000042,80.84875334499884,None,0,80.84894729299958,80.84897148399978,None,80.84903640599987,80.85437119299968,None,80.85444970199933,80.85447032400043,None,,,,,,,,,5,001,0,,2024-04-11_15h23.06.310,replicate_nsd,2023.2.3,59.90438529221281,2024-04-11 15h23.18.007027 -0400,
images/14_28 copy 7.jpg,0,48,0,0,0,"[9, 19, 29, 39, 49, 59, 68, 69, 70, 71]",0,48,48,48,80.86038917000042,,,,,,,,,,,80.85468482400029,80.85474243200042,80.85474894300023,80.86038917000042,81.04360443199948,81.04360443199948,81.68826916499893,81.68826916499893,81.68826916499893,81.67572238499997,None,0,81.67593299799955,81.67595952500051,None,81.6760305150001,81.68211181200058,None,81.6821976629999,81.68222035600047,None,,,,,,,,,5,001,0,,2024-04-11_15h23.06.310,replicate_nsd,2023.2.3,59.90438529221281,2024-04-11 15h23.18.007027 -0400,
images/blank.jpg,0,49,1,0,0,"[9, 19, 29, 39, 49, 59, 68, 69, 70, 71]",0,49,49,49,81.68826916499893,,,,,,,,,,,81.68245882100018,81.68252267099888,81.68253004500002,,,,,,,81.68421967299946,None,0,81.68437097599963,82.4238197149989,None,82.42392583699984,82.42934563800009,None,82.42942657300046,82.42944729400006,None,,,81.68826916499893,81.68826916499893,82.43525835999935,82.43525835999935,,,5,001,0,,2024-04-11_15h23.06.310,replicate_nsd,2023.2.3,59.90438529221281,2024-04-11 15h23.18.007027 -0400,
images/17_28 copy 3.jpg,0,50,0,0,0,"[9, 19, 29, 39, 49, 59, 68, 69, 70, 71]",0,50,50,50,82.43525835999935,,,,,,,,,,,82.4296652640005,82.42972688999907,82.4297335529991,82.43525835999935,82.61927816599928,82.61927816599928,83.25913088999914,83.25913088999914,83.25913088999914,83.25282295800025,None,0,83.25302009400002,83.25304654399952,None,83.2531142429998,83.25315103399953,None,83.25321389599958,83.25323386399941,None,,,,,,,,,5,001,0,,2024-04-11_15h23.06.310,replicate_nsd,2023.2.3,59.90438529221281,2024-04-11 15h23.18.007027 -0400,
images/18_40 copy 7.jpg,0,51,0,0,0,"[9, 19, 29, 39, 49, 59, 68, 69, 70, 71]",0,51,51,51,83.25913088999914,,,,,,,,,,,83.25344687799952,83.253503078,83.25350967799932,83.25913088999914,83.44243600399932,83.44243600399932,84.08887496100033,84.08887496100033,84.08887496100033,84.0771925529989,None,0,84.07740896699943,84.07743504700011,None,84.07750367699919,84.08316135399946,None,84.08324299100059,84.08326436300013,None,,,,,,,,,5,001,0,,2024-04-11_15h23.06.310,replicate_nsd,2023.2.3,59.90438529221281,2024-04-11 15h23.18.007027 -0400,
images/8_12 copy 6.jpg,0,52,0,0,0,"[9, 19, 29, 39, 49, 59, 68, 69, 70, 71]",0,52,52,52,84.08887496100033,,,,,,,,,,,84.08348566099994,84.0835462269988,84.08355313500033,84.08887496100033,84.27319520099991,84.27319520099991,84.91927439499887,84.91927439499887,84.91927439499887,84.90543864000028,None,0,84.90562971500003,84.90565403499932,None,84.90571889899911,84.9110567079988,None,84.91113611999936,84.91115680099938,None,,,,,,,,,5,001,0,,2024-04-11_15h23.06.310,replicate_nsd,2023.2.3,59.90438529221281,2024-04-11 15h23.18.007027 -0400,
images/pair10.jpg,0,53,0,0,0,"[9, 19, 29, 39, 49, 59, 68, 69, 70, 71]",0,53,53,53,84.91927439499887,,,,,,,,,,,84.91138597099962,84.91144381599952,84.91145037299975,84.91927439499887,85.10410118399886,85.10410118399886,85.74637761299891,85.74637761299891,85.74637761299891,85.73468648599919,None,0,85.73486570400019,85.73488870799883,None,85.73494835900055,85.74009948399907,None,85.74017423799887,85.74019379499987,None,,,,,,,,,5,001,0,,2024-04-11_15h23.06.310,replicate_nsd,2023.2.3,59.90438529221281,2024-04-11 15h23.18.007027 -0400,
images/13_12 copy 4.jpg,0,54,0,0,0,"[9, 19, 29, 39, 49, 59, 68, 69, 70, 71]",0,54,54,54,85.74637761299891,,,,,,,,,,,85.74039844700019,85.7404532849996,85.74045938800009,85.74637761299891,85.93072293299883,85.93072293299883,86.57577943099932,86.57577943099932,86.57577943099932,86.56365846100016,None,0,86.56384950999927,86.56387342000016,None,86.56393837799988,86.5692460549999,None,86.56932355000026,86.5693438950002,None,,,,,,,,,5,001,0,,2024-04-11_15h23.06.310,replicate_nsd,2023.2.3,59.90438529221281,2024-04-11 15h23.18.007027 -0400,
images/5_28 copy 3.jpg,0,55,0,0,0,"[9, 19, 29, 39, 49, 59, 68, 69, 70, 71]",0,55,55,55,86.57577943099932,,,,,,,,,,,86.56955802799894,86.56961542299905,86.5696220209993,86.57577943099932,86.75832927100055,86.75832927100055,87.40547614899879,87.40547614899879,87.40547614899879,87.39378684999974,None,0,87.39395267600048,87.3939732660001,None,87.39402857300047,87.39900381900043,None,87.39906949899887,87.39908667199961,None,,,,,,,,,5,001,0,,2024-04-11_15h23.06.310,replicate_nsd,2023.2.3,59.90438529221281,2024-04-11 15h23.18.007027 -0400,
images/pair13.jpg,0,56,0,0,0,"[9, 19, 29, 39, 49, 59, 68, 69, 70, 71]",0,56,56,56,87.40547614899879,,,,,,,,,,,87.39926389500033,87.39931269899898,87.39931820499987,87.40547614899879,87.58926981500008,87.58926981500008,88.76656900799935,88.76656900799935,88.76656900799935,88.74977456600027,None,0,88.74995765600033,88.74998146500002,None,88.7500413609996,88.75518182700034,None,88.7552567290004,88.75527693000004,None,,,,,,,,,5,001,0,,2024-04-11_15h23.06.310,replicate_nsd,2023.2.3,59.90438529221281,2024-04-11 15h23.18.007027 -0400,
,,,,,,,,,,,88.76656900799935,,,,,,,,,,,88.75548290900042,88.75553871900047,88.75554501199986,88.76656900799935,89.76520186699963,89.76520186699963,,,,,,,,,,,,,,,,,,,,,,,,,,,,,,,,,
