current_image,trial_index,is_blank_trial,is_repeat,is_new_run,run_num,all_blanks_list,practice.thisRepN,practice.thisTrialN,practice.thisN,practice.thisIndex,loop_all_images.thisRepN,loop_all_images.thisTrialN,loop_all_images.thisN,loop_all_images.thisIndex,thisRow.t,notes,set_up.started,set_up.stopped,practice_continue.started,key_resp_6.started,text_6.started,practice_continue.stopped,key_resp_6.keys,key_resp_6.rt,key_resp_6.duration,set_skips_and_correct_key_2.started,set_skips_and_correct_key_2.stopped,practice_trial.started,polygon_3.started,all_keys_pressed_2.started,image_2.started,press_if_repeat_2.started,image_2.stopped,press_if_repeat_2.stopped,polygon_3.stopped,all_keys_pressed_2.stopped,practice_trial.stopped,press_if_repeat_2.keys,press_if_repeat_2.corr,all_keys_pressed_2.keys,all_keys_pressed_2.rt,all_keys_pressed_2.duration,blank_trial_2.started,blank_trial_2.stopped,press_if_repeat_2.rt,press_if_repeat_2.duration,polygon_4.started,polygon_4.stopped,testing_continue.started,key_resp_7.started,text_7.started,testing_continue.stopped,key_resp_7.keys,key_resp_7.rt,key_resp_7.duration,waiting_fmri.started,key_resp_2.started,text_3.started,waiting_fmri.stopped,key_resp_2.keys,key_resp_2.rt,key_resp_2.duration,set_skips_and_correct_key.started,set_skips_and_correct_key.stopped,trial.started,polygon.started,all_keys_pressed.started,image.started,press_if_repeat.started,image.stopped,press_if_repeat.stopped,polygon.stopped,all_keys_pressed.stopped,trial.stopped,press_if_repeat.keys,press_if_repeat.corr,press_if_repeat.rt,press_if_repeat.duration,all_keys_pressed.keys,blank_trial.started,blank_trial.stopped,blank_trial_testing_keys.keys,run_wait2_2.started,run_wait2_2.stopped,key_resp_5.keys,waiting_fmri_2.started,waiting_fmri_2.stopped,key_resp_4.keys,blank_trial_testing_keys.started,polygon_2.started,blank_trial_testing_keys.stopped,polygon_2.stopped,participant,session,starting_run,,date,expName,psychopyVersion,frameRate,expStart,
,,,,,,,,,,,,,,,,,0.02797323699996923,0.02824120400009633,0.02826384200011489,0.07687380200013649,0.07687380200013649,1.9715651070000604,space,1.8894821110000066,None,,,,,,,,,,,,,,,,,,,,,,,,,,,,,,,,,,,,,,,,,,,,,,,,,,,,,,,,,,,,,,,,,,,,5,001,0,,2024-04-12_12h33.41.310,replicate_nsd,2023.2.3,59.96133417353761,2024-04-12 12h33.54.835955 -0400,
images/5_12 copy 7.jpg,0,0,,,,,0,0,0,0,,,,,2.0002755269999852,,,,,,,,,,,1.9784795729999587,1.978544329999977,1.9785534150000785,2.0002755269999852,2.0002755269999852,3.0052021690000856,3.0052021690000856,6.0052812900000845,6.0052812900000845,6.0052812900000845,6.0052812900000845,5.9893687339999815,None,0,['space'],[2.8501367420001316],[None],5.99060657300015,5.990650833000018,,,,,,,,,,,,,,,,,,,,,,,,,,,,,,,,,,,,,,,,,,,,,,,,,5,001,0,,2024-04-12_12h33.41.310,replicate_nsd,2023.2.3,59.96133417353761,2024-04-12 12h33.54.835955 -0400,
images/13_40 copy 5.jpg,1,0,,,,,0,1,1,1,,,,,6.0052812900000845,,,,,,,,,,,5.9909318859999985,5.991021029999956,5.991032543000074,6.0052812900000845,6.0052812900000845,7.005733975000112,7.005733975000112,10.005257249000124,10.005257249000124,10.005257249000124,10.005257249000124,9.989269462000038,1,0,None,,,9.990038879000167,9.990080626999998,2.7965275899998687,None,,,,,,,,,,,,,,,,,,,,,,,,,,,,,,,,,,,,,,,,,,,,,,,5,001,0,,2024-04-12_12h33.41.310,replicate_nsd,2023.2.3,59.96133417353761,2024-04-12 12h33.54.835955 -0400,
images/19_40.jpg,2,0,,,,,0,2,2,2,,,,,10.005257249000124,,,,,,,,,,,9.990351400000009,9.990439181000056,9.99045107400002,10.005257249000124,10.005257249000124,11.004836284000021,11.004836284000021,14.005354603000114,14.005354603000114,14.005354603000114,14.005354603000114,13.989298007000116,2,0,None,,,13.989882749000117,13.9899232570001,2.7535327850000613,None,,,,,,,,,,,,,,,,,,,,,,,,,,,,,,,,,,,,,,,,,,,,,,,5,001,0,,2024-04-12_12h33.41.310,replicate_nsd,2023.2.3,59.96133417353761,2024-04-12 12h33.54.835955 -0400,
images/6_28.jpg,3,0,,,,,0,3,3,3,,,,,14.005354603000114,,,,,,,,,,,13.990195013000175,13.990281837000111,13.990293356000166,14.005354603000114,14.005354603000114,15.00490129700006,15.00490129700006,18.005259453999997,18.005259453999997,18.005259453999997,18.005259453999997,17.989294736000147,2,0,None,,,17.98989446900009,17.98993782399998,2.913365763999991,None,,,,,,,,,,,,,,,,,,,,,,,,,,,,,,,,,,,,,,,,,,,,,,,5,001,0,,2024-04-12_12h33.41.310,replicate_nsd,2023.2.3,59.96133417353761,2024-04-12 12h33.54.835955 -0400,
images/19_12 copy 4.jpg,4,0,,,,,0,4,4,4,,,,,18.005259453999997,,,,,,,,,,,17.990213476000008,17.990301528000145,17.990313008000157,18.005259453999997,18.005259453999997,19.005452045000084,19.005452045000084,22.005282726000132,22.005282726000132,22.005282726000132,22.005282726000132,21.98931993600013,1,0,None,,,21.989907281000114,21.98995018000005,2.9249236200000723,None,,,,,,,,,,,,,,,,,,,,,,,,,,,,,,,,,,,,,,,,,,,,,,,5,001,0,,2024-04-12_12h33.41.310,replicate_nsd,2023.2.3,59.96133417353761,2024-04-12 12h33.54.835955 -0400,
images/21_28 copy 5.jpg,5,0,,,,,0,5,5,5,,,,,22.005282726000132,,,,,,,,,,,21.99022780900009,21.990316699000005,21.990328037000154,22.005282726000132,22.005282726000132,23.005491049000057,23.005491049000057,26.005543259999968,26.005543259999968,26.005543259999968,26.005543259999968,25.989323386000024,2,0,None,,,25.989911998000025,25.989953688000014,2.688776688999951,None,,,,,,,,,,,,,,,,,,,,,,,,,,,,,,,,,,,,,,,,,,,,,,,5,001,0,,2024-04-12_12h33.41.310,replicate_nsd,2023.2.3,59.96133417353761,2024-04-12 12h33.54.835955 -0400,
images/11_12 copy 7.jpg,6,0,,,,,0,6,6,6,,,,,26.005543259999968,,,,,,,,,,,25.990228148000142,25.990315248000115,25.990326565000032,26.005543259999968,26.005543259999968,27.0051386130001,27.0051386130001,30.004958732999967,30.004958732999967,30.004958732999967,30.004958732999967,29.98902394200013,1,0,None,,,29.989610341000116,29.989650054000094,2.653251025000145,None,,,,,,,,,,,,,,,,,,,,,,,,,,,,,,,,,,,,,,,,,,,,,,,5,001,0,,2024-04-12_12h33.41.310,replicate_nsd,2023.2.3,59.96133417353761,2024-04-12 12h33.54.835955 -0400,
images/9_28 copy 2.jpg,7,0,,,,,0,7,7,7,,,,,30.004958732999967,,,,,,,,,,,29.989924308000127,29.990010044999963,29.99002173300005,30.004958732999967,30.004958732999967,31.005303965000166,31.005303965000166,34.005479740000055,34.005479740000055,34.005479740000055,34.005479740000055,33.98836251900002,1,0,None,,,33.988826965000044,33.988858327000116,2.9410933389999627,None,,,,,,,,,,,,,,,,,,,,,,,,,,,,,,,,,,,,,,,,,,,,,,,5,001,0,,2024-04-12_12h33.41.310,replicate_nsd,2023.2.3,59.96133417353761,2024-04-12 12h33.54.835955 -0400,
images/18_28 copy 6.jpg,8,0,,,,,0,8,8,8,,,,,34.005479740000055,,,,,,,,,,,33.98907392499996,33.98914333300013,33.98915246499996,34.005479740000055,34.005479740000055,35.00551616400003,35.00551616400003,38.00530523300017,38.00530523300017,38.00530523300017,38.00530523300017,37.98908525599995,1,0,None,,,37.9896800890001,37.98972307500003,2.896707127000127,None,,,,,,,,,,,,,,,,,,,,,,,,,,,,,,,,,,,,,,,,,,,,,,,5,001,0,,2024-04-12_12h33.41.310,replicate_nsd,2023.2.3,59.96133417353761,2024-04-12 12h33.54.835955 -0400,
images/14_12 copy.jpg,9,0,,,,,0,9,9,9,,,,,38.00530523300017,,,,,,,,,,,37.990007733000084,37.99009545700005,37.990106978000085,38.00530523300017,38.00530523300017,39.005460374999984,39.005460374999984,42.05481639699997,42.05481639699997,42.05481639699997,42.05481639699997,42.03802973699999,2,0,None,,,42.038656587000105,42.03868984300016,2.824772682999992,None,,,,,,,,,,,,,,,,,,,,,,,,,,,,,,,,,,,,,,,,,,,,,,,5,001,0,,2024-04-12_12h33.41.310,replicate_nsd,2023.2.3,59.96133417353761,2024-04-12 12h33.54.835955 -0400,
images/blank.jpg,10,1,,,,,0,10,10,10,,,,,42.05481639699997,,,,,,,,,,,42.038910373000135,42.038980289000165,42.038989868000044,,,,,,,,,42.04126263400008,None,0,None,,,42.041545985000084,46.038389769000105,,,42.05481639699997,46.055210115000136,,,,,,,,,,,,,,,,,,,,,,,,,,,,,,,,,,,,,,,,,,,,,5,001,0,,2024-04-12_12h33.41.310,replicate_nsd,2023.2.3,59.96133417353761,2024-04-12 12h33.54.835955 -0400,
images/21_40 copy 5.jpg,11,0,,,,,0,11,11,11,,,,,46.055210115000136,,,,,,,,,,,46.03870660100006,46.03877857600014,46.03878809399998,46.055210115000136,46.055210115000136,47.05543412300017,47.05543412300017,50.05520489700007,50.05520489700007,50.05520489700007,50.05520489700007,50.03886712799999,2,0,None,,,50.039720233000025,50.03976405100002,2.0909025020000627,None,,,,,,,,,,,,,,,,,,,,,,,,,,,,,,,,,,,,,,,,,,,,,,,5,001,0,,2024-04-12_12h33.41.310,replicate_nsd,2023.2.3,59.96133417353761,2024-04-12 12h33.54.835955 -0400,
images/9_12 copy 6.jpg,12,0,,,,,0,12,12,12,,,,,50.05520489700007,,,,,,,,,,,50.040045842000154,50.04013449100012,50.040146019000076,50.05520489700007,50.05520489700007,51.05544465800017,51.05544465800017,54.055281597999965,54.055281597999965,54.055281597999965,54.055281597999965,54.03922186199998,1,0,None,,,54.039813159999994,54.03985574400008,2.9389601759999096,None,,,,,,,,,,,,,,,,,,,,,,,,,,,,,,,,,,,,,,,,,,,,,,,5,001,0,,2024-04-12_12h33.41.310,replicate_nsd,2023.2.3,59.96133417353761,2024-04-12 12h33.54.835955 -0400,
images/8_40 copy 3.jpg,13,0,,,,,0,13,13,13,,,,,54.055281597999965,,,,,,,,,,,54.040130181999984,54.04022088700003,54.04023238700006,54.055281597999965,54.055281597999965,55.055520088000094,55.055520088000094,58.055109164999976,58.055109164999976,58.055109164999976,58.055109164999976,58.03826596099998,2,0,None,,,58.038745168000105,58.03877722700008,2.5588781129999916,None,,,,,,,,,,,,,,,,,,,,,,,,,,,,,,,,,,,,,,,,,,,,,,,5,001,0,,2024-04-12_12h33.41.310,replicate_nsd,2023.2.3,59.96133417353761,2024-04-12 12h33.54.835955 -0400,
images/7_0 copy 2.jpg,14,0,,,,,0,14,14,14,,,,,58.055109164999976,,,,,,,,,,,58.03899822000017,58.03906787599999,58.03907720999996,58.055109164999976,58.055109164999976,59.05524458800005,59.05524458800005,62.055441399000074,62.055441399000074,62.055441399000074,62.055441399000074,62.03892467100013,1,0,None,,,62.03951450800014,62.03955461800001,2.703141206000055,None,,,,,,,,,,,,,,,,,,,,,,,,,,,,,,,,,,,,,,,,,,,,,,,5,001,0,,2024-04-12_12h33.41.310,replicate_nsd,2023.2.3,59.96133417353761,2024-04-12 12h33.54.835955 -0400,
images/17_28.jpg,15,0,,,,,0,15,15,15,,,,,62.055441399000074,,,,,,,,,,,62.039829134,62.03991638399998,62.03992799499997,62.055441399000074,62.055441399000074,63.055444007999995,63.055444007999995,66.05513683499998,66.05513683499998,66.05513683499998,66.05513683499998,66.03857221800013,1,0,None,,,66.03918086400017,66.0392254840001,2.6869478149999395,None,,,,,,,,,,,,,,,,,,,,,,,,,,,,,,,,,,,,,,,,,,,,,,,5,001,0,,2024-04-12_12h33.41.310,replicate_nsd,2023.2.3,59.96133417353761,2024-04-12 12h33.54.835955 -0400,
images/pair03 copy 7.jpg,16,0,,,,,0,16,16,16,,,,,66.05513683499998,,,,,,,,,,,66.03950351200001,66.03959523900016,66.03960732700011,66.05513683499998,66.05513683499998,67.05542310100009,67.05542310100009,70.05519201400011,70.05519201400011,70.05519201400011,70.05519201400011,70.03918372199996,2,0,None,,,70.03977222499998,70.03981258800013,2.9508130359999996,None,,,,,,,,,,,,,,,,,,,,,,,,,,,,,,,,,,,,,,,,,,,,,,,5,001,0,,2024-04-12_12h33.41.310,replicate_nsd,2023.2.3,59.96133417353761,2024-04-12 12h33.54.835955 -0400,
images/14_40.jpg,17,0,,,,,0,17,17,17,,,,,70.05519201400011,,,,,,,,,,,70.04008337599998,70.04017051400001,70.04018209200012,70.05519201400011,70.05519201400011,71.05529562000015,71.05529562000015,74.05523248000009,74.05523248000009,74.05523248000009,74.05523248000009,74.03869076900014,1,0,None,,,74.03927760900001,74.03931755899998,2.523088873000006,None,,,,,,,,,,,,,,,,,,,,,,,,,,,,,,,,,,,,,,,,,,,,,,,5,001,0,,2024-04-12_12h33.41.310,replicate_nsd,2023.2.3,59.96133417353761,2024-04-12 12h33.54.835955 -0400,
images/23_40 copy 3.jpg,18,0,,,,,0,18,18,18,,,,,74.05523248000009,,,,,,,,,,,74.03959134800016,74.03992610399996,74.03993919799996,74.05523248000009,74.05523248000009,75.05538877000004,75.05538877000004,78.05483356200011,78.05483356200011,78.05483356200011,78.05483356200011,78.03878228600001,2,0,None,,,78.03937304500005,78.03941377600017,2.92300315600005,None,,,,,,,,,,,,,,,,,,,,,,,,,,,,,,,,,,,,,,,,,,,,,,,5,001,0,,2024-04-12_12h33.41.310,replicate_nsd,2023.2.3,59.96133417353761,2024-04-12 12h33.54.835955 -0400,
images/6_28 copy 6.jpg,19,0,,,,,0,19,19,19,,,,,78.05483356200011,,,,,,,,,,,78.03968871300003,78.03977671300004,78.03978841200001,78.05483356200011,78.05483356200011,79.05538099,79.05538099,82.05767836100017,82.05767836100017,82.05767836100017,82.05767836100017,82.03917603900004,None,0,None,,,82.03960386200015,82.03964617300016,,,,,,,,,,,,,,,,,,,,,,,,,,,,,,,,,,,,,,,,,,,,,,,,,5,001,0,,2024-04-12_12h33.41.310,replicate_nsd,2023.2.3,59.96133417353761,2024-04-12 12h33.54.835955 -0400,
,,,,,,,,,,,,,,,,,,,,,,,,,,,,,,,,,,,,,,,,,,,,,,,,,82.03970632200003,82.05767836100017,82.05767836100017,85.45554686300011,space,3.3927984389999892,None,,,,,,,,,,,,,,,,,,,,,,,,,,,,,,,,,,,,,,5,001,0,,2024-04-12_12h33.41.310,replicate_nsd,2023.2.3,59.96133417353761,2024-04-12 12h33.54.835955 -0400,
,,,,,,,,,,,,,,,,,,,,,,,,,,,,,,,,,,,,,,,,,,,,,,,,,,,,,,,,85.45557416099996,85.47187634700003,85.47187634700003,87.32212373300013,5,1.8463916630000767,None,,,,,,,,,,,,,,,,,,,,,,,,,,,,,,,5,001,0,,2024-04-12_12h33.41.310,replicate_nsd,2023.2.3,59.96133417353761,2024-04-12 12h33.54.835955 -0400,
images/18_0 copy 3.jpg,0,0,0,0,0,"[9, 19, 29, 39, 49, 59, 68, 69, 70, 71]",,,,,0,0,0,0,87.43264634900015,,,,,,,,,,,,,,,,,,,,,,,,,,,,,,,,,,,,,,,,,,,,,,,,87.40009239100004,87.40016649300014,87.40017348900005,87.43264634900015,87.43264634900015,88.42207243899998,88.42207243899998,91.42247094499999,91.42247094499999,91.42247094499999,91.42247094499999,91.40573671400011,2,0,2.900161720999904,None,None,91.40856271799998,91.4086023960001,None,91.40925010000001,91.40931359700016,None,91.40996555200013,91.41000156400014,None,,,,,5,001,0,,2024-04-12_12h33.41.310,replicate_nsd,2023.2.3,59.96133417353761,2024-04-12 12h33.54.835955 -0400,
images/11_28 copy 7.jpg,1,0,0,0,0,"[9, 19, 29, 39, 49, 59, 68, 69, 70, 71]",,,,,0,1,1,1,91.42247094499999,,,,,,,,,,,,,,,,,,,,,,,,,,,,,,,,,,,,,,,,,,,,,,,,91.41087686000014,91.41096497000012,91.41097530800016,91.42247094499999,91.42247094499999,92.42188415999999,92.42188415999999,95.42611167400014,95.42611167400014,95.42611167400014,95.42611167400014,95.40570934200014,1,1,2.9445211950001067,None,None,95.40644499400014,95.40648939800008,None,95.40660127299998,95.41672680800002,None,95.41682473300011,95.41685106099999,None,,,,,5,001,0,,2024-04-12_12h33.41.310,replicate_nsd,2023.2.3,59.96133417353761,2024-04-12 12h33.54.835955 -0400,
images/22_28 copy 2.jpg,2,0,0,0,0,"[9, 19, 29, 39, 49, 59, 68, 69, 70, 71]",,,,,0,2,2,2,95.42611167400014,,,,,,,,,,,,,,,,,,,,,,,,,,,,,,,,,,,,,,,,,,,,,,,,95.41711798799997,95.41719104900017,95.41719944300007,95.42611167400014,95.42611167400014,96.42202701500014,96.42202701500014,99.42593198100008,99.42593198100008,99.42593198100008,99.42593198100008,99.40503820699996,1,1,2.7523342059998868,None,None,99.40579745000014,99.40583540900002,None,99.40592630600008,99.41372128300009,None,99.41381491400011,99.41384038000001,None,,,,,5,001,0,,2024-04-12_12h33.41.310,replicate_nsd,2023.2.3,59.96133417353761,2024-04-12 12h33.54.835955 -0400,
images/6_28 copy 4.jpg,3,0,0,0,0,"[9, 19, 29, 39, 49, 59, 68, 69, 70, 71]",,,,,0,3,3,3,99.42593198100008,,,,,,,,,,,,,,,,,,,,,,,,,,,,,,,,,,,,,,,,,,,,,,,,99.41409835700006,99.41416995300006,99.41417836799997,99.42593198100008,99.42593198100008,100.42209705100004,100.42209705100004,103.4261651490001,103.4261651490001,103.4261651490001,103.4261651490001,103.40553444000011,2,0,2.9442903499998465,None,None,103.40625880900006,103.406304374,None,103.40641652,103.41491878900001,None,103.4150159830001,103.41504194200002,None,,,,,5,001,0,,2024-04-12_12h33.41.310,replicate_nsd,2023.2.3,59.96133417353761,2024-04-12 12h33.54.835955 -0400,
images/10_0 copy 5.jpg,4,0,0,0,0,"[9, 19, 29, 39, 49, 59, 68, 69, 70, 71]",,,,,0,4,4,4,103.4261651490001,,,,,,,,,,,,,,,,,,,,,,,,,,,,,,,,,,,,,,,,,,,,,,,,103.41530803600017,103.41538189800008,103.41539024600002,103.4261651490001,103.4261651490001,104.42208114799996,104.42208114799996,107.42673762000004,107.42673762000004,107.42673762000004,107.42673762000004,107.40560911000011,2,0,2.6762843379999595,None,None,107.406332668,107.40637810400017,None,107.40648954400012,107.41480396500015,None,107.41490049000004,107.41492717799997,None,,,,,5,001,0,,2024-04-12_12h33.41.310,replicate_nsd,2023.2.3,59.96133417353761,2024-04-12 12h33.54.835955 -0400,
images/24_28 copy 6.jpg,5,0,0,0,0,"[9, 19, 29, 39, 49, 59, 68, 69, 70, 71]",,,,,0,5,5,5,107.42673762000004,,,,,,,,,,,,,,,,,,,,,,,,,,,,,,,,,,,,,,,,,,,,,,,,107.41519189300016,107.41526568400013,107.41527427799997,107.42673762000004,107.42673762000004,108.42197080699998,108.42197080699998,111.42669730500006,111.42669730500006,111.42669730500006,111.42669730500006,111.40556174000017,1,1,2.836427558999958,None,None,111.40625015600017,111.40629489800017,None,111.40640745500014,111.41470443000003,None,111.41481289300009,111.41483911199998,None,,,,,5,001,0,,2024-04-12_12h33.41.310,replicate_nsd,2023.2.3,59.96133417353761,2024-04-12 12h33.54.835955 -0400,
images/15_0 copy 5.jpg,6,0,0,0,0,"[9, 19, 29, 39, 49, 59, 68, 69, 70, 71]",,,,,0,6,6,6,111.42669730500006,,,,,,,,,,,,,,,,,,,,,,,,,,,,,,,,,,,,,,,,,,,,,,,,111.41509632700013,111.41516805800006,111.41517653699998,111.42669730500006,111.42669730500006,112.42197237799996,112.42197237799996,115.42734425800018,115.42734425800018,115.42734425800018,115.42734425800018,115.40559104299996,2,0,2.2764050159998988,None,None,115.40627766500006,115.40632349400016,None,115.40643603000012,115.41473272000007,None,115.41483112500009,115.41485695400002,None,,,,,5,001,0,,2024-04-12_12h33.41.310,replicate_nsd,2023.2.3,59.96133417353761,2024-04-12 12h33.54.835955 -0400,
images/pair02.jpg,7,0,0,0,0,"[9, 19, 29, 39, 49, 59, 68, 69, 70, 71]",,,,,0,7,7,7,115.42734425800018,,,,,,,,,,,,,,,,,,,,,,,,,,,,,,,,,,,,,,,,,,,,,,,,115.41512273600006,115.41519750700013,115.41520606500012,115.42734425800018,115.42734425800018,116.42208554400008,116.42208554400008,119.42620492600008,119.42620492600008,119.42620492600008,119.42620492600008,119.40567073400007,None,0,,,None,119.40616769600001,119.40621191200012,None,119.40704116799998,119.41524472900005,None,119.41534179300015,119.41536805999999,None,,,,,5,001,0,,2024-04-12_12h33.41.310,replicate_nsd,2023.2.3,59.96133417353761,2024-04-12 12h33.54.835955 -0400,
images/8_0 copy 4.jpg,8,0,0,0,0,"[9, 19, 29, 39, 49, 59, 68, 69, 70, 71]",,,,,0,8,8,8,119.42620492600008,,,,,,,,,,,,,,,,,,,,,,,,,,,,,,,,,,,,,,,,,,,,,,,,119.41563137399999,119.41570647200001,119.41571510900008,119.42620492600008,119.42620492600008,120.42179884100005,120.42179884100005,123.42243698900006,123.42243698900006,123.42243698900006,123.42243698900006,123.40538339500017,None,0,,,None,123.40595354300012,123.40602226600004,None,123.406123794,123.41413192100003,None,123.41422805599996,123.41425432699998,None,,,,,5,001,0,,2024-04-12_12h33.41.310,replicate_nsd,2023.2.3,59.96133417353761,2024-04-12 12h33.54.835955 -0400,
images/blank.jpg,9,1,0,0,0,"[9, 19, 29, 39, 49, 59, 68, 69, 70, 71]",,,,,0,9,9,9,123.42243698900006,,,,,,,,,,,,,,,,,,,,,,,,,,,,,,,,,,,,,,,,,,,,,,,,123.41451402400003,123.41458724000017,123.41459580600008,,,,,,,,,123.41668749500013,None,0,,,None,123.4170490250001,127.40559994199998,None,127.40581565900015,127.41470263500014,None,127.41480518900016,127.41483267900003,None,123.42243698900006,123.42243698900006,127.42582531100015,127.42582531100015,5,001,0,,2024-04-12_12h33.41.310,replicate_nsd,2023.2.3,59.96133417353761,2024-04-12 12h33.54.835955 -0400,
images/21_28.jpg,10,0,0,0,0,"[9, 19, 29, 39, 49, 59, 68, 69, 70, 71]",,,,,0,10,10,10,127.42582531100015,,,,,,,,,,,,,,,,,,,,,,,,,,,,,,,,,,,,,,,,,,,,,,,,127.41510626000013,127.41519040800017,127.41519914300011,127.42582531100015,127.42582531100015,128.42216972300002,128.42216972300002,131.422025158,131.422025158,131.422025158,131.422025158,131.4051965420001,None,0,,,None,131.40570561200002,131.40575077800008,None,131.40586894400008,131.40593565300014,None,131.40605494400006,131.40609188200006,None,,,,,5,001,0,,2024-04-12_12h33.41.310,replicate_nsd,2023.2.3,59.96133417353761,2024-04-12 12h33.54.835955 -0400,
images/13_0 copy 5.jpg,11,0,0,0,0,"[9, 19, 29, 39, 49, 59, 68, 69, 70, 71]",,,,,0,11,11,11,131.422025158,,,,,,,,,,,,,,,,,,,,,,,,,,,,,,,,,,,,,,,,,,,,,,,,131.40647629500018,131.40658417400005,131.406597423,131.422025158,131.422025158,132.42212862400015,132.42212862400015,135.42536327400012,135.42536327400012,135.42536327400012,135.42536327400012,135.40548085399996,None,0,,,None,135.40596645000005,135.40601111600017,None,135.4061233540001,135.41374382799995,None,135.41383924399997,135.41386453200016,None,,,,,5,001,0,,2024-04-12_12h33.41.310,replicate_nsd,2023.2.3,59.96133417353761,2024-04-12 12h33.54.835955 -0400,
images/15_0 copy 7.jpg,12,0,0,0,0,"[9, 19, 29, 39, 49, 59, 68, 69, 70, 71]",,,,,0,12,12,12,135.42536327400012,,,,,,,,,,,,,,,,,,,,,,,,,,,,,,,,,,,,,,,,,,,,,,,,135.41412335500013,135.41419471500012,135.41420320600014,135.42536327400012,135.42536327400012,136.4219257100001,136.4219257100001,139.42470285800005,139.42470285800005,139.42470285800005,139.42470285800005,139.4055900620001,None,0,,,None,139.40609874400002,139.40614325700017,None,139.40625668500002,139.41376264100018,None,139.41385991900006,139.41388622399995,None,,,,,5,001,0,,2024-04-12_12h33.41.310,replicate_nsd,2023.2.3,59.96133417353761,2024-04-12 12h33.54.835955 -0400,
images/20_40.jpg,13,0,0,0,0,"[9, 19, 29, 39, 49, 59, 68, 69, 70, 71]",,,,,0,13,13,13,139.42470285800005,,,,,,,,,,,,,,,,,,,,,,,,,,,,,,,,,,,,,,,,,,,,,,,,139.41414953800017,139.41422234200013,139.41423062800004,139.42470285800005,139.42470285800005,140.42179835399998,140.42179835399998,143.42385556299996,143.42385556299996,143.42385556299996,143.42385556299996,143.405367824,None,0,,,None,143.405883379,143.40592789900006,None,143.40604410000014,143.41355287400006,None,143.41365371100005,143.41368029700016,None,,,,,5,001,0,,2024-04-12_12h33.41.310,replicate_nsd,2023.2.3,59.96133417353761,2024-04-12 12h33.54.835955 -0400,
images/14_40 copy 4.jpg,14,0,0,0,0,"[9, 19, 29, 39, 49, 59, 68, 69, 70, 71]",,,,,0,14,14,14,143.42385556299996,,,,,,,,,,,,,,,,,,,,,,,,,,,,,,,,,,,,,,,,,,,,,,,,143.41395085800013,143.41402654000012,143.41403526500017,143.42385556299996,143.42385556299996,144.42180633700013,144.42180633700013,147.42458729700002,147.42458729700002,147.42458729700002,147.42458729700002,147.40531933500006,None,0,,,None,147.4058322400001,147.40587579099997,None,147.40599029400005,147.41343682599995,None,147.413533444,147.413559374,None,,,,,5,001,0,,2024-04-12_12h33.41.310,replicate_nsd,2023.2.3,59.96133417353761,2024-04-12 12h33.54.835955 -0400,
images/20_28.jpg,15,0,0,0,0,"[9, 19, 29, 39, 49, 59, 68, 69, 70, 71]",,,,,0,15,15,15,147.42458729700002,,,,,,,,,,,,,,,,,,,,,,,,,,,,,,,,,,,,,,,,,,,,,,,,147.41382180200003,147.41389558800006,147.41390434100003,147.42458729700002,147.42458729700002,148.42165384100008,148.42165384100008,151.420783992,151.420783992,151.420783992,151.420783992,151.40452325299998,None,0,,,None,151.404838809,151.40486712899997,None,151.40494296300017,151.411264415,None,151.4113544280001,151.41137875100003,None,,,,,5,001,0,,2024-04-12_12h33.41.310,replicate_nsd,2023.2.3,59.96133417353761,2024-04-12 12h33.54.835955 -0400,
images/pair08.jpg,16,0,0,0,0,"[9, 19, 29, 39, 49, 59, 68, 69, 70, 71]",,,,,0,16,16,16,151.420783992,,,,,,,,,,,,,,,,,,,,,,,,,,,,,,,,,,,,,,,,,,,,,,,,151.41162196300002,151.411690314,151.411698484,151.420783992,151.420783992,152.42177886500008,152.42177886500008,155.42434057800006,155.42434057800006,155.42434057800006,155.42434057800006,155.40533688799997,None,0,,,None,155.40584992000004,155.40589440400004,None,155.40600967499995,155.41354638999996,None,155.41366244799997,155.41368841000008,None,,,,,5,001,0,,2024-04-12_12h33.41.310,replicate_nsd,2023.2.3,59.96133417353761,2024-04-12 12h33.54.835955 -0400,
images/24_40 copy 4.jpg,17,0,0,0,0,"[9, 19, 29, 39, 49, 59, 68, 69, 70, 71]",,,,,0,17,17,17,155.42434057800006,,,,,,,,,,,,,,,,,,,,,,,,,,,,,,,,,,,,,,,,,,,,,,,,155.41395272600016,155.41402625399996,155.41403482400005,155.42434057800006,155.42434057800006,156.4218767750001,156.4218767750001,159.424729801,159.424729801,159.424729801,159.424729801,159.4054636180001,None,0,,,None,159.406100724,159.4061639680001,None,159.40630334399998,159.41375325400008,None,159.41385144200012,159.41387809399998,None,,,,,5,001,0,,2024-04-12_12h33.41.310,replicate_nsd,2023.2.3,59.96133417353761,2024-04-12 12h33.54.835955 -0400,
images/12_28 copy 6.jpg,18,0,0,0,0,"[9, 19, 29, 39, 49, 59, 68, 69, 70, 71]",,,,,0,18,18,18,159.424729801,,,,,,,,,,,,,,,,,,,,,,,,,,,,,,,,,,,,,,,,,,,,,,,,159.4141437820001,159.41422267100006,159.41423143300017,159.424729801,159.424729801,160.42170348700006,160.42170348700006,163.42268747100002,163.42268747100002,163.42268747100002,163.42268747100002,163.40559848500016,None,0,,,None,163.40614356200012,163.40618795499995,None,163.40630364499998,163.41399887600005,None,163.41409644300006,163.4141224330001,None,,,,,5,001,0,,2024-04-12_12h33.41.310,replicate_nsd,2023.2.3,59.96133417353761,2024-04-12 12h33.54.835955 -0400,
images/blank.jpg,19,1,0,0,0,"[9, 19, 29, 39, 49, 59, 68, 69, 70, 71]",,,,,0,19,19,19,163.42268747100002,,,,,,,,,,,,,,,,,,,,,,,,,,,,,,,,,,,,,,,,,,,,,,,,163.41438472100003,163.41445856400014,163.41446719700002,,,,,,,,,163.41657209599998,None,0,,,None,163.41693424200002,167.40553085700003,None,167.40574549200005,167.4133820720001,None,167.41348443100014,167.41351128300016,None,163.42268747100002,163.42268747100002,167.42505959100004,167.42505959100004,5,001,0,,2024-04-12_12h33.41.310,replicate_nsd,2023.2.3,59.96133417353761,2024-04-12 12h33.54.835955 -0400,
images/6_12 copy 5.jpg,20,0,0,0,0,"[9, 19, 29, 39, 49, 59, 68, 69, 70, 71]",,,,,0,20,20,20,167.42505959100004,,,,,,,,,,,,,,,,,,,,,,,,,,,,,,,,,,,,,,,,,,,,,,,,167.41378573300017,167.41386934900015,167.41387815100006,167.42505959100004,167.42505959100004,168.42180144300005,168.42180144300005,171.42182713300008,171.42182713300008,171.42182713300008,171.42182713300008,171.40474880800002,None,0,,,None,171.40513804300008,171.405173482,None,171.4052632370001,171.40531632300008,None,171.40540718900002,171.40543675799995,None,,,,,5,001,0,,2024-04-12_12h33.41.310,replicate_nsd,2023.2.3,59.96133417353761,2024-04-12 12h33.54.835955 -0400,
images/23_0 copy.jpg,21,0,0,0,0,"[9, 19, 29, 39, 49, 59, 68, 69, 70, 71]",,,,,0,21,21,21,171.42182713300008,,,,,,,,,,,,,,,,,,,,,,,,,,,,,,,,,,,,,,,,,,,,,,,,171.40573598600008,171.40581884300013,171.4058289300001,171.42182713300008,171.42182713300008,172.42179430200008,172.42179430200008,175.42594088500005,175.42594088500005,175.42594088500005,175.42594088500005,175.40530950800007,None,0,,,None,175.40579775900005,175.40584101900004,None,175.40595441899995,175.4134821770001,None,175.41357906500002,175.41360440800008,None,,,,,5,001,0,,2024-04-12_12h33.41.310,replicate_nsd,2023.2.3,59.96133417353761,2024-04-12 12h33.54.835955 -0400,
images/5_40 copy.jpg,22,0,0,0,0,"[9, 19, 29, 39, 49, 59, 68, 69, 70, 71]",,,,,0,22,22,22,175.42594088500005,,,,,,,,,,,,,,,,,,,,,,,,,,,,,,,,,,,,,,,,,,,,,,,,175.41386365400012,175.41393673400012,175.41394521000007,175.42594088500005,175.42594088500005,176.42203688300015,176.42203688300015,179.42521673600004,179.42521673600004,179.42521673600004,179.42521673600004,179.40502039800003,None,0,,,None,179.40550746000008,179.40555083100003,None,179.40566464900007,179.41310162000013,None,179.4132003950001,179.4132263670001,None,,,,,5,001,0,,2024-04-12_12h33.41.310,replicate_nsd,2023.2.3,59.96133417353761,2024-04-12 12h33.54.835955 -0400,
images/17_40 copy.jpg,23,0,0,0,0,"[9, 19, 29, 39, 49, 59, 68, 69, 70, 71]",,,,,0,23,23,23,179.42521673600004,,,,,,,,,,,,,,,,,,,,,,,,,,,,,,,,,,,,,,,,,,,,,,,,179.413487004,179.413560771,179.4135693830001,179.42521673600004,179.42521673600004,180.42203691600002,180.42203691600002,183.42709367099997,183.42709367099997,183.42709367099997,183.42709367099997,183.40545347600005,None,0,,,None,183.40596416800008,183.40600795399996,None,183.4061225790001,183.41385871700004,None,183.41395608200014,183.41398180600004,None,,,,,5,001,0,,2024-04-12_12h33.41.310,replicate_nsd,2023.2.3,59.96133417353761,2024-04-12 12h33.54.835955 -0400,
images/pair03 copy.jpg,24,0,0,0,0,"[9, 19, 29, 39, 49, 59, 68, 69, 70, 71]",,,,,0,24,24,24,183.42709367099997,,,,,,,,,,,,,,,,,,,,,,,,,,,,,,,,,,,,,,,,,,,,,,,,183.41424474600012,183.41431895300002,183.41432758099995,183.42709367099997,183.42709367099997,184.421732153,184.421732153,187.4251098100001,187.4251098100001,187.4251098100001,187.4251098100001,187.40518602600014,None,0,,,None,187.40569802200002,187.40574203000006,None,187.40585598799998,187.41341755300004,None,187.4135183630001,187.41354556500005,None,,,,,5,001,0,,2024-04-12_12h33.41.310,replicate_nsd,2023.2.3,59.96133417353761,2024-04-12 12h33.54.835955 -0400,
images/23_40 copy 4.jpg,25,0,0,0,0,"[9, 19, 29, 39, 49, 59, 68, 69, 70, 71]",,,,,0,25,25,25,187.4251098100001,,,,,,,,,,,,,,,,,,,,,,,,,,,,,,,,,,,,,,,,,,,,,,,,187.41381808999995,187.41389423300006,187.41390304900006,187.4251098100001,187.4251098100001,188.4217233060001,188.4217233060001,191.42357354900014,191.42357354900014,191.42357354900014,191.42357354900014,191.40475554500017,None,0,,,None,191.4052609360001,191.405304184,None,191.4054205550001,191.41300383600014,None,191.41310475199998,191.41313066300017,None,,,,,5,001,0,,2024-04-12_12h33.41.310,replicate_nsd,2023.2.3,59.96133417353761,2024-04-12 12h33.54.835955 -0400,
images/12_0 copy 2.jpg,26,0,0,0,0,"[9, 19, 29, 39, 49, 59, 68, 69, 70, 71]",,,,,0,26,26,26,191.42357354900014,,,,,,,,,,,,,,,,,,,,,,,,,,,,,,,,,,,,,,,,,,,,,,,,191.41339865200007,191.41347502899998,191.41348382900014,191.42357354900014,191.42357354900014,192.42168095500006,192.42168095500006,195.42669635200014,195.42669635200014,195.42669635200014,195.42669635200014,195.40564303500014,None,0,,,None,195.406193884,195.40623760400013,None,195.40635082400013,195.41386938300002,None,195.41396618,195.41399193899997,None,,,,,5,001,0,,2024-04-12_12h33.41.310,replicate_nsd,2023.2.3,59.96133417353761,2024-04-12 12h33.54.835955 -0400,
images/24_0 copy 7.jpg,27,0,0,0,0,"[9, 19, 29, 39, 49, 59, 68, 69, 70, 71]",,,,,0,27,27,27,195.42669635200014,,,,,,,,,,,,,,,,,,,,,,,,,,,,,,,,,,,,,,,,,,,,,,,,195.41425387900017,195.41432739900006,195.41433617200005,195.42669635200014,195.42669635200014,196.42178833000003,196.42178833000003,199.4252160210001,199.4252160210001,199.4252160210001,199.4252160210001,199.40551689000017,None,0,,,None,199.40602483700013,199.40606940199996,None,199.40618308400008,199.413744104,None,199.41384213300012,199.41386844500016,None,,,,,5,001,0,,2024-04-12_12h33.41.310,replicate_nsd,2023.2.3,59.96133417353761,2024-04-12 12h33.54.835955 -0400,
images/11_28 copy 3.jpg,28,0,0,0,0,"[9, 19, 29, 39, 49, 59, 68, 69, 70, 71]",,,,,0,28,28,28,199.4252160210001,,,,,,,,,,,,,,,,,,,,,,,,,,,,,,,,,,,,,,,,,,,,,,,,199.41413128900012,199.414205541,199.41421389700008,199.4252160210001,199.4252160210001,200.42170559800002,200.42170559800002,203.42253632899997,203.42253632899997,203.42253632899997,203.42253632899997,203.40523159300005,None,0,,,None,203.40574632900007,203.40579079400004,None,203.40590589500016,203.41341510999996,None,203.41351230400005,203.41353904900006,None,,,,,5,001,0,,2024-04-12_12h33.41.310,replicate_nsd,2023.2.3,59.96133417353761,2024-04-12 12h33.54.835955 -0400,
images/blank.jpg,29,1,0,0,0,"[9, 19, 29, 39, 49, 59, 68, 69, 70, 71]",,,,,0,29,29,29,203.42253632899997,,,,,,,,,,,,,,,,,,,,,,,,,,,,,,,,,,,,,,,,,,,,,,,,203.41380070100013,203.41387338799996,203.4138818880001,,,,,,,,,203.416297793,None,0,,,None,203.41682425700014,207.40513787100008,None,207.40535378100003,207.41305034100014,None,207.4131504940001,207.41317653500005,None,203.42253632899997,203.42253632899997,207.424818382,207.424818382,5,001,0,,2024-04-12_12h33.41.310,replicate_nsd,2023.2.3,59.96133417353761,2024-04-12 12h33.54.835955 -0400,
images/pair04 copy 3.jpg,30,0,0,0,0,"[9, 19, 29, 39, 49, 59, 68, 69, 70, 71]",,,,,0,30,30,30,207.424818382,,,,,,,,,,,,,,,,,,,,,,,,,,,,,,,,,,,,,,,,,,,,,,,,207.41344479600002,207.41352518600002,207.41353389799997,207.424818382,207.424818382,208.421559698,208.421559698,211.42164138500016,211.42164138500016,211.42164138500016,211.42164138500016,211.40510143699998,None,0,,,None,211.40561957600016,211.40566589000014,None,211.40578194199998,211.40584911600013,None,211.40596653700004,211.40600296800017,None,,,,,5,001,0,,2024-04-12_12h33.41.310,replicate_nsd,2023.2.3,59.96133417353761,2024-04-12 12h33.54.835955 -0400,
,,,,,,,,,,,,,,,211.42164138500016,,,,,,,,,,,,,,,,,,,,,,,,,,,,,,,,,,,,,,,,,,,,,,,,211.40639457300017,211.40650356900005,211.4065164440001,211.42164138500016,211.42164138500016,212.4217059120001,212.4217059120001,,,,,,,,,,,,,,,,,,,,,,,,,,,,,,,,,
