current_image,trial_index,is_blank_trial,is_repeat,is_new_run,run_num,all_blanks_list,practice.thisRepN,practice.thisTrialN,practice.thisN,practice.thisIndex,loop_all_images.thisRepN,loop_all_images.thisTrialN,loop_all_images.thisN,loop_all_images.thisIndex,thisRow.t,notes,set_up.started,set_up.stopped,practice_continue.started,key_resp_6.started,text_6.started,practice_continue.stopped,key_resp_6.keys,key_resp_6.rt,key_resp_6.duration,set_skips_and_correct_key_2.started,set_skips_and_correct_key_2.stopped,practice_trial.started,polygon_3.started,all_keys_pressed_2.started,image_2.started,press_if_repeat_2.started,image_2.stopped,press_if_repeat_2.stopped,polygon_3.stopped,all_keys_pressed_2.stopped,practice_trial.stopped,press_if_repeat_2.keys,press_if_repeat_2.corr,all_keys_pressed_2.keys,blank_trial_2.started,blank_trial_2.stopped,polygon_4.started,polygon_4.stopped,testing_continue.started,key_resp_7.started,text_7.started,testing_continue.stopped,key_resp_7.keys,key_resp_7.rt,key_resp_7.duration,waiting_fmri.started,key_resp_2.started,text_3.started,waiting_fmri.stopped,key_resp_2.keys,key_resp_2.rt,key_resp_2.duration,set_skips_and_correct_key.started,set_skips_and_correct_key.stopped,trial.started,trial.stopped,press_if_repeat.keys,press_if_repeat.corr,all_keys_pressed.keys,blank_trial.started,blank_trial.stopped,blank_trial_testing_keys.keys,run_wait2_2.started,run_wait2_2.stopped,key_resp_5.keys,waiting_fmri_2.started,waiting_fmri_2.stopped,key_resp_4.keys,participant,session,starting_run,,date,expName,psychopyVersion,frameRate,expStart,
,,,,,,,,,,,,,,,,,0.028010820999043062,0.028351418000966078,0.028378293001878774,0.04724219299896504,0.04724219299896504,9.771457558999828,2,9.71196896100082,None,,,,,,,,,,,,,,,,,,,,,,,,,,,,,,,,,,,,,,,,,,,,,,,,,,64,001,15,,2024-04-13_12h44.24.113,replicate_nsd,2023.2.3,60.07382869212517,2024-04-13 12h44.44.141908 -0400,
practice_images/paired_image_28_1.png,0,0,,,,,0,0,0,0,,,,,9.809293223999703,,,,,,,,,,,9.781920270001137,9.781993898999644,9.782003200001782,9.809293223999703,9.809293223999703,10.804273562000162,10.804273562000162,13.804056510998635,13.804056510998635,13.804056510998635,13.804056510998635,13.78910043599899,None,0,None,13.789516802000435,13.789542951999465,,,,,,,,,,,,,,,,,,,,,,,,,,,,,,,,,64,001,15,,2024-04-13_12h44.24.113,replicate_nsd,2023.2.3,60.07382869212517,2024-04-13 12h44.44.141908 -0400,
practice_images/paired_image_25_2.png,1,0,,,,,0,1,1,1,,,,,13.804056510998635,,,,,,,,,,,13.789706948999083,13.789755445999617,13.78976223599966,13.804056510998635,13.804056510998635,14.804252076999546,14.804252076999546,17.80332007299876,17.80332007299876,17.80332007299876,17.80332007299876,17.78822378499899,None,0,None,17.78863850000198,17.788680146000843,,,,,,,,,,,,,,,,,,,,,,,,,,,,,,,,,64,001,15,,2024-04-13_12h44.24.113,replicate_nsd,2023.2.3,60.07382869212517,2024-04-13 12h44.44.141908 -0400,
practice_images/paired_image_21_2.png,2,0,,,,,0,2,2,2,,,,,17.80332007299876,,,,,,,,,,,17.78895123700204,17.789035399000568,17.78904721100116,17.80332007299876,17.80332007299876,18.804258771000605,18.804258771000605,21.803354166000645,21.803354166000645,21.803354166000645,21.803354166000645,21.78823009199914,None,0,None,21.788643315001536,21.788684481998644,,,,,,,,,,,,,,,,,,,,,,,,,,,,,,,,,64,001,15,,2024-04-13_12h44.24.113,replicate_nsd,2023.2.3,60.07382869212517,2024-04-13 12h44.44.141908 -0400,
practice_images/paired_image_33_1.png,3,0,,,,,0,3,3,3,,,,,21.803354166000645,,,,,,,,,,,21.78896156100018,21.78904550000152,21.78905762300201,21.803354166000645,21.803354166000645,22.804246374002105,22.804246374002105,25.803234089002217,25.803234089002217,25.803234089002217,25.803234089002217,25.788246093001362,None,0,None,25.788661302001856,25.788703244001226,,,,,,,,,,,,,,,,,,,,,,,,,,,,,,,,,64,001,15,,2024-04-13_12h44.24.113,replicate_nsd,2023.2.3,60.07382869212517,2024-04-13 12h44.44.141908 -0400,
practice_images/paired_image_22_2.png,4,0,,,,,0,4,4,4,,,,,25.803234089002217,,,,,,,,,,,25.78897935599889,25.789064218999556,25.789075972999854,25.803234089002217,25.803234089002217,26.804260719000013,26.804260719000013,29.80333641800098,29.80333641800098,29.80333641800098,29.80333641800098,29.788247455999226,None,0,None,29.788664783998684,29.78870674100108,,,,,,,,,,,,,,,,,,,,,,,,,,,,,,,,,64,001,15,,2024-04-13_12h44.24.113,replicate_nsd,2023.2.3,60.07382869212517,2024-04-13 12h44.44.141908 -0400,
practice_images/paired_image_2_1.png,5,0,,,,,0,5,5,5,,,,,29.80333641800098,,,,,,,,,,,29.78898990900052,29.789081645001716,29.789093535000575,29.80333641800098,29.80333641800098,30.80428576000122,30.80428576000122,33.80323556499934,33.80323556499934,33.80323556499934,33.80323556499934,33.788275276001514,None,0,None,33.78869503000169,33.78873715300142,,,,,,,,,,,,,,,,,,,,,,,,,,,,,,,,,64,001,15,,2024-04-13_12h44.24.113,replicate_nsd,2023.2.3,60.07382869212517,2024-04-13 12h44.44.141908 -0400,
practice_images/paired_image_15_2.png,6,0,,,,,0,6,6,6,,,,,33.80323556499934,,,,,,,,,,,33.789013523000904,33.789097656001104,33.78910964199895,33.80323556499934,33.80323556499934,34.804784580999694,34.804784580999694,37.804136707,37.804136707,37.804136707,37.804136707,37.787736037000286,None,0,None,37.788155807000294,37.78819673900216,,,,,,,,,,,,,,,,,,,,,,,,,,,,,,,,,64,001,15,,2024-04-13_12h44.24.113,replicate_nsd,2023.2.3,60.07382869212517,2024-04-13 12h44.44.141908 -0400,
practice_images/paired_image_20_2.png,7,0,,,,,0,7,7,7,,,,,37.804136707,,,,,,,,,,,37.788475117002235,37.78856000700034,37.788571830002184,37.804136707,37.804136707,38.804820396999276,38.804820396999276,41.804130404001626,41.804130404001626,41.804130404001626,41.804130404001626,41.788265169001534,None,0,None,41.78868968700044,41.78873159300201,,,,,,,,,,,,,,,,,,,,,,,,,,,,,,,,,64,001,15,,2024-04-13_12h44.24.113,replicate_nsd,2023.2.3,60.07382869212517,2024-04-13 12h44.44.141908 -0400,
practice_images/paired_image_27_1.png,8,0,,,,,0,8,8,8,,,,,41.804130404001626,,,,,,,,,,,41.789007182000205,41.789091340000596,41.78910331099905,41.804130404001626,41.804130404001626,42.8042934490004,42.8042934490004,45.804107473999466,45.804107473999466,45.804107473999466,45.804107473999466,45.78760540800067,None,0,None,45.78802039999937,45.78806166499999,,,,,,,,,,,,,,,,,,,,,,,,,,,,,,,,,64,001,15,,2024-04-13_12h44.24.113,replicate_nsd,2023.2.3,60.07382869212517,2024-04-13 12h44.44.141908 -0400,
practice_images/paired_image_4_2.png,9,0,,,,,0,9,9,9,,,,,45.804107473999466,,,,,,,,,,,45.78833649399894,45.788420396998845,45.78843224299999,45.804107473999466,45.804107473999466,46.80430690000139,46.80430690000139,49.80416120600057,49.80416120600057,49.80416120600057,49.80416120600057,49.78758335400198,None,0,None,49.78799466399869,49.78803593200064,,,,,,,,,,,,,,,,,,,,,,,,,,,,,,,,,64,001,15,,2024-04-13_12h44.24.113,replicate_nsd,2023.2.3,60.07382869212517,2024-04-13 12h44.44.141908 -0400,
blank.jpg,10,1,,,,,0,10,10,10,,,,,49.80416120600057,,,,,,,,,,,49.788310560001264,49.7883959589999,49.78840799799946,,,,,,,,,49.79464236700005,None,0,None,49.795004906998656,53.838626890999876,49.80416120600057,53.853753756000515,,,,,,,,,,,,,,,,,,,,,,,,,,,,,,,64,001,15,,2024-04-13_12h44.24.113,replicate_nsd,2023.2.3,60.07382869212517,2024-04-13 12h44.44.141908 -0400,
practice_images/paired_image_24_1.png,11,0,,,,,0,11,11,11,,,,,53.853753756000515,,,,,,,,,,,53.83900672399977,53.839090535999276,53.839102896999975,53.853753756000515,53.853753756000515,54.8548539479998,54.8548539479998,57.853881431001355,57.853881431001355,57.853881431001355,57.853881431001355,57.838678201998846,None,0,None,57.83909193100044,57.83913361600207,,,,,,,,,,,,,,,,,,,,,,,,,,,,,,,,,64,001,15,,2024-04-13_12h44.24.113,replicate_nsd,2023.2.3,60.07382869212517,2024-04-13 12h44.44.141908 -0400,
practice_images/paired_image_19_1.png,12,0,,,,,0,12,12,12,,,,,57.853881431001355,,,,,,,,,,,57.839405067999905,57.839489785001206,57.839501544000086,57.853881431001355,57.853881431001355,58.85479279500214,58.85479279500214,61.854168689998914,61.854168689998914,61.854168689998914,61.854168689998914,61.83767787499892,None,0,None,61.83801734000008,61.838036921999446,,,,,,,,,,,,,,,,,,,,,,,,,,,,,,,,,64,001,15,,2024-04-13_12h44.24.113,replicate_nsd,2023.2.3,60.07382869212517,2024-04-13 12h44.44.141908 -0400,
practice_images/paired_image_30_1.png,13,0,,,,,0,13,13,13,,,,,61.854168689998914,,,,,,,,,,,61.83816813999874,61.83820782000112,61.838213301001815,61.854168689998914,61.854168689998914,62.85495835099937,62.85495835099937,65.8541840709986,65.8541840709986,65.8541840709986,65.8541840709986,65.83833670899912,None,0,None,65.83878999800072,65.83883594700092,,,,,,,,,,,,,,,,,,,,,,,,,,,,,,,,,64,001,15,,2024-04-13_12h44.24.113,replicate_nsd,2023.2.3,60.07382869212517,2024-04-13 12h44.44.141908 -0400,
practice_images/paired_image_15_1.png,14,0,,,,,0,14,14,14,,,,,65.8541840709986,,,,,,,,,,,65.83912469300049,65.83921351900062,65.83922524100126,65.8541840709986,65.8541840709986,66.85490724099873,66.85490724099873,69.8542980150014,69.8542980150014,69.8542980150014,69.8542980150014,69.83815443899948,None,0,None,69.83857846899991,69.83862140999918,,,,,,,,,,,,,,,,,,,,,,,,,,,,,,,,,64,001,15,,2024-04-13_12h44.24.113,replicate_nsd,2023.2.3,60.07382869212517,2024-04-13 12h44.44.141908 -0400,
practice_images/paired_image_36_2.png,15,0,,,,,0,15,15,15,,,,,69.8542980150014,,,,,,,,,,,69.8389025180004,69.83898806900106,69.83899991699946,69.8542980150014,69.8542980150014,70.85491917400213,70.85491917400213,73.85392898099963,73.85392898099963,73.85392898099963,73.85392898099963,73.83832152299874,None,0,None,73.83873817100175,73.83878000000186,,,,,,,,,,,,,,,,,,,,,,,,,,,,,,,,,64,001,15,,2024-04-13_12h44.24.113,replicate_nsd,2023.2.3,60.07382869212517,2024-04-13 12h44.44.141908 -0400,
practice_images/paired_image_36_1.png,16,0,,,,,0,16,16,16,,,,,73.85392898099963,,,,,,,,,,,73.83905658499862,73.83914158699918,73.83915314600017,73.85392898099963,73.85392898099963,74.8548626060001,74.8548626060001,77.85388507500102,77.85388507500102,77.85388507500102,77.85388507500102,77.83848827900147,None,0,None,77.83901852800045,77.83906059700166,,,,,,,,,,,,,,,,,,,,,,,,,,,,,,,,,64,001,15,,2024-04-13_12h44.24.113,replicate_nsd,2023.2.3,60.07382869212517,2024-04-13 12h44.44.141908 -0400,
practice_images/paired_image_29_1.png,17,0,,,,,0,17,17,17,,,,,77.85388507500102,,,,,,,,,,,77.8393385849995,77.83942279099938,77.83943499599991,77.85388507500102,77.85388507500102,78.85487387499961,78.85487387499961,81.8538452569992,81.8538452569992,81.8538452569992,81.8538452569992,81.83835243800058,None,0,None,81.83879124699888,81.83883445399988,,,,,,,,,,,,,,,,,,,,,,,,,,,,,,,,,64,001,15,,2024-04-13_12h44.24.113,replicate_nsd,2023.2.3,60.07382869212517,2024-04-13 12h44.44.141908 -0400,
practice_images/paired_image_18_1.png,18,0,,,,,0,18,18,18,,,,,81.8538452569992,,,,,,,,,,,81.83911383099985,81.8392022629996,81.83921403099885,81.8538452569992,81.8538452569992,82.85481901800085,82.85481901800085,85.85379592100071,85.85379592100071,85.85379592100071,85.85379592100071,85.83846466700197,None,0,None,85.83902498300085,85.83906932600075,,,,,,,,,,,,,,,,,,,,,,,,,,,,,,,,,64,001,15,,2024-04-13_12h44.24.113,replicate_nsd,2023.2.3,60.07382869212517,2024-04-13 12h44.44.141908 -0400,
practice_images/paired_image_12_1.png,19,0,,,,,0,19,19,19,,,,,85.85379592100071,,,,,,,,,,,85.83934663800028,85.83943315899887,85.8394447210012,85.85379592100071,85.85379592100071,86.85488112900202,86.85488112900202,89.85712155900183,89.85712155900183,89.85712155900183,89.85712155900183,89.838304617002,None,0,None,89.8387385290007,89.83878418200038,,,,,,,,,,,,,,,,,,,,,,,,,,,,,,,,,64,001,15,,2024-04-13_12h44.24.113,replicate_nsd,2023.2.3,60.07382869212517,2024-04-13 12h44.44.141908 -0400,
,,,,,,,,,,,,,,,,,,,,,,,,,,,,,,,,,,,,,,,,,,,,,89.83884505300011,89.85712155900183,89.85712155900183,94.87127697100004,2,5.006080376999307,None,,,,,,,,,,,,,,,,,,,,,,,,64,001,15,,2024-04-13_12h44.24.113,replicate_nsd,2023.2.3,60.07382869212517,2024-04-13 12h44.44.141908 -0400,
,,,,,,,,,,,,,,,,,,,,,,,,,,,,,,,,,,,,,,,,,,,,,,,,,,,,94.87131685799977,94.89250670900219,94.89250670900219,97.00400807000187,equal,2.102513933001319,None,,,,,,,,,,,,,,,,,64,001,15,,2024-04-13_12h44.24.113,replicate_nsd,2023.2.3,60.07382869212517,2024-04-13 12h44.44.141908 -0400,
images/image_110_seed_1.png,0,0,0,0,0,"[9, 19, 29, 39, 49, 59, 68, 69, 70, 71]",,,,,0,0,0,0,,,,,,,,,,,,,,,,,,,,,,,,,,,,,,,,,,,,,,,,,,,,,97.08038240600217,97.08046140399892,97.08046917500178,97.08711431800111,None,0,None,97.08801045699875,97.0880373910004,None,97.08844205599962,97.08847686599984,None,97.08887767700071,97.0889027810008,None,64,001,15,,2024-04-13_12h44.24.113,replicate_nsd,2023.2.3,60.07382869212517,2024-04-13 12h44.44.141908 -0400,
images/image_4_seed_1.png,1,0,0,0,0,"[9, 19, 29, 39, 49, 59, 68, 69, 70, 71]",,,,,0,1,1,1,,,,,,,,,,,,,,,,,,,,,,,,,,,,,,,,,,,,,,,,,,,,,97.08944659800181,97.08951174200047,97.08951794799941,97.09446373600076,None,0,None,97.09462951800015,97.09465264699975,None,97.09470414200041,97.09473190800054,None,97.09478363900052,97.09480269100095,None,64,001,15,,2024-04-13_12h44.24.113,replicate_nsd,2023.2.3,60.07382869212517,2024-04-13 12h44.44.141908 -0400,
images/image_631_seed_1.png,2,0,0,0,0,"[9, 19, 29, 39, 49, 59, 68, 69, 70, 71]",,,,,0,2,2,2,,,,,,,,,,,,,,,,,,,,,,,,,,,,,,,,,,,,,,,,,,,,,97.09498840300148,97.0950863040016,97.095092956999,97.099096973001,None,0,None,97.09925795900199,97.09928019799918,None,97.09933117699984,97.09936559999915,None,97.09941777600034,97.0994368640022,None,64,001,15,,2024-04-13_12h44.24.113,replicate_nsd,2023.2.3,60.07382869212517,2024-04-13 12h44.44.141908 -0400,
images/image_508_seed_1.png,3,0,0,0,0,"[9, 19, 29, 39, 49, 59, 68, 69, 70, 71]",,,,,0,3,3,3,,,,,,,,,,,,,,,,,,,,,,,,,,,,,,,,,,,,,,,,,,,,,97.09961410200049,97.09967083499942,97.09967699900153,97.10388156300178,None,0,None,97.10404623900104,97.10406863699973,None,97.10412001700024,97.10414710500118,None,97.10419797800205,97.10421682200104,None,64,001,15,,2024-04-13_12h44.24.113,replicate_nsd,2023.2.3,60.07382869212517,2024-04-13 12h44.44.141908 -0400,
images/image_680_seed_1.png,4,0,0,0,0,"[9, 19, 29, 39, 49, 59, 68, 69, 70, 71]",,,,,0,4,4,4,,,,,,,,,,,,,,,,,,,,,,,,,,,,,,,,,,,,,,,,,,,,,97.10438488699947,97.1044423989988,97.10444826700041,97.11025682300169,None,0,None,97.11041886800012,97.11044082599983,None,97.11049140600153,97.11051861600208,None,97.1105688409989,97.11058746799972,None,64,001,15,,2024-04-13_12h44.24.113,replicate_nsd,2023.2.3,60.07382869212517,2024-04-13 12h44.44.141908 -0400,
images/image_167_seed_1.png,5,0,0,0,0,"[9, 19, 29, 39, 49, 59, 68, 69, 70, 71]",,,,,0,5,5,5,,,,,,,,,,,,,,,,,,,,,,,,,,,,,,,,,,,,,,,,,,,,,97.11075447799885,97.11081330800153,97.11081933899914,97.1150458129996,None,0,None,97.1152017400018,97.11522360000163,None,97.11527412700161,97.1153004480002,None,97.11535025600097,97.1153687670012,None,64,001,15,,2024-04-13_12h44.24.113,replicate_nsd,2023.2.3,60.07382869212517,2024-04-13 12h44.44.141908 -0400,
images/image_102_seed_1.png,6,0,0,0,0,"[9, 19, 29, 39, 49, 59, 68, 69, 70, 71]",,,,,0,6,6,6,,,,,,,,,,,,,,,,,,,,,,,,,,,,,,,,,,,,,,,,,,,,,97.1155345119987,97.115591193,97.1155972460001,97.11959490600202,None,0,None,97.1197505780001,97.11977241800196,None,97.11982266099949,97.11984868999934,None,97.11989918600011,97.11991740099984,None,64,001,15,,2024-04-13_12h44.24.113,replicate_nsd,2023.2.3,60.07382869212517,2024-04-13 12h44.44.141908 -0400,
images/image_12_seed_1.png,7,0,0,0,0,"[9, 19, 29, 39, 49, 59, 68, 69, 70, 71]",,,,,0,7,7,7,,,,,,,,,,,,,,,,,,,,,,,,,,,,,,,,,,,,,,,,,,,,,97.12008247099948,97.12013838799976,97.12014446800094,97.12450256699958,None,0,None,97.12465885400161,97.12468011199962,None,97.12472979300219,97.12475543799883,None,97.12480569499894,97.12482430800083,None,64,001,15,,2024-04-13_12h44.24.113,replicate_nsd,2023.2.3,60.07382869212517,2024-04-13 12h44.44.141908 -0400,
images/image_382_seed_1.png,8,0,0,0,0,"[9, 19, 29, 39, 49, 59, 68, 69, 70, 71]",,,,,0,8,8,8,,,,,,,,,,,,,,,,,,,,,,,,,,,,,,,,,,,,,,,,,,,,,97.12498740500087,97.12504381300096,97.12504980599988,97.12921610700141,None,0,None,97.12937375800175,97.12939584899868,None,97.12944595099907,97.12947256299958,None,97.12952323400168,97.12954168600118,None,64,001,15,,2024-04-13_12h44.24.113,replicate_nsd,2023.2.3,60.07382869212517,2024-04-13 12h44.44.141908 -0400,
blank.jpg,9,1,0,0,0,"[9, 19, 29, 39, 49, 59, 68, 69, 70, 71]",,,,,0,9,9,9,,,,,,,,,,,,,,,,,,,,,,,,,,,,,,,,,,,,,,,,,,,,,97.12971039400145,97.12976670100034,97.12977258400133,97.13157856999896,None,0,None,97.13173941000059,97.13176166099947,None,97.13181298700147,97.1318397670002,None,97.13189107600192,97.131910013999,None,64,001,15,,2024-04-13_12h44.24.113,replicate_nsd,2023.2.3,60.07382869212517,2024-04-13 12h44.44.141908 -0400,
images/image_608_seed_1.png,10,0,0,0,0,"[9, 19, 29, 39, 49, 59, 68, 69, 70, 71]",,,,,0,10,10,10,,,,,,,,,,,,,,,,,,,,,,,,,,,,,,,,,,,,,,,,,,,,,97.13207792899993,97.13213464799992,97.13214079300087,97.13595977699879,None,0,None,97.13611758900151,97.13613971599989,None,97.13619040499907,97.13621678699928,None,97.13626798699988,97.13628663700001,None,64,001,15,,2024-04-13_12h44.24.113,replicate_nsd,2023.2.3,60.07382869212517,2024-04-13 12h44.44.141908 -0400,
images/image_749_seed_1.png,11,0,0,0,0,"[9, 19, 29, 39, 49, 59, 68, 69, 70, 71]",,,,,0,11,11,11,,,,,,,,,,,,,,,,,,,,,,,,,,,,,,,,,,,,,,,,,,,,,97.13645893500143,97.13651663400015,97.13652282000112,97.14151549099915,None,0,None,97.14167699099926,97.1416989040008,None,97.1417496009999,97.14177588299935,None,97.14182706399879,97.14184599900182,None,64,001,15,,2024-04-13_12h44.24.113,replicate_nsd,2023.2.3,60.07382869212517,2024-04-13 12h44.44.141908 -0400,
images/image_128_seed_1.png,12,0,0,0,0,"[9, 19, 29, 39, 49, 59, 68, 69, 70, 71]",,,,,0,12,12,12,,,,,,,,,,,,,,,,,,,,,,,,,,,,,,,,,,,,,,,,,,,,,97.14202076899892,97.14207916899977,97.14208544099893,97.14608451399909,None,0,None,97.14624091199948,97.14626365400181,None,97.14631338500112,97.14633950999996,None,97.14638984400153,97.14640847899864,None,64,001,15,,2024-04-13_12h44.24.113,replicate_nsd,2023.2.3,60.07382869212517,2024-04-13 12h44.44.141908 -0400,
images/image_264_seed_1.png,13,0,0,0,0,"[9, 19, 29, 39, 49, 59, 68, 69, 70, 71]",,,,,0,13,13,13,,,,,,,,,,,,,,,,,,,,,,,,,,,,,,,,,,,,,,,,,,,,,97.14657957600139,97.14663688899964,97.14664302500023,97.15052499599915,None,0,None,97.1506817949994,97.15070360900063,None,97.15075341099873,97.15077894500064,None,97.15082847699887,97.15084670099895,None,64,001,15,,2024-04-13_12h44.24.113,replicate_nsd,2023.2.3,60.07382869212517,2024-04-13 12h44.44.141908 -0400,
images/image_59_seed_1.png,14,0,0,0,0,"[9, 19, 29, 39, 49, 59, 68, 69, 70, 71]",,,,,0,14,14,14,,,,,,,,,,,,,,,,,,,,,,,,,,,,,,,,,,,,,,,,,,,,,97.15100934699876,97.15106380400175,97.1510696639998,97.1548247440005,None,0,None,97.15497923200019,97.15500114400129,None,97.15505140900132,97.15507813799923,None,97.15512847300124,97.15515223900002,None,64,001,15,,2024-04-13_12h44.24.113,replicate_nsd,2023.2.3,60.07382869212517,2024-04-13 12h44.44.141908 -0400,
images/image_23_seed_1.png,15,0,0,0,0,"[9, 19, 29, 39, 49, 59, 68, 69, 70, 71]",,,,,0,15,15,15,,,,,,,,,,,,,,,,,,,,,,,,,,,,,,,,,,,,,,,,,,,,,97.15531866500169,97.1553848270014,97.15539096599969,97.15976041500107,None,0,None,97.15991640100037,97.15993827800048,None,97.15998828599913,97.16001574500115,None,97.16006661500069,97.16008538900132,None,64,001,15,,2024-04-13_12h44.24.113,replicate_nsd,2023.2.3,60.07382869212517,2024-04-13 12h44.44.141908 -0400,
images/image_686_seed_1.png,16,0,0,0,0,"[9, 19, 29, 39, 49, 59, 68, 69, 70, 71]",,,,,0,16,16,16,,,,,,,,,,,,,,,,,,,,,,,,,,,,,,,,,,,,,,,,,,,,,97.16025010800149,97.16030738799964,97.16031337299864,97.16451054299978,None,0,None,97.16466750700056,97.16468931800046,None,97.16474038199885,97.1647668350015,None,97.16482347800047,97.16484244499952,None,64,001,15,,2024-04-13_12h44.24.113,replicate_nsd,2023.2.3,60.07382869212517,2024-04-13 12h44.44.141908 -0400,
images/image_79_seed_1.png,17,0,0,0,0,"[9, 19, 29, 39, 49, 59, 68, 69, 70, 71]",,,,,0,17,17,17,,,,,,,,,,,,,,,,,,,,,,,,,,,,,,,,,,,,,,,,,,,,,97.16500710900073,97.16506334600126,97.16506936199949,97.16901461900125,None,0,None,97.16917286100215,97.16919515900008,None,97.16924639300123,97.16927320100149,None,97.16932457599978,97.16934481200224,None,64,001,15,,2024-04-13_12h44.24.113,replicate_nsd,2023.2.3,60.07382869212517,2024-04-13 12h44.44.141908 -0400,
images/image_422_seed_1.png,18,0,0,0,0,"[9, 19, 29, 39, 49, 59, 68, 69, 70, 71]",,,,,0,18,18,18,,,,,,,,,,,,,,,,,,,,,,,,,,,,,,,,,,,,,,,,,,,,,97.16951246399913,97.16956945100173,97.16957563799951,97.17404957300096,None,0,None,97.17421289000049,97.17423553200206,None,97.17428731399923,97.17431430500073,None,97.17437206199975,97.17439132900108,None,64,001,15,,2024-04-13_12h44.24.113,replicate_nsd,2023.2.3,60.07382869212517,2024-04-13 12h44.44.141908 -0400,
blank.jpg,19,1,0,0,0,"[9, 19, 29, 39, 49, 59, 68, 69, 70, 71]",,,,,0,19,19,19,,,,,,,,,,,,,,,,,,,,,,,,,,,,,,,,,,,,,,,,,,,,,97.17456050500186,97.17461799000012,97.1746241059991,97.17628253500152,None,0,None,97.17644632700103,97.17646871000034,None,97.17652079700201,97.17654840799878,None,97.17660033200082,97.17661948200112,None,64,001,15,,2024-04-13_12h44.24.113,replicate_nsd,2023.2.3,60.07382869212517,2024-04-13 12h44.44.141908 -0400,
images/image_191_seed_1.png,20,0,0,0,0,"[9, 19, 29, 39, 49, 59, 68, 69, 70, 71]",,,,,0,20,20,20,,,,,,,,,,,,,,,,,,,,,,,,,,,,,,,,,,,,,,,,,,,,,97.17679002699879,97.17684800400093,97.17685419400004,97.18108667900015,None,0,None,97.1812506669994,97.18127280599947,None,97.18132997700013,97.18135745100153,None,97.18140982600016,97.1814290379989,None,64,001,15,,2024-04-13_12h44.24.113,replicate_nsd,2023.2.3,60.07382869212517,2024-04-13 12h44.44.141908 -0400,
images/image_519_seed_1.png,21,0,0,0,0,"[9, 19, 29, 39, 49, 59, 68, 69, 70, 71]",,,,,0,21,21,21,,,,,,,,,,,,,,,,,,,,,,,,,,,,,,,,,,,,,,,,,,,,,97.18160378000175,97.18166178500178,97.18166797700178,97.18580305599971,None,0,None,97.18596441800037,97.18598679999923,None,97.1860382340019,97.1860648059992,None,97.18611658499867,97.18613558300058,None,64,001,15,,2024-04-13_12h44.24.113,replicate_nsd,2023.2.3,60.07382869212517,2024-04-13 12h44.44.141908 -0400,
images/image_728_seed_1.png,22,0,0,0,0,"[9, 19, 29, 39, 49, 59, 68, 69, 70, 71]",,,,,0,22,22,22,,,,,,,,,,,,,,,,,,,,,,,,,,,,,,,,,,,,,,,,,,,,,97.1863044160018,97.18636233199868,97.18636840099862,97.190292588999,None,0,None,97.1904506940009,97.19047250899894,None,97.19052290599939,97.19054914899971,None,97.19059969800219,97.1906178600002,None,64,001,15,,2024-04-13_12h44.24.113,replicate_nsd,2023.2.3,60.07382869212517,2024-04-13 12h44.44.141908 -0400,
images/image_306_seed_1.png,23,0,0,0,0,"[9, 19, 29, 39, 49, 59, 68, 69, 70, 71]",,,,,0,23,23,23,,,,,,,,,,,,,,,,,,,,,,,,,,,,,,,,,,,,,,,,,,,,,97.1907891769988,97.19084604399904,97.19085220399938,97.19549581500178,None,0,None,97.19567093799924,97.19569469700218,None,97.19574834599916,97.19577752999976,None,97.19583073499962,97.19585033900148,None,64,001,15,,2024-04-13_12h44.24.113,replicate_nsd,2023.2.3,60.07382869212517,2024-04-13 12h44.44.141908 -0400,
images/image_689_seed_1.png,24,0,0,0,0,"[9, 19, 29, 39, 49, 59, 68, 69, 70, 71]",,,,,0,24,24,24,,,,,,,,,,,,,,,,,,,,,,,,,,,,,,,,,,,,,,,,,,,,,97.19614996499877,97.19629541900213,97.1963018259994,97.20119666200117,None,0,None,97.20137820799937,97.20140231900223,None,97.20145638400209,97.20148755300033,None,97.20154165500207,97.20156180599952,None,64,001,15,,2024-04-13_12h44.24.113,replicate_nsd,2023.2.3,60.07382869212517,2024-04-13 12h44.44.141908 -0400,
images/image_3_seed_1.png,25,0,0,0,0,"[9, 19, 29, 39, 49, 59, 68, 69, 70, 71]",,,,,0,25,25,25,,,,,,,,,,,,,,,,,,,,,,,,,,,,,,,,,,,,,,,,,,,,,97.20174624699939,97.20181456000137,97.2018207330002,97.20705627899952,None,0,None,97.20722607700009,97.20724868099933,None,97.20729944200139,97.20733030699921,None,97.2073821390004,97.20740161600042,None,64,001,15,,2024-04-13_12h44.24.113,replicate_nsd,2023.2.3,60.07382869212517,2024-04-13 12h44.44.141908 -0400,
images/image_486_seed_1.png,26,0,0,0,0,"[9, 19, 29, 39, 49, 59, 68, 69, 70, 71]",,,,,0,26,26,26,,,,,,,,,,,,,,,,,,,,,,,,,,,,,,,,,,,,,,,,,,,,,97.20757547600078,97.20763895900018,97.20764481900187,97.21290100600163,None,0,None,97.21318756899927,97.21324049100076,None,97.21337191500061,97.21340120700188,None,97.21353541799908,97.2135575780012,None,64,001,15,,2024-04-13_12h44.24.113,replicate_nsd,2023.2.3,60.07382869212517,2024-04-13 12h44.44.141908 -0400,
images/image_358_seed_1.png,27,0,0,0,0,"[9, 19, 29, 39, 49, 59, 68, 69, 70, 71]",,,,,0,27,27,27,,,,,,,,,,,,,,,,,,,,,,,,,,,,,,,,,,,,,,,,,,,,,97.2139141560001,97.21401038800104,97.21401729100035,97.21884120500181,None,0,None,97.21899963499891,97.21902178600067,None,97.2190726350018,97.21909896899888,None,97.21914923200166,97.21916776899889,None,64,001,15,,2024-04-13_12h44.24.113,replicate_nsd,2023.2.3,60.07382869212517,2024-04-13 12h44.44.141908 -0400,
images/image_293_seed_1.png,28,0,0,0,0,"[9, 19, 29, 39, 49, 59, 68, 69, 70, 71]",,,,,0,28,28,28,,,,,,,,,,,,,,,,,,,,,,,,,,,,,,,,,,,,,,,,,,,,,97.21933515600176,97.2193957620002,97.21940167900175,97.22373549099939,None,0,None,97.22389152799951,97.22391308100123,None,97.2239639440013,97.22399086500081,None,97.22404058000029,97.22405909599911,None,64,001,15,,2024-04-13_12h44.24.113,replicate_nsd,2023.2.3,60.07382869212517,2024-04-13 12h44.44.141908 -0400,
blank.jpg,29,1,0,0,0,"[9, 19, 29, 39, 49, 59, 68, 69, 70, 71]",,,,,0,29,29,29,,,,,,,,,,,,,,,,,,,,,,,,,,,,,,,,,,,,,,,,,,,,,97.22422282800107,97.22428460200172,97.2242906979991,97.22604322999905,None,0,None,97.22620113599987,97.22622320699884,None,97.22627341000043,97.22629954600052,None,97.22635026900025,97.22636853400036,None,64,001,15,,2024-04-13_12h44.24.113,replicate_nsd,2023.2.3,60.07382869212517,2024-04-13 12h44.44.141908 -0400,
images/image_609_seed_1.png,30,0,0,0,0,"[9, 19, 29, 39, 49, 59, 68, 69, 70, 71]",,,,,0,30,30,30,,,,,,,,,,,,,,,,,,,,,,,,,,,,,,,,,,,,,,,,,,,,,97.2265332240022,97.22658941500049,97.22659538199878,97.23115324800165,None,0,None,97.23131123500207,97.23133328699987,None,97.23138384599952,97.23140980500102,None,97.23146025000096,97.23147881499972,None,64,001,15,,2024-04-13_12h44.24.113,replicate_nsd,2023.2.3,60.07382869212517,2024-04-13 12h44.44.141908 -0400,
images/image_645_seed_1.png,31,0,0,0,0,"[9, 19, 29, 39, 49, 59, 68, 69, 70, 71]",,,,,0,31,31,31,,,,,,,,,,,,,,,,,,,,,,,,,,,,,,,,,,,,,,,,,,,,,97.23164289800116,97.23169887599943,97.23170481299894,97.23633988599977,None,0,None,97.23649759800173,97.23651920699922,None,97.23656950499935,97.2365953970002,None,97.23664567400192,97.23666905000209,None,64,001,15,,2024-04-13_12h44.24.113,replicate_nsd,2023.2.3,60.07382869212517,2024-04-13 12h44.44.141908 -0400,
images/image_118_seed_1.png,32,0,0,0,0,"[9, 19, 29, 39, 49, 59, 68, 69, 70, 71]",,,,,0,32,32,32,,,,,,,,,,,,,,,,,,,,,,,,,,,,,,,,,,,,,,,,,,,,,97.2368371679986,97.2368950070013,97.23690109400195,97.24121776299944,None,0,None,97.24147820700091,97.24152094099918,None,97.24158569700012,97.24161195700071,None,97.24166219399922,97.24168099600138,None,64,001,15,,2024-04-13_12h44.24.113,replicate_nsd,2023.2.3,60.07382869212517,2024-04-13 12h44.44.141908 -0400,
images/image_725_seed_1.png,33,0,0,0,0,"[9, 19, 29, 39, 49, 59, 68, 69, 70, 71]",,,,,0,33,33,33,,,,,,,,,,,,,,,,,,,,,,,,,,,,,,,,,,,,,,,,,,,,,97.24184727800093,97.24191094699927,97.24191692900058,97.24597330799952,None,0,None,97.24613686100201,97.24615870799971,None,97.24620953500198,97.24623586799862,None,97.24628623900207,97.24630480199994,None,64,001,15,,2024-04-13_12h44.24.113,replicate_nsd,2023.2.3,60.07382869212517,2024-04-13 12h44.44.141908 -0400,
images/image_408_seed_1.png,34,0,0,0,0,"[9, 19, 29, 39, 49, 59, 68, 69, 70, 71]",,,,,0,34,34,34,,,,,,,,,,,,,,,,,,,,,,,,,,,,,,,,,,,,,,,,,,,,,97.24647020400153,97.24652692000018,97.24653278700134,97.2512934539991,None,0,None,97.25164622000011,97.25166878700111,None,97.25177414800055,97.25185278700155,None,97.25190634500177,97.25192468800014,None,64,001,15,,2024-04-13_12h44.24.113,replicate_nsd,2023.2.3,60.07382869212517,2024-04-13 12h44.44.141908 -0400,
images/image_218_seed_1.png,35,0,0,0,0,"[9, 19, 29, 39, 49, 59, 68, 69, 70, 71]",,,,,0,35,35,35,,,,,,,,,,,,,,,,,,,,,,,,,,,,,,,,,,,,,,,,,,,,,97.25209513400114,97.25215390399899,97.2521595870021,97.25666129599995,None,0,None,97.25682578600026,97.25684791000094,None,97.25690241200209,97.2569287740007,None,97.2569795950003,97.25699830200028,None,64,001,15,,2024-04-13_12h44.24.113,replicate_nsd,2023.2.3,60.07382869212517,2024-04-13 12h44.44.141908 -0400,
images/image_62_seed_1.png,36,0,0,0,0,"[9, 19, 29, 39, 49, 59, 68, 69, 70, 71]",,,,,0,36,36,36,,,,,,,,,,,,,,,,,,,,,,,,,,,,,,,,,,,,,,,,,,,,,97.25716725199891,97.25722483600111,97.25723089999883,97.26146630000221,None,0,None,97.26162943799864,97.26165174000198,None,97.2617016410004,97.261728690999,None,97.26177895100045,97.2617978720009,None,64,001,15,,2024-04-13_12h44.24.113,replicate_nsd,2023.2.3,60.07382869212517,2024-04-13 12h44.44.141908 -0400,
images/image_555_seed_1.png,37,0,0,0,0,"[9, 19, 29, 39, 49, 59, 68, 69, 70, 71]",,,,,0,37,37,37,,,,,,,,,,,,,,,,,,,,,,,,,,,,,,,,,,,,,,,,,,,,,97.26196399200126,97.26202749799995,97.26203362800152,97.26623107900014,None,0,None,97.2663894440011,97.26641115999882,None,97.2664613449997,97.26648771200053,None,97.26653802999863,97.26655673999994,None,64,001,15,,2024-04-13_12h44.24.113,replicate_nsd,2023.2.3,60.07382869212517,2024-04-13 12h44.44.141908 -0400,
images/image_625_seed_1.png,38,0,0,0,0,"[9, 19, 29, 39, 49, 59, 68, 69, 70, 71]",,,,,0,38,38,38,,,,,,,,,,,,,,,,,,,,,,,,,,,,,,,,,,,,,,,,,,,,,97.26672367900028,97.26678126600018,97.26678716099923,97.27104793200124,None,0,None,97.2712059910009,97.27122796099866,None,97.27127880300031,97.2713052370018,None,97.27135612599886,97.2713748189999,None,64,001,15,,2024-04-13_12h44.24.113,replicate_nsd,2023.2.3,60.07382869212517,2024-04-13 12h44.44.141908 -0400,
blank.jpg,39,1,0,0,0,"[9, 19, 29, 39, 49, 59, 68, 69, 70, 71]",,,,,0,39,39,39,,,,,,,,,,,,,,,,,,,,,,,,,,,,,,,,,,,,,,,,,,,,,97.27154502600024,97.27160175400059,97.27160775499942,97.27331875100208,None,0,None,97.27347750199988,97.2734994780003,None,97.27355011500185,97.27357680099885,None,97.27366183800041,97.273681425002,None,64,001,15,,2024-04-13_12h44.24.113,replicate_nsd,2023.2.3,60.07382869212517,2024-04-13 12h44.44.141908 -0400,
images/image_223_seed_1.png,40,0,0,0,0,"[9, 19, 29, 39, 49, 59, 68, 69, 70, 71]",,,,,0,40,40,40,,,,,,,,,,,,,,,,,,,,,,,,,,,,,,,,,,,,,,,,,,,,,97.27384923299905,97.27390603800086,97.27391190100025,97.27813111100113,None,0,None,97.27828959600083,97.27831160600181,None,97.27836229700188,97.27838831899862,None,97.27843919099905,97.27845779899872,None,64,001,15,,2024-04-13_12h44.24.113,replicate_nsd,2023.2.3,60.07382869212517,2024-04-13 12h44.44.141908 -0400,
images/image_338_seed_1.png,41,0,0,0,0,"[9, 19, 29, 39, 49, 59, 68, 69, 70, 71]",,,,,0,41,41,41,,,,,,,,,,,,,,,,,,,,,,,,,,,,,,,,,,,,,,,,,,,,,97.27862274899962,97.27868070100158,97.27868674600177,97.28287303700199,None,0,None,97.28303820099973,97.28305983199971,None,97.28310988800149,97.28313584900025,None,97.28319033099979,97.28320925400112,None,64,001,15,,2024-04-13_12h44.24.113,replicate_nsd,2023.2.3,60.07382869212517,2024-04-13 12h44.44.141908 -0400,
images/image_628_seed_1.png,42,0,0,0,0,"[9, 19, 29, 39, 49, 59, 68, 69, 70, 71]",,,,,0,42,42,42,,,,,,,,,,,,,,,,,,,,,,,,,,,,,,,,,,,,,,,,,,,,,97.28337451699917,97.28343161999874,97.28343763500015,97.28747085000214,None,0,None,97.28762320500027,97.2876442980014,None,97.2876930579987,97.2877184200006,None,97.28776794499936,97.28778605200205,None,64,001,15,,2024-04-13_12h44.24.113,replicate_nsd,2023.2.3,60.07382869212517,2024-04-13 12h44.44.141908 -0400,
images/image_165_seed_1.png,43,0,0,0,0,"[9, 19, 29, 39, 49, 59, 68, 69, 70, 71]",,,,,0,43,43,43,,,,,,,,,,,,,,,,,,,,,,,,,,,,,,,,,,,,,,,,,,,,,97.28795474300205,97.28801118800038,97.28801724000004,97.2919992979987,None,0,None,97.29215635199944,97.29217769000024,None,97.29222831700099,97.29225485899951,None,97.29230876200018,97.2923273330016,None,64,001,15,,2024-04-13_12h44.24.113,replicate_nsd,2023.2.3,60.07382869212517,2024-04-13 12h44.44.141908 -0400,
images/image_247_seed_1.png,44,0,0,0,0,"[9, 19, 29, 39, 49, 59, 68, 69, 70, 71]",,,,,0,44,44,44,,,,,,,,,,,,,,,,,,,,,,,,,,,,,,,,,,,,,,,,,,,,,97.29251059099988,97.29256796200207,97.29257400400093,97.29673774000184,None,0,None,97.29689698500079,97.29691894500138,None,97.29696914500164,97.2969951970008,None,97.29704585999934,97.29706451099992,None,64,001,15,,2024-04-13_12h44.24.113,replicate_nsd,2023.2.3,60.07382869212517,2024-04-13 12h44.44.141908 -0400,
images/image_517_seed_1.png,45,0,0,0,0,"[9, 19, 29, 39, 49, 59, 68, 69, 70, 71]",,,,,0,45,45,45,,,,,,,,,,,,,,,,,,,,,,,,,,,,,,,,,,,,,,,,,,,,,97.29723022300095,97.29728628000157,97.2972921469991,97.30150278699875,None,0,None,97.30166326499966,97.30168510300064,None,97.30173556500085,97.30176239299908,None,97.30181289800021,97.30183151900201,None,64,001,15,,2024-04-13_12h44.24.113,replicate_nsd,2023.2.3,60.07382869212517,2024-04-13 12h44.44.141908 -0400,
images/image_498_seed_1.png,46,0,0,0,0,"[9, 19, 29, 39, 49, 59, 68, 69, 70, 71]",,,,,0,46,46,46,,,,,,,,,,,,,,,,,,,,,,,,,,,,,,,,,,,,,,,,,,,,,97.30199810900012,97.30205460200159,97.3020606329992,97.30628984600116,None,0,None,97.3064484839997,97.3064700540017,None,97.30652095500045,97.30654727799993,None,97.30659784599993,97.30661641299957,None,64,001,15,,2024-04-13_12h44.24.113,replicate_nsd,2023.2.3,60.07382869212517,2024-04-13 12h44.44.141908 -0400,
images/image_557_seed_1.png,47,0,0,0,0,"[9, 19, 29, 39, 49, 59, 68, 69, 70, 71]",,,,,0,47,47,47,,,,,,,,,,,,,,,,,,,,,,,,,,,,,,,,,,,,,,,,,,,,,97.30678253700171,97.30683851600043,97.3068445070021,97.31205913500162,None,0,None,97.31223471400153,97.31225746800192,None,97.31230965299983,97.31233902999884,None,97.3123911549992,97.31241027500073,None,64,001,15,,2024-04-13_12h44.24.113,replicate_nsd,2023.2.3,60.07382869212517,2024-04-13 12h44.44.141908 -0400,
images/image_607_seed_1.png,48,0,0,0,0,"[9, 19, 29, 39, 49, 59, 68, 69, 70, 71]",,,,,0,48,48,48,,,,,,,,,,,,,,,,,,,,,,,,,,,,,,,,,,,,,,,,,,,,,97.31263628500164,97.31269950299975,97.31270538299941,97.3173473579991,None,0,None,97.31752413499999,97.31754650000221,None,97.31762965999951,97.31765843800167,None,97.31771178700001,97.31773254600193,None,64,001,15,,2024-04-13_12h44.24.113,replicate_nsd,2023.2.3,60.07382869212517,2024-04-13 12h44.44.141908 -0400,
blank.jpg,49,1,0,0,0,"[9, 19, 29, 39, 49, 59, 68, 69, 70, 71]",,,,,0,49,49,49,,,,,,,,,,,,,,,,,,,,,,,,,,,,,,,,,,,,,,,,,,,,,97.3179128849988,97.3180640440005,97.31808648199876,97.32061615600105,None,0,None,97.3207875980006,97.32081041299898,None,97.32086350100144,97.32089178000024,None,97.32094514599885,97.32096470400211,None,64,001,15,,2024-04-13_12h44.24.113,replicate_nsd,2023.2.3,60.07382869212517,2024-04-13 12h44.44.141908 -0400,
images/image_568_seed_1.png,50,0,0,0,0,"[9, 19, 29, 39, 49, 59, 68, 69, 70, 71]",,,,,0,50,50,50,,,,,,,,,,,,,,,,,,,,,,,,,,,,,,,,,,,,,,,,,,,,,97.32114671800082,97.32123721600146,97.32124385100178,97.32628291700166,None,0,None,97.32647129999896,97.32651992500178,None,97.32659273399986,97.32662285900005,None,97.326677568999,97.32669783700112,None,64,001,15,,2024-04-13_12h44.24.113,replicate_nsd,2023.2.3,60.07382869212517,2024-04-13 12h44.44.141908 -0400,
images/image_565_seed_1.png,51,0,0,0,0,"[9, 19, 29, 39, 49, 59, 68, 69, 70, 71]",,,,,0,51,51,51,,,,,,,,,,,,,,,,,,,,,,,,,,,,,,,,,,,,,,,,,,,,,97.32688523999968,97.3269813859988,97.3270048129998,97.33242906500163,None,0,None,97.33261800400214,97.33264267399863,None,97.33270446000097,97.33273515600013,None,97.33278833900113,97.33280840500083,None,64,001,15,,2024-04-13_12h44.24.113,replicate_nsd,2023.2.3,60.07382869212517,2024-04-13 12h44.44.141908 -0400,
images/image_357_seed_1.png,52,0,0,0,0,"[9, 19, 29, 39, 49, 59, 68, 69, 70, 71]",,,,,0,52,52,52,,,,,,,,,,,,,,,,,,,,,,,,,,,,,,,,,,,,,,,,,,,,,97.33304535899879,97.3332088040006,97.33321471800082,97.33886951100067,None,0,None,97.33925557700059,97.33928028200171,None,97.3393944519994,97.33945532600046,None,97.33950478000042,97.33952377099922,None,64,001,15,,2024-04-13_12h44.24.113,replicate_nsd,2023.2.3,60.07382869212517,2024-04-13 12h44.44.141908 -0400,
images/image_632_seed_1.png,53,0,0,0,0,"[9, 19, 29, 39, 49, 59, 68, 69, 70, 71]",,,,,0,53,53,53,,,,,,,,,,,,,,,,,,,,,,,,,,,,,,,,,,,,,,,,,,,,,97.33970000400222,97.33982719399864,97.33983373700175,97.34422937999989,None,0,None,97.34440875699875,97.34443208499943,None,97.34450110000034,97.3445304880006,None,97.34458535399972,97.34460622700135,None,64,001,15,,2024-04-13_12h44.24.113,replicate_nsd,2023.2.3,60.07382869212517,2024-04-13 12h44.44.141908 -0400,
images/image_348_seed_1.png,54,0,0,0,0,"[9, 19, 29, 39, 49, 59, 68, 69, 70, 71]",,,,,0,54,54,54,,,,,,,,,,,,,,,,,,,,,,,,,,,,,,,,,,,,,,,,,,,,,97.3447976230018,97.3448702659989,97.34487672099931,97.34964710699933,None,0,None,97.34983536399886,97.34986122099872,None,97.3499209900001,97.34995294799955,None,97.35001237500182,97.35003495099954,None,64,001,15,,2024-04-13_12h44.24.113,replicate_nsd,2023.2.3,60.07382869212517,2024-04-13 12h44.44.141908 -0400,
images/image_554_seed_1.png,55,0,0,0,0,"[9, 19, 29, 39, 49, 59, 68, 69, 70, 71]",,,,,0,55,55,55,,,,,,,,,,,,,,,,,,,,,,,,,,,,,,,,,,,,,,,,,,,,,97.35023469600128,97.35030507600095,97.3503120489986,97.35503874300048,None,0,None,97.35522887200204,97.35525477600095,None,97.35531440100021,97.35534705100144,None,97.35540704700179,97.35542948199873,None,64,001,15,,2024-04-13_12h44.24.113,replicate_nsd,2023.2.3,60.07382869212517,2024-04-13 12h44.44.141908 -0400,
images/image_133_seed_1.png,56,0,0,0,0,"[9, 19, 29, 39, 49, 59, 68, 69, 70, 71]",,,,,0,56,56,56,,,,,,,,,,,,,,,,,,,,,,,,,,,,,,,,,,,,,,,,,,,,,97.3556290359993,97.35569767500056,97.355704763002,97.36046513399924,None,0,None,97.36067032800202,97.36069738199876,None,97.36075849600093,97.36079118899943,None,97.36085202400136,97.36087516200132,None,64,001,15,,2024-04-13_12h44.24.113,replicate_nsd,2023.2.3,60.07382869212517,2024-04-13 12h44.44.141908 -0400,
images/image_309_seed_1.png,57,0,0,0,0,"[9, 19, 29, 39, 49, 59, 68, 69, 70, 71]",,,,,0,57,57,57,,,,,,,,,,,,,,,,,,,,,,,,,,,,,,,,,,,,,,,,,,,,,97.36108386200067,97.36116964200119,97.36117719599861,97.36534156000198,None,0,None,97.36555574999875,97.36558406100085,None,97.36564846699912,97.36568402400007,None,97.36574646200097,97.36577006900188,None,64,001,15,,2024-04-13_12h44.24.113,replicate_nsd,2023.2.3,60.07382869212517,2024-04-13 12h44.44.141908 -0400,
images/image_303_seed_1.png,58,0,0,0,0,"[9, 19, 29, 39, 49, 59, 68, 69, 70, 71]",,,,,0,58,58,58,,,,,,,,,,,,,,,,,,,,,,,,,,,,,,,,,,,,,,,,,,,,,97.365985679,97.36606609500086,97.36607375099993,97.37118389199895,None,0,None,97.37140353200084,97.37143059799928,None,97.37149295299969,97.37152674800018,None,97.37158857400209,97.3716125050014,None,64,001,15,,2024-04-13_12h44.24.113,replicate_nsd,2023.2.3,60.07382869212517,2024-04-13 12h44.44.141908 -0400,
blank.jpg,59,1,0,0,0,"[9, 19, 29, 39, 49, 59, 68, 69, 70, 71]",,,,,0,59,59,59,,,,,,,,,,,,,,,,,,,,,,,,,,,,,,,,,,,,,,,,,,,,,97.37182415999996,97.3719052560009,97.3719126879987,97.37390534199949,None,0,None,97.37410540800192,97.37413354900127,None,97.3741957150014,97.37423005800156,None,97.37429173900091,97.37431504399865,None,64,001,15,,2024-04-13_12h44.24.113,replicate_nsd,2023.2.3,60.07382869212517,2024-04-13 12h44.44.141908 -0400,
images/image_437_seed_1.png,60,0,0,0,0,"[9, 19, 29, 39, 49, 59, 68, 69, 70, 71]",,,,,0,60,60,60,,,,,,,,,,,,,,,,,,,,,,,,,,,,,,,,,,,,,,,,,,,,,97.37452308600041,97.37460241000008,97.37460964400088,97.3803756640009,None,0,None,97.38067399699867,97.3807139950004,None,97.38079949700114,97.38084715700097,None,97.38093401000151,97.38096711199978,None,64,001,15,,2024-04-13_12h44.24.113,replicate_nsd,2023.2.3,60.07382869212517,2024-04-13 12h44.44.141908 -0400,
images/image_168_seed_1.png,61,0,0,0,0,"[9, 19, 29, 39, 49, 59, 68, 69, 70, 71]",,,,,0,61,61,61,,,,,,,,,,,,,,,,,,,,,,,,,,,,,,,,,,,,,,,,,,,,,97.38126600900068,97.38137817700044,97.38138858000093,97.38657780599897,None,0,None,97.38684139000179,97.3868787149986,None,97.38696432399956,97.38701068800219,None,97.38709671700053,97.3871293250013,None,64,001,15,,2024-04-13_12h44.24.113,replicate_nsd,2023.2.3,60.07382869212517,2024-04-13 12h44.44.141908 -0400,
images/image_122_seed_1.png,62,0,0,0,0,"[9, 19, 29, 39, 49, 59, 68, 69, 70, 71]",,,,,0,62,62,62,,,,,,,,,,,,,,,,,,,,,,,,,,,,,,,,,,,,,,,,,,,,,97.3874201380022,97.387521724002,97.38753199500206,97.39214463200187,None,0,None,97.39240719499867,97.39244353599861,None,97.392537300002,97.3925829079999,None,97.39266882000084,97.39270071300052,None,64,001,15,,2024-04-13_12h44.24.113,replicate_nsd,2023.2.3,60.07382869212517,2024-04-13 12h44.44.141908 -0400,
images/image_537_seed_1.png,63,0,0,0,0,"[9, 19, 29, 39, 49, 59, 68, 69, 70, 71]",,,,,0,63,63,63,,,,,,,,,,,,,,,,,,,,,,,,,,,,,,,,,,,,,,,,,,,,,97.39299043800202,97.39309136999873,97.39310165200004,97.39851756500138,None,0,None,97.39878315700116,97.39882109999962,None,97.39890610300063,97.39895186099966,None,97.39903752700047,97.39906961499946,None,64,001,15,,2024-04-13_12h44.24.113,replicate_nsd,2023.2.3,60.07382869212517,2024-04-13 12h44.44.141908 -0400,
images/image_270_seed_1.png,64,0,0,0,0,"[9, 19, 29, 39, 49, 59, 68, 69, 70, 71]",,,,,0,64,64,64,,,,,,,,,,,,,,,,,,,,,,,,,,,,,,,,,,,,,,,,,,,,,97.39935975100161,97.39946909599894,97.39947963600207,97.4043639570009,None,0,None,97.40457500399862,97.40460242900008,None,97.4046631400015,97.40469673400003,None,97.40475802299989,97.40478072100086,None,64,001,15,,2024-04-13_12h44.24.113,replicate_nsd,2023.2.3,60.07382869212517,2024-04-13 12h44.44.141908 -0400,
images/image_566_seed_1.png,65,0,0,0,0,"[9, 19, 29, 39, 49, 59, 68, 69, 70, 71]",,,,,0,65,65,65,,,,,,,,,,,,,,,,,,,,,,,,,,,,,,,,,,,,,,,,,,,,,97.40498854299949,97.40506384000037,97.40507075400092,97.40969990899976,None,0,None,97.40990106800018,97.4099283100004,None,97.4099899899993,97.41002349200062,None,97.41008487599902,97.41011099699972,None,64,001,15,,2024-04-13_12h44.24.113,replicate_nsd,2023.2.3,60.07382869212517,2024-04-13 12h44.44.141908 -0400,
images/image_79_seed_1.png,66,0,1,0,0,"[9, 19, 29, 39, 49, 59, 68, 69, 70, 71]",,,,,0,66,66,66,,,,,,,,,,,,,,,,,,,,,,,,,,,,,,,,,,,,,,,,,,,,,97.41032500499932,97.4104473160005,97.41045590700014,97.41412963499897,None,0,None,97.4143387389995,97.41436642299959,None,97.41442632699909,97.4144607369999,None,97.4145213260017,97.41454434200205,None,64,001,15,,2024-04-13_12h44.24.113,replicate_nsd,2023.2.3,60.07382869212517,2024-04-13 12h44.44.141908 -0400,
images/image_329_seed_1.png,67,0,0,0,0,"[9, 19, 29, 39, 49, 59, 68, 69, 70, 71]",,,,,0,67,67,67,,,,,,,,,,,,,,,,,,,,,,,,,,,,,,,,,,,,,,,,,,,,,97.41475306899883,97.41483244399933,97.41483948300083,97.41993114499928,None,0,None,97.4201313980011,97.4201585539995,None,97.4202207039998,97.42025409300186,None,97.42031599899929,97.42033908300073,None,64,001,15,,2024-04-13_12h44.24.113,replicate_nsd,2023.2.3,60.07382869212517,2024-04-13 12h44.44.141908 -0400,
blank.jpg,68,1,0,0,0,"[9, 19, 29, 39, 49, 59, 68, 69, 70, 71]",,,,,0,68,68,68,,,,,,,,,,,,,,,,,,,,,,,,,,,,,,,,,,,,,,,,,,,,,97.4205568260004,97.42063725600019,97.42064461599875,97.42259350899985,None,0,None,97.42279532300017,97.42282264200185,None,97.42288354300035,97.42291715900137,None,97.42297902399878,97.42300216900185,None,64,001,15,,2024-04-13_12h44.24.113,replicate_nsd,2023.2.3,60.07382869212517,2024-04-13 12h44.44.141908 -0400,
blank.jpg,69,1,0,0,0,"[9, 19, 29, 39, 49, 59, 68, 69, 70, 71]",,,,,0,69,69,69,,,,,,,,,,,,,,,,,,,,,,,,,,,,,,,,,,,,,,,,,,,,,97.42321232999893,97.42328995000207,97.42329690100087,97.42500650700094,None,0,None,97.42519497100147,97.42522120099966,None,97.42528196000058,97.42531382000016,None,97.42537398499917,97.42539626199869,None,64,001,15,,2024-04-13_12h44.24.113,replicate_nsd,2023.2.3,60.07382869212517,2024-04-13 12h44.44.141908 -0400,
blank.jpg,70,1,0,0,0,"[9, 19, 29, 39, 49, 59, 68, 69, 70, 71]",,,,,0,70,70,70,,,,,,,,,,,,,,,,,,,,,,,,,,,,,,,,,,,,,,,,,,,,,97.425597559999,97.42566835300022,97.42567534499904,97.4272373820022,None,0,None,97.42742156800159,97.4274476669998,None,97.42750869000156,97.42754006100222,None,97.42760006900062,97.4276228460003,None,64,001,15,,2024-04-13_12h44.24.113,replicate_nsd,2023.2.3,60.07382869212517,2024-04-13 12h44.44.141908 -0400,
,,,,,,,,,,,,,,,,,,,,,,,,,,,,,,,,,,,,,,,,,,,,,,,,,,,,,,,,,,,97.4278184979994,97.42788411899892,97.42789123500188,97.42937321199861,None,0,None,97.42956027400214,97.42958675400223,None,97.42964700100129,,,,,,,,,,,,,,,
