current_image,trial_index,is_blank_trial,is_repeat,is_new_run,run_num,all_blanks_list,practice.thisRepN,practice.thisTrialN,practice.thisN,practice.thisIndex,loop_all_images.thisRepN,loop_all_images.thisTrialN,loop_all_images.thisN,loop_all_images.thisIndex,thisRow.t,notes,set_up.started,set_up.stopped,practice_continue.started,key_resp_6.started,text_6.started,practice_continue.stopped,key_resp_6.keys,key_resp_6.rt,key_resp_6.duration,set_skips_and_correct_key_2.started,set_skips_and_correct_key_2.stopped,practice_trial.started,polygon_3.started,all_keys_pressed_2.started,image_2.started,press_if_repeat_2.started,image_2.stopped,press_if_repeat_2.stopped,polygon_3.stopped,all_keys_pressed_2.stopped,practice_trial.stopped,press_if_repeat_2.keys,press_if_repeat_2.corr,press_if_repeat_2.rt,press_if_repeat_2.duration,all_keys_pressed_2.keys,blank_trial_2.started,blank_trial_2.stopped,all_keys_pressed_2.rt,all_keys_pressed_2.duration,polygon_4.started,polygon_4.stopped,testing_continue.started,key_resp_7.started,text_7.started,testing_continue.stopped,key_resp_7.keys,key_resp_7.rt,key_resp_7.duration,waiting_fmri.started,key_resp_2.started,text_3.started,waiting_fmri.stopped,key_resp_2.keys,key_resp_2.rt,key_resp_2.duration,set_skips_and_correct_key.started,set_skips_and_correct_key.stopped,trial.started,polygon.started,all_keys_pressed.started,image.started,press_if_repeat.started,image.stopped,press_if_repeat.stopped,polygon.stopped,all_keys_pressed.stopped,trial.stopped,press_if_repeat.keys,press_if_repeat.corr,all_keys_pressed.keys,blank_trial.started,blank_trial.stopped,blank_trial_testing_keys.keys,run_wait2_2.started,run_wait2_2.stopped,key_resp_5.keys,waiting_fmri_2.started,waiting_fmri_2.stopped,key_resp_4.keys,blank_trial_testing_keys.started,polygon_2.started,blank_trial_testing_keys.stopped,polygon_2.stopped,key_resp_5.started,text_5.started,key_resp_5.rt,key_resp_5.duration,key_resp_4.started,text_4.started,key_resp_4.rt,key_resp_4.duration,press_if_repeat.rt,press_if_repeat.duration,all_keys_pressed.rt,all_keys_pressed.duration,participant,session,starting_run,,date,expName,psychopyVersion,frameRate,expStart,
,,,,,,,,,,,,,,,,,0.009555320999879768,0.00969020399998044,0.009700008999971033,0.027525310999862995,0.027525310999862995,17.850589292000222,1,17.820117002999723,None,,,,,,,,,,,,,,,,,,,,,,,,,,,,,,,,,,,,,,,,,,,,,,,,,,,,,,,,,,,,,,,,,,,,,,,,,,,,,,68,001,0,,2024-04-16_09h55.14.105,replicate_nsd,2023.2.3,59.86538931958263,2024-04-16 09h55.27.690645 -0400,
practice_images/w_boardwalk1.jpg,0,0,,,,,0,0,0,0,,,,,17.886344922000262,,,,,,,,,,,17.857238019000306,17.857325228000263,17.857334287999947,17.886344922000262,17.886344922000262,18.883556279999993,18.883556279999993,21.883682729000157,21.883682729000157,21.883682729000157,21.883682729000157,21.867773638000017,2,0,2.484071913000207,None,None,21.868772962000094,21.8688206730003,,,,,,,,,,,,,,,,,,,,,,,,,,,,,,,,,,,,,,,,,,,,,,,,,,,,,,,,,,,68,001,0,,2024-04-16_09h55.14.105,replicate_nsd,2023.2.3,59.86538931958263,2024-04-16 09h55.27.690645 -0400,
practice_images/w_boardwalk1.jpg,1,0,,,,,0,1,1,1,,,,,21.883682729000157,,,,,,,,,,,21.86910040900011,21.869217255999956,21.869228806000137,21.883682729000157,21.883682729000157,22.883330604000093,22.883330604000093,25.883732524000152,25.883732524000152,25.883732524000152,25.883732524000152,25.867855413000143,2,0,2.038508713000283,None,None,25.868444208000255,25.868487017000007,,,,,,,,,,,,,,,,,,,,,,,,,,,,,,,,,,,,,,,,,,,,,,,,,,,,,,,,,,,68,001,0,,2024-04-16_09h55.14.105,replicate_nsd,2023.2.3,59.86538931958263,2024-04-16 09h55.27.690645 -0400,
practice_images/w_auditorium1.jpg,2,0,,,,,0,2,2,2,,,,,25.883732524000152,,,,,,,,,,,25.868766333000167,25.868881923000117,25.86889342900031,25.883732524000152,25.883732524000152,26.88413211199986,26.88413211199986,29.883779294000306,29.883779294000306,29.883779294000306,29.883779294000306,29.867453705000116,1,0,2.6366606029996547,None,['1'],29.8684762150001,29.868522376999863,[0.4900632389999373],[None],,,,,,,,,,,,,,,,,,,,,,,,,,,,,,,,,,,,,,,,,,,,,,,,,,,,,,,,,68,001,0,,2024-04-16_09h55.14.105,replicate_nsd,2023.2.3,59.86538931958263,2024-04-16 09h55.27.690645 -0400,
practice_images/w_kitchen2.jpg,3,0,,,,,0,3,3,3,,,,,29.883779294000306,,,,,,,,,,,29.86880099200016,29.868918351000048,29.868930246000218,29.883779294000306,29.883779294000306,30.88406196799997,30.88406196799997,33.88403476700023,33.88403476700023,33.88403476700023,33.88403476700023,33.86786490200029,1,0,0.4557150370001182,None,None,33.868460766000226,33.86850368500018,,,,,,,,,,,,,,,,,,,,,,,,,,,,,,,,,,,,,,,,,,,,,,,,,,,,,,,,,,,68,001,0,,2024-04-16_09h55.14.105,replicate_nsd,2023.2.3,59.86538931958263,2024-04-16 09h55.27.690645 -0400,
practice_images/w_monument2.jpg,4,0,,,,,0,4,4,4,,,,,33.88403476700023,,,,,,,,,,,33.868774352999935,33.868889714000034,33.86890119100008,33.88403476700023,33.88403476700023,34.88408864300027,34.88408864300027,37.8839391270003,37.8839391270003,37.8839391270003,37.8839391270003,37.86747559300011,None,0,,,None,37.86789425100005,37.867936766000184,,,,,,,,,,,,,,,,,,,,,,,,,,,,,,,,,,,,,,,,,,,,,,,,,,,,,,,,,,,68,001,0,,2024-04-16_09h55.14.105,replicate_nsd,2023.2.3,59.86538931958263,2024-04-16 09h55.27.690645 -0400,
practice_images/w_bedroom2.jpg,5,0,,,,,0,5,5,5,,,,,37.8839391270003,,,,,,,,,,,37.86821243900022,37.86832820100017,37.86833985300018,37.8839391270003,37.8839391270003,38.88418850300013,38.88418850300013,41.88439406799989,41.88439406799989,41.88439406799989,41.88439406799989,41.867418141000144,None,0,,,None,41.86783756500017,41.86787871100023,,,,,,,,,,,,,,,,,,,,,,,,,,,,,,,,,,,,,,,,,,,,,,,,,,,,,,,,,,,68,001,0,,2024-04-16_09h55.14.105,replicate_nsd,2023.2.3,59.86538931958263,2024-04-16 09h55.27.690645 -0400,
practice_images/w_kitchen1.jpg,6,0,,,,,0,6,6,6,,,,,41.88439406799989,,,,,,,,,,,41.86815264899997,41.868268593000266,41.86828045399989,41.88439406799989,41.88439406799989,42.884067160000086,42.884067160000086,45.884385030999965,45.884385030999965,45.884385030999965,45.884385030999965,45.86760698600028,None,0,,,None,45.868026506000206,45.868067880000126,,,,,,,,,,,,,,,,,,,,,,,,,,,,,,,,,,,,,,,,,,,,,,,,,,,,,,,,,,,68,001,0,,2024-04-16_09h55.14.105,replicate_nsd,2023.2.3,59.86538931958263,2024-04-16 09h55.27.690645 -0400,
practice_images/w_boardwalk2.jpg,7,0,,,,,0,7,7,7,,,,,45.884385030999965,,,,,,,,,,,45.86834187300019,45.86845783800027,45.868469085000015,45.884385030999965,45.884385030999965,46.883903004999866,46.883903004999866,49.88389059100018,49.88389059100018,49.88389059100018,49.88389059100018,49.86768164100022,None,0,,,None,49.868099302000246,49.86814147299992,,,,,,,,,,,,,,,,,,,,,,,,,,,,,,,,,,,,,,,,,,,,,,,,,,,,,,,,,,,68,001,0,,2024-04-16_09h55.14.105,replicate_nsd,2023.2.3,59.86538931958263,2024-04-16 09h55.27.690645 -0400,
practice_images/w_kitchen2.jpg,8,0,,,,,0,8,8,8,,,,,49.88389059100018,,,,,,,,,,,49.8684166779999,49.86853186600001,49.86854346600012,49.88389059100018,49.88389059100018,50.88397338000004,50.88397338000004,53.884520004000024,53.884520004000024,53.884520004000024,53.884520004000024,53.8678956560002,None,0,,,None,53.86833534000016,53.868381991000206,,,,,,,,,,,,,,,,,,,,,,,,,,,,,,,,,,,,,,,,,,,,,,,,,,,,,,,,,,,68,001,0,,2024-04-16_09h55.14.105,replicate_nsd,2023.2.3,59.86538931958263,2024-04-16 09h55.27.690645 -0400,
practice_images/w_bedroom1.jpg,9,0,,,,,0,9,9,9,,,,,53.884520004000024,,,,,,,,,,,53.86866748200009,53.86879189699994,53.868803563000256,53.884520004000024,53.884520004000024,54.88427234200026,54.88427234200026,57.81772444700027,57.81772444700027,57.81772444700027,57.81772444700027,57.801376879000145,None,0,,,None,57.80179936000013,57.80184137000015,,,,,,,,,,,,,,,,,,,,,,,,,,,,,,,,,,,,,,,,,,,,,,,,,,,,,,,,,,,68,001,0,,2024-04-16_09h55.14.105,replicate_nsd,2023.2.3,59.86538931958263,2024-04-16 09h55.27.690645 -0400,
blank.jpg,10,1,,,,,0,10,10,10,,,,,57.81772444700027,,,,,,,,,,,57.802113798999926,57.802229227000225,57.80224106000014,,,,,,,,,57.80680445600001,None,0,,,None,57.80720280500009,61.83461579000004,,,57.81772444700027,61.85120136100022,,,,,,,,,,,,,,,,,,,,,,,,,,,,,,,,,,,,,,,,,,,,,,,,,,,,,,,68,001,0,,2024-04-16_09h55.14.105,replicate_nsd,2023.2.3,59.86538931958263,2024-04-16 09h55.27.690645 -0400,
practice_images/w_auditorium2.jpg,11,0,,,,,0,11,11,11,,,,,61.85120136100022,,,,,,,,,,,61.83499864800024,61.83511446300008,61.83512661900022,61.85120136100022,61.85120136100022,62.85094190100017,62.85094190100017,65.85131455999999,65.85131455999999,65.85131455999999,65.85131455999999,65.8348026980002,None,0,,,None,65.83522690000018,65.83527085300011,,,,,,,,,,,,,,,,,,,,,,,,,,,,,,,,,,,,,,,,,,,,,,,,,,,,,,,,,,,68,001,0,,2024-04-16_09h55.14.105,replicate_nsd,2023.2.3,59.86538931958263,2024-04-16 09h55.27.690645 -0400,
practice_images/w_monument1.jpg,12,0,,,,,0,12,12,12,,,,,65.85131455999999,,,,,,,,,,,65.83554987900015,65.83566723400008,65.8356788670003,65.85131455999999,65.85131455999999,66.85116616100004,66.85116616100004,69.85130706300015,69.85130706300015,69.85130706300015,69.85130706300015,69.83504746800008,None,0,,,None,69.83546944499994,69.835512311,,,,,,,,,,,,,,,,,,,,,,,,,,,,,,,,,,,,,,,,,,,,,,,,,,,,,,,,,,,68,001,0,,2024-04-16_09h55.14.105,replicate_nsd,2023.2.3,59.86538931958263,2024-04-16 09h55.27.690645 -0400,
practice_images/w_bedroom1.jpg,13,0,,,,,0,13,13,13,,,,,69.85130706300015,,,,,,,,,,,69.83579287200018,69.83590863100017,69.83592017000001,69.85130706300015,69.85130706300015,70.85125896,70.85125896,73.85127940600023,73.85127940600023,73.85127940600023,73.85127940600023,73.83496026000012,None,0,,,None,73.83538747300008,73.8354289859999,,,,,,,,,,,,,,,,,,,,,,,,,,,,,,,,,,,,,,,,,,,,,,,,,,,,,,,,,,,68,001,0,,2024-04-16_09h55.14.105,replicate_nsd,2023.2.3,59.86538931958263,2024-04-16 09h55.27.690645 -0400,
practice_images/w_monument1.jpg,14,0,,,,,0,14,14,14,,,,,73.85127940600023,,,,,,,,,,,73.83570993100011,73.83582733399999,73.83583879800017,73.85127940600023,73.85127940600023,74.85140831700028,74.85140831700028,77.80168660500021,77.80168660500021,77.80168660500021,77.80168660500021,77.78512021799997,None,0,,,None,77.78554196000005,77.78558461600005,,,,,,,,,,,,,,,,,,,,,,,,,,,,,,,,,,,,,,,,,,,,,,,,,,,,,,,,,,,68,001,0,,2024-04-16_09h55.14.105,replicate_nsd,2023.2.3,59.86538931958263,2024-04-16 09h55.27.690645 -0400,
practice_images/w_auditorium2.jpg,15,0,,,,,0,15,15,15,,,,,77.80168660500021,,,,,,,,,,,77.78588067600003,77.7860002110001,77.78601193600025,77.80168660500021,77.80168660500021,78.8014186610003,78.8014186610003,81.80168140400019,81.80168140400019,81.80168140400019,81.80168140400019,81.78515977400002,None,0,,,None,81.78569707999986,81.78576207000015,,,,,,,,,,,,,,,,,,,,,,,,,,,,,,,,,,,,,,,,,,,,,,,,,,,,,,,,,,,68,001,0,,2024-04-16_09h55.14.105,replicate_nsd,2023.2.3,59.86538931958263,2024-04-16 09h55.27.690645 -0400,
practice_images/w_boardwalk2.jpg,16,0,,,,,0,16,16,16,,,,,81.80168140400019,,,,,,,,,,,81.78610314000025,81.78621886000019,81.78623043000016,81.80168140400019,81.80168140400019,82.80171237200011,82.80171237200011,85.80177017799997,85.80177017799997,85.80177017799997,85.80177017799997,85.78531075499995,None,0,,,None,85.78573479099987,85.78577768500008,,,,,,,,,,,,,,,,,,,,,,,,,,,,,,,,,,,,,,,,,,,,,,,,,,,,,,,,,,,68,001,0,,2024-04-16_09h55.14.105,replicate_nsd,2023.2.3,59.86538931958263,2024-04-16 09h55.27.690645 -0400,
practice_images/w_monument2.jpg,17,0,,,,,0,17,17,17,,,,,85.80177017799997,,,,,,,,,,,85.78605901800029,85.78617548400007,85.78618707100031,85.80177017799997,85.80177017799997,86.8017864970002,86.8017864970002,89.80193380499986,89.80193380499986,89.80193380499986,89.80193380499986,89.78519897100023,None,0,,,None,89.78554612700009,89.78558029400028,,,,,,,,,,,,,,,,,,,,,,,,,,,,,,,,,,,,,,,,,,,,,,,,,,,,,,,,,,,68,001,0,,2024-04-16_09h55.14.105,replicate_nsd,2023.2.3,59.86538931958263,2024-04-16 09h55.27.690645 -0400,
practice_images/w_kitchen1.jpg,18,0,,,,,0,18,18,18,,,,,89.80193380499986,,,,,,,,,,,89.78580451500011,89.7858970770003,89.78590642100016,89.80193380499986,89.80193380499986,90.80181970800004,90.80181970800004,93.80213782700002,93.80213782700002,93.80213782700002,93.80213782700002,93.78547411499994,None,0,,,None,93.78590262099988,93.7859453430001,,,,,,,,,,,,,,,,,,,,,,,,,,,,,,,,,,,,,,,,,,,,,,,,,,,,,,,,,,,68,001,0,,2024-04-16_09h55.14.105,replicate_nsd,2023.2.3,59.86538931958263,2024-04-16 09h55.27.690645 -0400,
practice_images/w_auditorium1.jpg,19,0,,,,,0,19,19,19,,,,,93.80213782700002,,,,,,,,,,,93.78623925200009,93.78635809600019,93.78637036400005,93.80213782700002,93.80213782700002,94.8017272940001,94.8017272940001,97.80430016500031,97.80430016500031,97.80430016500031,97.80430016500031,97.78531061800004,None,0,,,None,97.78596705700011,97.78600889300014,,,,,,,,,,,,,,,,,,,,,,,,,,,,,,,,,,,,,,,,,,,,,,,,,,,,,,,,,,,68,001,0,,2024-04-16_09h55.14.105,replicate_nsd,2023.2.3,59.86538931958263,2024-04-16 09h55.27.690645 -0400,
,,,,,,,,,,,,,,,,,,,,,,,,,,,,,,,,,,,,,,,,,,,,,,,,,97.78606655600015,97.80430016500031,97.80430016500031,100.16849954600002,1,2.356011916999705,None,,,,,,,,,,,,,,,,,,,,,,,,,,,,,,,,,,,,,,,,,,,,,,,,68,001,0,,2024-04-16_09h55.14.105,replicate_nsd,2023.2.3,59.86538931958263,2024-04-16 09h55.27.690645 -0400,
,,,,,,,,,,,,,,,,,,,,,,,,,,,,,,,,,,,,,,,,,,,,,,,,,,,,,,,,100.16852467900026,100.18537876800019,100.18537876800019,114.21885551200012,equal,14.025448852999943,None,,,,,,,,,,,,,,,,,,,,,,,,,,,,,,,,,,,,,,,,,68,001,0,,2024-04-16_09h55.14.105,replicate_nsd,2023.2.3,59.86538931958263,2024-04-16 09h55.27.690645 -0400,
images/image_215_seed_1.png,0,0,0,0,0,"[9, 19, 29, 39, 49, 59, 68, 69, 70, 71]",,,,,0,0,0,0,114.32286297100018,,,,,,,,,,,,,,,,,,,,,,,,,,,,,,,,,,,,,,,,,,,,,,,,114.29739048700003,114.29747135900016,114.29747841100016,114.32286297100018,114.32286297100018,115.3191327970003,115.3191327970003,118.3328942170001,118.3328942170001,118.3328942170001,118.3328942170001,118.30288281699995,None,0,None,118.30516153000008,118.3052039700001,None,118.30589500199994,118.30594746199995,None,118.30662926500008,118.30666400700011,None,,,,,,,,,,,,,,,,,68,001,0,,2024-04-16_09h55.14.105,replicate_nsd,2023.2.3,59.86538931958263,2024-04-16 09h55.27.690645 -0400,
images/paired_image_875_1.png,1,0,0,0,0,"[9, 19, 29, 39, 49, 59, 68, 69, 70, 71]",,,,,0,1,1,1,118.3328942170001,,,,,,,,,,,,,,,,,,,,,,,,,,,,,,,,,,,,,,,,,,,,,,,,118.30758256299987,118.30768019400011,118.30769044899989,118.3328942170001,118.3328942170001,119.31641897700001,119.31641897700001,122.32249226000022,122.32249226000022,122.32249226000022,122.32249226000022,122.30037692699989,None,0,None,122.30080743899998,122.30085309100014,None,122.30096872400009,122.30102180199992,None,122.30113685600008,122.30117313000028,None,,,,,,,,,,,,,,,,,68,001,0,,2024-04-16_09h55.14.105,replicate_nsd,2023.2.3,59.86538931958263,2024-04-16 09h55.27.690645 -0400,
images/image_2_seed_1.png,2,0,0,0,0,"[9, 19, 29, 39, 49, 59, 68, 69, 70, 71]",,,,,0,2,2,2,122.32249226000022,,,,,,,,,,,,,,,,,,,,,,,,,,,,,,,,,,,,,,,,,,,,,,,,122.30155842700015,122.30168201400011,122.30169212300007,122.32249226000022,122.32249226000022,123.31708115800029,123.31708115800029,126.31951637500015,126.31951637500015,126.31951637500015,126.31951637500015,126.30066067100006,None,0,None,126.301091714,126.3011435010003,None,126.30125512900031,126.30129897799998,None,126.30139023499987,126.30141907699999,None,,,,,,,,,,,,,,,,,68,001,0,,2024-04-16_09h55.14.105,replicate_nsd,2023.2.3,59.86538931958263,2024-04-16 09h55.27.690645 -0400,
images/image_703_seed_1.png,3,0,0,0,0,"[9, 19, 29, 39, 49, 59, 68, 69, 70, 71]",,,,,0,3,3,3,126.31951637500015,,,,,,,,,,,,,,,,,,,,,,,,,,,,,,,,,,,,,,,,,,,,,,,,126.301728465,126.30182537300016,126.30183519999991,126.31951637500015,126.31951637500015,127.31668636799986,127.31668636799986,130.32491612700005,130.32491612700005,130.32491612700005,130.32491612700005,130.3004523929999,None,0,None,130.30087884900013,130.30092464200015,None,130.3010398020001,130.30109360799997,None,130.3012070660002,130.3012435579999,None,,,,,,,,,,,,,,,,,68,001,0,,2024-04-16_09h55.14.105,replicate_nsd,2023.2.3,59.86538931958263,2024-04-16 09h55.27.690645 -0400,
images/image_497_seed_1.png,4,0,0,0,0,"[9, 19, 29, 39, 49, 59, 68, 69, 70, 71]",,,,,0,4,4,4,130.32491612700005,,,,,,,,,,,,,,,,,,,,,,,,,,,,,,,,,,,,,,,,,,,,,,,,130.3016236630001,130.30174717199998,130.30175731300005,130.32491612700005,130.32491612700005,131.31698589300004,131.31698589300004,134.32366950300002,134.32366950300002,134.32366950300002,134.32366950300002,134.30062083300027,None,0,None,134.30104773599987,134.30109353700027,None,134.30120816,134.30126200699988,None,134.30137541500017,134.3014119620002,None,,,,,,,,,,,,,,,,,68,001,0,,2024-04-16_09h55.14.105,replicate_nsd,2023.2.3,59.86538931958263,2024-04-16 09h55.27.690645 -0400,
images/image_562_seed_1.png,5,0,0,0,0,"[9, 19, 29, 39, 49, 59, 68, 69, 70, 71]",,,,,0,5,5,5,134.32366950300002,,,,,,,,,,,,,,,,,,,,,,,,,,,,,,,,,,,,,,,,,,,,,,,,134.30179410500023,134.30191198600005,134.30192479100015,134.32366950300002,134.32366950300002,135.31702136900003,135.31702136900003,138.32247940100024,138.32247940100024,138.32247940100024,138.32247940100024,138.3008258740001,None,0,None,138.30125278200012,138.30129866400011,None,138.30141591600022,138.30146925300005,None,138.30158472199992,138.30162073700012,None,,,,,,,,,,,,,,,,,68,001,0,,2024-04-16_09h55.14.105,replicate_nsd,2023.2.3,59.86538931958263,2024-04-16 09h55.27.690645 -0400,
images/image_512_seed_1.png,6,0,0,0,0,"[9, 19, 29, 39, 49, 59, 68, 69, 70, 71]",,,,,0,6,6,6,138.32247940100024,,,,,,,,,,,,,,,,,,,,,,,,,,,,,,,,,,,,,,,,,,,,,,,,138.302013171,138.30212763999998,138.30213763600023,138.32247940100024,138.32247940100024,139.31727380100028,139.31727380100028,142.32442924899988,142.32442924899988,142.32442924899988,142.32442924899988,142.30076519600016,None,0,None,142.3011966240001,142.3012433490003,None,142.3013573950002,142.30141060000005,None,142.30152464999992,142.301560418,None,,,,,,,,,,,,,,,,,68,001,0,,2024-04-16_09h55.14.105,replicate_nsd,2023.2.3,59.86538931958263,2024-04-16 09h55.27.690645 -0400,
images/image_11_seed_1.png,7,0,0,0,0,"[9, 19, 29, 39, 49, 59, 68, 69, 70, 71]",,,,,0,7,7,7,142.32442924899988,,,,,,,,,,,,,,,,,,,,,,,,,,,,,,,,,,,,,,,,,,,,,,,,142.3019048330002,142.30200007700023,142.3020101320003,142.32442924899988,142.32442924899988,143.31723014199997,143.31723014199997,146.3235465570001,146.3235465570001,146.3235465570001,146.3235465570001,146.3011496250001,None,0,None,146.301576717,146.30162308900026,None,146.301737752,146.30179054500013,None,146.30192380300014,146.30195251500027,None,,,,,,,,,,,,,,,,,68,001,0,,2024-04-16_09h55.14.105,replicate_nsd,2023.2.3,59.86538931958263,2024-04-16 09h55.27.690645 -0400,
images/image_381_seed_1.png,8,0,0,0,0,"[9, 19, 29, 39, 49, 59, 68, 69, 70, 71]",,,,,0,8,8,8,146.3235465570001,,,,,,,,,,,,,,,,,,,,,,,,,,,,,,,,,,,,,,,,,,,,,,,,146.30226023600017,146.30235722099997,146.30236723899998,146.3235465570001,146.3235465570001,147.31741648300022,147.31741648300022,150.317401151,150.317401151,150.317401151,150.317401151,150.30090487400003,None,0,None,150.3013337739999,150.30137920800007,None,150.3014953740003,150.3015628359999,None,150.30165449700007,150.3016830480001,None,,,,,,,,,,,,,,,,,68,001,0,,2024-04-16_09h55.14.105,replicate_nsd,2023.2.3,59.86538931958263,2024-04-16 09h55.27.690645 -0400,
blank.jpg,9,1,0,0,0,"[9, 19, 29, 39, 49, 59, 68, 69, 70, 71]",,,,,0,9,9,9,150.317401151,,,,,,,,,,,,,,,,,,,,,,,,,,,,,,,,,,,,,,,,,,,,,,,,150.30199300499999,150.30208966100008,150.30209952199993,,,,,,,,,150.30549230099996,None,0,None,150.30581828999993,154.30117130200006,None,154.3013911510002,154.30145162999997,None,154.30158780300007,154.30162600199992,None,150.317401151,150.317401151,154.32407932700016,154.32407932700016,,,,,,,,,,,,,68,001,0,,2024-04-16_09h55.14.105,replicate_nsd,2023.2.3,59.86538931958263,2024-04-16 09h55.27.690645 -0400,
images/image_336_seed_1.png,10,0,0,0,0,"[9, 19, 29, 39, 49, 59, 68, 69, 70, 71]",,,,,0,10,10,10,154.32407932700016,,,,,,,,,,,,,,,,,,,,,,,,,,,,,,,,,,,,,,,,,,,,,,,,154.30202575800013,154.30215932600004,154.30216958400024,154.32407932700016,154.32407932700016,155.31734411600019,155.31734411600019,158.32451676600022,158.32451676600022,158.32451676600022,158.32451676600022,158.30140458200003,None,0,None,158.30183569100018,158.30188269300015,None,158.3019975750003,158.30205112300018,None,158.30216509799993,158.30222141100012,None,,,,,,,,,,,,,,,,,68,001,0,,2024-04-16_09h55.14.105,replicate_nsd,2023.2.3,59.86538931958263,2024-04-16 09h55.27.690645 -0400,
images/image_397_seed_1.png,11,0,0,0,0,"[9, 19, 29, 39, 49, 59, 68, 69, 70, 71]",,,,,0,11,11,11,158.32451676600022,,,,,,,,,,,,,,,,,,,,,,,,,,,,,,,,,,,,,,,,,,,,,,,,158.30252942800007,158.3026244120001,158.30263435200004,158.32451676600022,158.32451676600022,159.31778879000012,159.31778879000012,162.31755860800013,162.31755860800013,162.31755860800013,162.31755860800013,162.3015137980001,None,0,None,162.3019464429999,162.30199321700002,None,162.302108717,162.30216242699998,None,162.30227629599995,162.3023121000001,None,,,,,,,,,,,,,,,,,68,001,0,,2024-04-16_09h55.14.105,replicate_nsd,2023.2.3,59.86538931958263,2024-04-16 09h55.27.690645 -0400,
images/16_22.png,12,0,0,0,0,"[9, 19, 29, 39, 49, 59, 68, 69, 70, 71]",,,,,0,12,12,12,162.31755860800013,,,,,,,,,,,,,,,,,,,,,,,,,,,,,,,,,,,,,,,,,,,,,,,,162.3026701990002,162.3027667250003,162.3027765740003,162.31755860800013,162.31755860800013,163.31789084799993,163.31789084799993,166.32631703300012,166.32631703300012,166.32631703300012,166.32631703300012,166.301664651,None,0,None,166.302095991,166.30214194400014,None,166.30225638499996,166.30230889199993,None,166.30242240000007,166.302457795,None,,,,,,,,,,,,,,,,,68,001,0,,2024-04-16_09h55.14.105,replicate_nsd,2023.2.3,59.86538931958263,2024-04-16 09h55.27.690645 -0400,
images/image_519_seed_1.png,13,0,0,0,0,"[9, 19, 29, 39, 49, 59, 68, 69, 70, 71]",,,,,0,13,13,13,166.32631703300012,,,,,,,,,,,,,,,,,,,,,,,,,,,,,,,,,,,,,,,,,,,,,,,,166.30284300099993,166.30296179000015,166.30297415799987,166.32631703300012,166.32631703300012,167.3179605539999,167.3179605539999,170.325522998,170.325522998,170.325522998,170.325522998,170.301564935,None,0,None,170.30199939400018,170.3020459610002,None,170.3021620039999,170.30221602500023,None,170.30233032100023,170.30236639300028,None,,,,,,,,,,,,,,,,,68,001,0,,2024-04-16_09h55.14.105,replicate_nsd,2023.2.3,59.86538931958263,2024-04-16 09h55.27.690645 -0400,
images/image_256_seed_1.png,14,0,0,0,0,"[9, 19, 29, 39, 49, 59, 68, 69, 70, 71]",,,,,0,14,14,14,170.325522998,,,,,,,,,,,,,,,,,,,,,,,,,,,,,,,,,,,,,,,,,,,,,,,,170.30274929200004,170.30287056999987,170.30288320199998,170.325522998,170.325522998,171.31806656300023,171.31806656300023,174.32040168699996,174.32040168699996,174.32040168699996,174.32040168699996,174.30160804200023,None,0,None,174.30229857799986,174.30234631800022,None,174.30246515399995,174.30251798000018,None,174.30264114300007,174.302693438,None,,,,,,,,,,,,,,,,,68,001,0,,2024-04-16_09h55.14.105,replicate_nsd,2023.2.3,59.86538931958263,2024-04-16 09h55.27.690645 -0400,
images/image_69_seed_1.png,15,0,0,0,0,"[9, 19, 29, 39, 49, 59, 68, 69, 70, 71]",,,,,0,15,15,15,174.32040168699996,,,,,,,,,,,,,,,,,,,,,,,,,,,,,,,,,,,,,,,,,,,,,,,,174.30300342600003,174.30309987400005,174.30310985999995,174.32040168699996,174.32040168699996,175.3181201440002,175.3181201440002,178.324410317,178.324410317,178.324410317,178.324410317,178.30211851400009,None,0,None,178.3025472029999,178.302593376,None,178.3027093400001,178.30276322600002,None,178.30287847399995,178.30291406000015,None,,,,,,,,,,,,,,,,,68,001,0,,2024-04-16_09h55.14.105,replicate_nsd,2023.2.3,59.86538931958263,2024-04-16 09h55.27.690645 -0400,
images/image_654_seed_1.png,16,0,0,0,0,"[9, 19, 29, 39, 49, 59, 68, 69, 70, 71]",,,,,0,16,16,16,178.324410317,,,,,,,,,,,,,,,,,,,,,,,,,,,,,,,,,,,,,,,,,,,,,,,,178.30330314000003,178.3034235680002,178.3034361340001,178.324410317,178.324410317,179.3182071870001,179.3182071870001,182.32535126499988,182.32535126499988,182.32535126499988,182.32535126499988,182.3020306870003,None,0,None,182.30246140100007,182.3025078820001,None,182.30262375600023,182.3026768970003,None,182.30279309800017,182.302829062,None,,,,,,,,,,,,,,,,,68,001,0,,2024-04-16_09h55.14.105,replicate_nsd,2023.2.3,59.86538931958263,2024-04-16 09h55.27.690645 -0400,
images/image_235_seed_1.png,17,0,0,0,0,"[9, 19, 29, 39, 49, 59, 68, 69, 70, 71]",,,,,0,17,17,17,182.32535126499988,,,,,,,,,,,,,,,,,,,,,,,,,,,,,,,,,,,,,,,,,,,,,,,,182.3032124790002,182.3033316230003,182.30334418400025,182.32535126499988,182.32535126499988,183.31847455700017,183.31847455700017,186.32420456699992,186.32420456699992,186.32420456699992,186.32420456699992,186.30247392499996,None,0,None,186.30290591099993,186.3029520099999,None,186.3030664590001,186.30312023900024,None,186.30323610999994,186.3032714599999,None,,,,,,,,,,,,,,,,,68,001,0,,2024-04-16_09h55.14.105,replicate_nsd,2023.2.3,59.86538931958263,2024-04-16 09h55.27.690645 -0400,
images/image_289_seed_1.png,18,0,0,0,0,"[9, 19, 29, 39, 49, 59, 68, 69, 70, 71]",,,,,0,18,18,18,186.32420456699992,,,,,,,,,,,,,,,,,,,,,,,,,,,,,,,,,,,,,,,,,,,,,,,,186.30391213500025,186.3040455800001,186.30405584900018,186.32420456699992,186.32420456699992,187.31873785400012,187.31873785400012,190.31785218599998,190.31785218599998,190.31785218599998,190.31785218599998,190.30131592899988,None,0,None,190.30157277199987,190.30159918000027,None,190.30166349899991,190.3016936580002,None,190.30175791600004,190.30177801900027,None,,,,,,,,,,,,,,,,,68,001,0,,2024-04-16_09h55.14.105,replicate_nsd,2023.2.3,59.86538931958263,2024-04-16 09h55.27.690645 -0400,
blank.jpg,19,1,0,0,0,"[9, 19, 29, 39, 49, 59, 68, 69, 70, 71]",,,,,0,19,19,19,190.31785218599998,,,,,,,,,,,,,,,,,,,,,,,,,,,,,,,,,,,,,,,,,,,,,,,,190.3019971230001,190.30206542799988,190.30207223100024,,,,,,,,,190.3044904389999,None,0,None,190.30468957599987,194.30228745400018,None,194.30251191600019,194.3025719279999,None,194.30270329699988,194.30274153100027,None,190.31785218599998,190.31785218599998,194.32229168899994,194.32229168899994,,,,,,,,,,,,,68,001,0,,2024-04-16_09h55.14.105,replicate_nsd,2023.2.3,59.86538931958263,2024-04-16 09h55.27.690645 -0400,
images/paired_image_547_1.png,20,0,0,0,0,"[9, 19, 29, 39, 49, 59, 68, 69, 70, 71]",,,,,0,20,20,20,194.32229168899994,,,,,,,,,,,,,,,,,,,,,,,,,,,,,,,,,,,,,,,,,,,,,,,,194.30314663199988,194.30326666300016,194.30327905000013,194.32229168899994,194.32229168899994,195.31897455199987,195.31897455199987,198.32662057400012,198.32662057400012,198.32662057400012,198.32662057400012,198.30271144300013,None,0,None,198.3031435580001,198.30319146500005,None,198.3033062280001,198.30336144700004,None,198.30347544200004,198.3035120059999,None,,,,,,,,,,,,,,,,,68,001,0,,2024-04-16_09h55.14.105,replicate_nsd,2023.2.3,59.86538931958263,2024-04-16 09h55.27.690645 -0400,
images/image_697_seed_1.png,21,0,0,0,0,"[9, 19, 29, 39, 49, 59, 68, 69, 70, 71]",,,,,0,21,21,21,198.32662057400012,,,,,,,,,,,,,,,,,,,,,,,,,,,,,,,,,,,,,,,,,,,,,,,,198.30389671500006,198.304017209,198.30403003399988,198.32662057400012,198.32662057400012,199.31909954399998,199.31909954399998,202.32230401000015,202.32230401000015,202.32230401000015,202.32230401000015,202.30278071600014,None,0,None,202.30321316200025,202.30325983500006,None,202.3033765340001,202.30343077299995,None,202.3035455459999,202.30358219000027,None,,,,,,,,,,,,,,,,,68,001,0,,2024-04-16_09h55.14.105,replicate_nsd,2023.2.3,59.86538931958263,2024-04-16 09h55.27.690645 -0400,
images/image_456_seed_1.png,22,0,0,0,0,"[9, 19, 29, 39, 49, 59, 68, 69, 70, 71]",,,,,0,22,22,22,202.32230401000015,,,,,,,,,,,,,,,,,,,,,,,,,,,,,,,,,,,,,,,,,,,,,,,,202.30396257300026,202.30408164000028,202.30409407600018,202.32230401000015,202.32230401000015,203.3191430259999,203.3191430259999,206.3240557510003,206.3240557510003,206.3240557510003,206.3240557510003,206.3028280010003,None,0,None,206.3032612500001,206.30330782200008,None,206.3034243430002,206.30347777499992,None,206.30359344,206.30363059299998,None,,,,,,,,,,,,,,,,,68,001,0,,2024-04-16_09h55.14.105,replicate_nsd,2023.2.3,59.86538931958263,2024-04-16 09h55.27.690645 -0400,
images/image_534_seed_1.png,23,0,0,0,0,"[9, 19, 29, 39, 49, 59, 68, 69, 70, 71]",,,,,0,23,23,23,206.3240557510003,,,,,,,,,,,,,,,,,,,,,,,,,,,,,,,,,,,,,,,,,,,,,,,,206.30401463299995,206.3041343499999,206.3041470940002,206.3240557510003,206.3240557510003,207.3192559920003,207.3192559920003,210.32691826300015,210.32691826300015,210.32691826300015,210.32691826300015,210.30296847199998,None,0,None,210.3033989180003,210.30344526199997,None,210.30355938399998,210.30361219999986,None,210.303725537,210.3037608740001,None,,,,,,,,,,,,,,,,,68,001,0,,2024-04-16_09h55.14.105,replicate_nsd,2023.2.3,59.86538931958263,2024-04-16 09h55.27.690645 -0400,
images/image_118_seed_1.png,24,0,0,0,0,"[9, 19, 29, 39, 49, 59, 68, 69, 70, 71]",,,,,0,24,24,24,210.32691826300015,,,,,,,,,,,,,,,,,,,,,,,,,,,,,,,,,,,,,,,,,,,,,,,,210.3041378820003,210.30425618400022,210.30426833499996,210.32691826300015,210.32691826300015,211.31934470900023,211.31934470900023,214.32548133199998,214.32548133199998,214.32548133199998,214.32548133199998,214.3029300950002,None,0,None,214.3033650440002,214.30341079900018,None,214.30352750400016,214.30358001000013,None,214.30369563000022,214.30373217900024,None,,,,,,,,,,,,,,,,,68,001,0,,2024-04-16_09h55.14.105,replicate_nsd,2023.2.3,59.86538931958263,2024-04-16 09h55.27.690645 -0400,
images/image_55_seed_1.png,25,0,0,0,0,"[9, 19, 29, 39, 49, 59, 68, 69, 70, 71]",,,,,0,25,25,25,214.32548133199998,,,,,,,,,,,,,,,,,,,,,,,,,,,,,,,,,,,,,,,,,,,,,,,,214.30411662000006,214.30423910299987,214.3042519569999,214.32548133199998,214.32548133199998,215.3194447420001,215.3194447420001,218.32564774499997,218.32564774499997,218.32564774499997,218.32564774499997,218.3030396060003,None,0,None,218.30346114700023,218.3035058720002,None,218.30361942399986,218.3036728860002,None,218.303785693,218.30382117699992,None,,,,,,,,,,,,,,,,,68,001,0,,2024-04-16_09h55.14.105,replicate_nsd,2023.2.3,59.86538931958263,2024-04-16 09h55.27.690645 -0400,
images/image_668_seed_1.png,26,0,0,0,0,"[9, 19, 29, 39, 49, 59, 68, 69, 70, 71]",,,,,0,26,26,26,218.32564774499997,,,,,,,,,,,,,,,,,,,,,,,,,,,,,,,,,,,,,,,,,,,,,,,,218.3042012740002,218.30431924200002,218.3043316080002,218.32564774499997,218.32564774499997,219.31961237699988,219.31961237699988,222.324548993,222.324548993,222.324548993,222.324548993,222.3033366290001,None,0,None,222.30376935599998,222.3038161300001,None,222.3039310070003,222.30398404000016,None,222.30409665900015,222.30413310599988,None,,,,,,,,,,,,,,,,,68,001,0,,2024-04-16_09h55.14.105,replicate_nsd,2023.2.3,59.86538931958263,2024-04-16 09h55.27.690645 -0400,
images/image_151_seed_1.png,27,0,0,0,0,"[9, 19, 29, 39, 49, 59, 68, 69, 70, 71]",,,,,0,27,27,27,222.324548993,,,,,,,,,,,,,,,,,,,,,,,,,,,,,,,,,,,,,,,,,,,,,,,,222.30451174400014,222.30463099899998,222.3046432760002,222.324548993,222.324548993,223.31967280100025,223.31967280100025,226.32793162000007,226.32793162000007,226.32793162000007,226.32793162000007,226.3033667560003,None,0,None,226.30379693900022,226.30384316200025,None,226.3039584410003,226.30401192599993,None,226.30412656099998,226.3041621450002,None,,,,,,,,,,,,,,,,,68,001,0,,2024-04-16_09h55.14.105,replicate_nsd,2023.2.3,59.86538931958263,2024-04-16 09h55.27.690645 -0400,
images/image_6_seed_1.png,28,0,0,0,0,"[9, 19, 29, 39, 49, 59, 68, 69, 70, 71]",,,,,0,28,28,28,226.32793162000007,,,,,,,,,,,,,,,,,,,,,,,,,,,,,,,,,,,,,,,,,,,,,,,,226.30454061,226.30466039700013,226.30467269100018,226.32793162000007,226.32793162000007,227.31955060500013,227.31955060500013,230.319793915,230.319793915,230.319793915,230.319793915,230.30344247699986,None,0,None,230.30387140499988,230.30391713500012,None,230.30403171099988,230.3040842800001,None,230.30419731500024,230.30423381800028,None,,,,,,,,,,,,,,,,,68,001,0,,2024-04-16_09h55.14.105,replicate_nsd,2023.2.3,59.86538931958263,2024-04-16 09h55.27.690645 -0400,
blank.jpg,29,1,0,0,0,"[9, 19, 29, 39, 49, 59, 68, 69, 70, 71]",,,,,0,29,29,29,230.319793915,,,,,,,,,,,,,,,,,,,,,,,,,,,,,,,,,,,,,,,,,,,,,,,,230.30463919600015,230.30476058500017,230.30477333199997,,,,,,,,,230.30856175600002,None,0,None,230.30896286899997,234.30361158699998,None,234.30382833400017,234.30388596900002,None,234.30401812800028,234.30405535199998,None,230.319793915,230.319793915,234.32636509500026,234.32636509500026,,,,,,,,,,,,,68,001,0,,2024-04-16_09h55.14.105,replicate_nsd,2023.2.3,59.86538931958263,2024-04-16 09h55.27.690645 -0400,
images/image_257_seed_1.png,30,0,0,0,0,"[9, 19, 29, 39, 49, 59, 68, 69, 70, 71]",,,,,0,30,30,30,234.32636509500026,,,,,,,,,,,,,,,,,,,,,,,,,,,,,,,,,,,,,,,,,,,,,,,,234.30445568100004,234.30457448200013,234.3045871019999,234.32636509500026,234.32636509500026,235.31995313700008,235.31995313700008,238.32902184500017,238.32902184500017,238.32902184500017,238.32902184500017,238.30377587500016,None,0,None,238.30421399800025,238.30426205599997,None,238.3043771900002,238.30443100699995,None,238.30454497400024,238.304580815,None,,,,,,,,,,,,,,,,,68,001,0,,2024-04-16_09h55.14.105,replicate_nsd,2023.2.3,59.86538931958263,2024-04-16 09h55.27.690645 -0400,
images/image_8_seed_1.png,31,0,0,0,0,"[9, 19, 29, 39, 49, 59, 68, 69, 70, 71]",,,,,0,31,31,31,238.32902184500017,,,,,,,,,,,,,,,,,,,,,,,,,,,,,,,,,,,,,,,,,,,,,,,,238.30496142499987,238.30508260500028,238.30509508000023,238.32902184500017,238.32902184500017,239.31983587500008,239.31983587500008,242.32716293300018,242.32716293300018,242.32716293300018,242.32716293300018,242.30384931400022,None,0,None,242.30429771800027,242.30434888199989,None,242.30446856900016,242.304524141,None,242.30463812300013,242.3046740069999,None,,,,,,,,,,,,,,,,,68,001,0,,2024-04-16_09h55.14.105,replicate_nsd,2023.2.3,59.86538931958263,2024-04-16 09h55.27.690645 -0400,
images/image_706_seed_1.png,32,0,0,0,0,"[9, 19, 29, 39, 49, 59, 68, 69, 70, 71]",,,,,0,32,32,32,242.32716293300018,,,,,,,,,,,,,,,,,,,,,,,,,,,,,,,,,,,,,,,,,,,,,,,,242.30505762600023,242.30518189600025,242.30519425400007,242.32716293300018,242.32716293300018,243.31995031999986,243.31995031999986,246.327088171,246.327088171,246.327088171,246.327088171,246.30386130600027,None,0,None,246.3042915619999,246.30433782,None,246.30445242399992,246.30450560200006,None,246.30461818899994,246.3046544030003,None,,,,,,,,,,,,,,,,,68,001,0,,2024-04-16_09h55.14.105,replicate_nsd,2023.2.3,59.86538931958263,2024-04-16 09h55.27.690645 -0400,
images/image_263_seed_1.png,33,0,0,0,0,"[9, 19, 29, 39, 49, 59, 68, 69, 70, 71]",,,,,0,33,33,33,246.327088171,,,,,,,,,,,,,,,,,,,,,,,,,,,,,,,,,,,,,,,,,,,,,,,,246.30503478499986,246.30515423099996,246.30516668400014,246.327088171,246.327088171,247.32021951800016,247.32021951800016,250.3226025240001,250.3226025240001,250.3226025240001,250.3226025240001,250.30351851700016,None,0,None,250.30396062699992,250.3040080599999,None,250.30412649400023,250.304181814,None,250.30429726400007,250.3043331900003,None,,,,,,,,,,,,,,,,,68,001,0,,2024-04-16_09h55.14.105,replicate_nsd,2023.2.3,59.86538931958263,2024-04-16 09h55.27.690645 -0400,
images/image_704_seed_1.png,34,0,0,0,0,"[9, 19, 29, 39, 49, 59, 68, 69, 70, 71]",,,,,0,34,34,34,250.3226025240001,,,,,,,,,,,,,,,,,,,,,,,,,,,,,,,,,,,,,,,,,,,,,,,,250.30470891100003,250.30480859699992,250.30481880900015,250.3226025240001,250.3226025240001,251.32016876600028,251.32016876600028,254.3299676390002,254.3299676390002,254.3299676390002,254.3299676390002,254.30407561099992,None,0,None,254.30450506500028,254.30455224900015,None,254.30466691600031,254.3047217190001,None,254.30483595800024,254.30487233500025,None,,,,,,,,,,,,,,,,,68,001,0,,2024-04-16_09h55.14.105,replicate_nsd,2023.2.3,59.86538931958263,2024-04-16 09h55.27.690645 -0400,
images/image_293_seed_1.png,35,0,0,0,0,"[9, 19, 29, 39, 49, 59, 68, 69, 70, 71]",,,,,0,35,35,35,254.3299676390002,,,,,,,,,,,,,,,,,,,,,,,,,,,,,,,,,,,,,,,,,,,,,,,,254.30525220800018,254.30537302599987,254.3053855600001,254.3299676390002,254.3299676390002,255.32039373299995,255.32039373299995,258.3285541979999,258.3285541979999,258.3285541979999,258.3285541979999,258.3042442420001,None,0,None,258.3046759160002,258.30472218800014,None,258.3048368069999,258.30489117100024,None,258.3050046090002,258.3050407400001,None,,,,,,,,,,,,,,,,,68,001,0,,2024-04-16_09h55.14.105,replicate_nsd,2023.2.3,59.86538931958263,2024-04-16 09h55.27.690645 -0400,
images/image_473_seed_1.png,36,0,0,0,0,"[9, 19, 29, 39, 49, 59, 68, 69, 70, 71]",,,,,0,36,36,36,258.3285541979999,,,,,,,,,,,,,,,,,,,,,,,,,,,,,,,,,,,,,,,,,,,,,,,,258.30542029100025,258.30553835699993,258.3055512609999,258.3285541979999,258.3285541979999,259.3205718720001,259.3205718720001,262.3275141080003,262.3275141080003,262.3275141080003,262.3275141080003,262.30425990000003,None,0,None,262.3046901319999,262.3047363640003,None,262.30485113500026,262.3049044970003,None,262.3050182520001,262.3050537940003,None,,,,,,,,,,,,,,,,,68,001,0,,2024-04-16_09h55.14.105,replicate_nsd,2023.2.3,59.86538931958263,2024-04-16 09h55.27.690645 -0400,
images/image_30_seed_1.png,37,0,0,0,0,"[9, 19, 29, 39, 49, 59, 68, 69, 70, 71]",,,,,0,37,37,37,262.3275141080003,,,,,,,,,,,,,,,,,,,,,,,,,,,,,,,,,,,,,,,,,,,,,,,,262.30543565100015,262.3055585340003,262.305571377,262.3275141080003,262.3275141080003,263.3207633050001,263.3207633050001,266.32957059599994,266.32957059599994,266.32957059599994,266.32957059599994,266.30428491500015,None,0,None,266.3047134020003,266.30475909300003,None,266.3048746469999,266.3049281419999,None,266.30504423499997,266.3050796780003,None,,,,,,,,,,,,,,,,,68,001,0,,2024-04-16_09h55.14.105,replicate_nsd,2023.2.3,59.86538931958263,2024-04-16 09h55.27.690645 -0400,
images/image_51_seed_1.png,38,0,0,0,0,"[9, 19, 29, 39, 49, 59, 68, 69, 70, 71]",,,,,0,38,38,38,266.32957059599994,,,,,,,,,,,,,,,,,,,,,,,,,,,,,,,,,,,,,,,,,,,,,,,,266.30546258100003,266.3055825340002,266.30559500100026,266.32957059599994,266.32957059599994,267.32082234200016,267.32082234200016,270.3208809030002,270.3208809030002,270.3208809030002,270.3208809030002,270.3044995240002,None,0,None,270.3049306329999,270.30497675100014,None,270.30509198200025,270.3051451340002,None,270.3052605990001,270.3052968420002,None,,,,,,,,,,,,,,,,,68,001,0,,2024-04-16_09h55.14.105,replicate_nsd,2023.2.3,59.86538931958263,2024-04-16 09h55.27.690645 -0400,
blank.jpg,39,1,0,0,0,"[9, 19, 29, 39, 49, 59, 68, 69, 70, 71]",,,,,0,39,39,39,270.3208809030002,,,,,,,,,,,,,,,,,,,,,,,,,,,,,,,,,,,,,,,,,,,,,,,,270.30567536900026,270.3057951390001,270.30580766799994,,,,,,,,,270.30985396200003,None,0,None,270.31025314299995,274.3044531210003,None,274.3046674520001,274.3047269880003,None,274.30485926300025,274.3048963460001,None,270.3208809030002,270.3208809030002,274.32524805,274.32524805,,,,,,,,,,,,,68,001,0,,2024-04-16_09h55.14.105,replicate_nsd,2023.2.3,59.86538931958263,2024-04-16 09h55.27.690645 -0400,
images/image_652_seed_1.png,40,0,0,0,0,"[9, 19, 29, 39, 49, 59, 68, 69, 70, 71]",,,,,0,40,40,40,274.32524805,,,,,,,,,,,,,,,,,,,,,,,,,,,,,,,,,,,,,,,,,,,,,,,,274.3052943110001,274.3054112489999,274.305423754,274.32524805,274.32524805,275.3208715999999,275.3208715999999,278.32539097000017,278.32539097000017,278.32539097000017,278.32539097000017,278.3046379370003,None,0,None,278.30506907400013,278.30511749100015,None,278.3052336589999,278.305287617,None,278.305400317,278.30543637300025,None,,,,,,,,,,,,,,,,,68,001,0,,2024-04-16_09h55.14.105,replicate_nsd,2023.2.3,59.86538931958263,2024-04-16 09h55.27.690645 -0400,
images/image_679_seed_1.png,41,0,0,0,0,"[9, 19, 29, 39, 49, 59, 68, 69, 70, 71]",,,,,0,41,41,41,278.32539097000017,,,,,,,,,,,,,,,,,,,,,,,,,,,,,,,,,,,,,,,,,,,,,,,,278.3058153070001,278.30593481799997,278.3059476100002,278.32539097000017,278.32539097000017,279.32051986700026,279.32051986700026,282.3236240430001,282.3236240430001,282.3236240430001,282.3236240430001,282.3048809820002,None,0,None,282.305316039,282.3053625990001,None,282.3054814410002,282.30553525899995,None,282.30565010500004,282.3056867790001,None,,,,,,,,,,,,,,,,,68,001,0,,2024-04-16_09h55.14.105,replicate_nsd,2023.2.3,59.86538931958263,2024-04-16 09h55.27.690645 -0400,
images/image_665_seed_1.png,42,0,0,0,0,"[9, 19, 29, 39, 49, 59, 68, 69, 70, 71]",,,,,0,42,42,42,282.3236240430001,,,,,,,,,,,,,,,,,,,,,,,,,,,,,,,,,,,,,,,,,,,,,,,,282.3060716099999,282.3061916930001,282.3062040949999,282.3236240430001,282.3236240430001,283.321171779,283.321171779,286.328514973,286.328514973,286.328514973,286.328514973,286.30488252800023,None,0,None,286.30531178599995,286.30535895899993,None,286.30547329399997,286.30552668200016,None,286.3056407889999,286.3056767799999,None,,,,,,,,,,,,,,,,,68,001,0,,2024-04-16_09h55.14.105,replicate_nsd,2023.2.3,59.86538931958263,2024-04-16 09h55.27.690645 -0400,
images/image_442_seed_1.png,43,0,0,0,0,"[9, 19, 29, 39, 49, 59, 68, 69, 70, 71]",,,,,0,43,43,43,286.328514973,,,,,,,,,,,,,,,,,,,,,,,,,,,,,,,,,,,,,,,,,,,,,,,,286.3060577320002,286.30617739299987,286.3061902170002,286.328514973,286.328514973,287.32129886600023,287.32129886600023,290.3311617649997,290.3311617649997,290.3311617649997,290.3311617649997,290.30504781200034,None,0,None,290.3054778759997,290.3055250110001,None,290.30564000400045,290.3056930290004,None,290.3058073479997,290.3058434550003,None,,,,,,,,,,,,,,,,,68,001,0,,2024-04-16_09h55.14.105,replicate_nsd,2023.2.3,59.86538931958263,2024-04-16 09h55.27.690645 -0400,
images/image_112_seed_1.png,44,0,0,0,0,"[9, 19, 29, 39, 49, 59, 68, 69, 70, 71]",,,,,0,44,44,44,290.3311617649997,,,,,,,,,,,,,,,,,,,,,,,,,,,,,,,,,,,,,,,,,,,,,,,,290.30622175900044,290.3063413640002,290.30635398400045,290.3311617649997,290.3311617649997,291.32135143899995,291.32135143899995,294.3260282560004,294.3260282560004,294.3260282560004,294.3260282560004,294.30518200500046,None,0,None,294.30561268400015,294.3056599250003,None,294.30577891600024,294.30583472800026,None,294.30596039300053,294.3059974130001,None,,,,,,,,,,,,,,,,,68,001,0,,2024-04-16_09h55.14.105,replicate_nsd,2023.2.3,59.86538931958263,2024-04-16 09h55.27.690645 -0400,
images/image_81_seed_1.png,45,0,0,0,0,"[9, 19, 29, 39, 49, 59, 68, 69, 70, 71]",,,,,0,45,45,45,294.3260282560004,,,,,,,,,,,,,,,,,,,,,,,,,,,,,,,,,,,,,,,,,,,,,,,,294.3063806219998,294.30650300900015,294.3065156749999,294.3260282560004,294.3260282560004,295.3214957959999,295.3214957959999,298.32901961800053,298.32901961800053,298.32901961800053,298.32901961800053,298.30522949399983,None,0,None,298.30565814700003,298.3057039129999,None,298.30581910900037,298.30587194300006,None,298.3059857819999,298.30602177000037,None,,,,,,,,,,,,,,,,,68,001,0,,2024-04-16_09h55.14.105,replicate_nsd,2023.2.3,59.86538931958263,2024-04-16 09h55.27.690645 -0400,
images/paired_image_206_2.png,46,0,0,0,0,"[9, 19, 29, 39, 49, 59, 68, 69, 70, 71]",,,,,0,46,46,46,298.32901961800053,,,,,,,,,,,,,,,,,,,,,,,,,,,,,,,,,,,,,,,,,,,,,,,,298.3064029400002,298.30652292500054,298.3065353960001,298.32901961800053,298.32901961800053,299.3216252150005,299.3216252150005,302.3278980109999,302.3278980109999,302.3278980109999,302.3278980109999,302.3054165700005,None,0,None,302.3058444650005,302.30589074399995,None,302.3060060280004,302.3060594899998,None,302.3061732670003,302.3062087950002,None,,,,,,,,,,,,,,,,,68,001,0,,2024-04-16_09h55.14.105,replicate_nsd,2023.2.3,59.86538931958263,2024-04-16 09h55.27.690645 -0400,
images/image_276_seed_1.png,47,0,0,0,0,"[9, 19, 29, 39, 49, 59, 68, 69, 70, 71]",,,,,0,47,47,47,302.3278980109999,,,,,,,,,,,,,,,,,,,,,,,,,,,,,,,,,,,,,,,,,,,,,,,,302.30658761500035,302.3067073299999,302.3067196410002,302.3278980109999,302.3278980109999,303.32147835700016,303.32147835700016,306.3295963190003,306.3295963190003,306.3295963190003,306.3295963190003,306.3053111090003,None,0,None,306.3057380729997,306.3057841310001,None,306.30589910900017,306.3059523259999,None,306.30606503800027,306.3061014300001,None,,,,,,,,,,,,,,,,,68,001,0,,2024-04-16_09h55.14.105,replicate_nsd,2023.2.3,59.86538931958263,2024-04-16 09h55.27.690645 -0400,
images/image_721_seed_1.png,48,0,0,0,0,"[9, 19, 29, 39, 49, 59, 68, 69, 70, 71]",,,,,0,48,48,48,306.3295963190003,,,,,,,,,,,,,,,,,,,,,,,,,,,,,,,,,,,,,,,,,,,,,,,,306.3064796139997,306.30659802900027,306.3066105170001,306.3295963190003,306.3295963190003,307.3217357849999,307.3217357849999,310.3218679640004,310.3218679640004,310.3218679640004,310.3218679640004,310.30547856799967,None,0,None,310.30591258999993,310.3059583049999,None,310.3060738889999,310.3061278940004,None,310.30624433200046,310.30628020400036,None,,,,,,,,,,,,,,,,,68,001,0,,2024-04-16_09h55.14.105,replicate_nsd,2023.2.3,59.86538931958263,2024-04-16 09h55.27.690645 -0400,
blank.jpg,49,1,0,0,0,"[9, 19, 29, 39, 49, 59, 68, 69, 70, 71]",,,,,0,49,49,49,310.3218679640004,,,,,,,,,,,,,,,,,,,,,,,,,,,,,,,,,,,,,,,,,,,,,,,,310.30666661800024,310.3067881910001,310.3068007940001,,,,,,,,,310.3102260280002,None,0,None,310.31054879099975,314.3054070369999,None,314.3056163680003,314.3056729660002,None,314.30579868899986,314.3058353759998,None,310.3218679640004,310.3218679640004,314.3280809630005,314.3280809630005,,,,,,,,,,,,,68,001,0,,2024-04-16_09h55.14.105,replicate_nsd,2023.2.3,59.86538931958263,2024-04-16 09h55.27.690645 -0400,
images/image_155_seed_1.png,50,0,0,0,0,"[9, 19, 29, 39, 49, 59, 68, 69, 70, 71]",,,,,0,50,50,50,314.3280809630005,,,,,,,,,,,,,,,,,,,,,,,,,,,,,,,,,,,,,,,,,,,,,,,,314.30623415599985,314.30635297200024,314.3063652609999,314.3280809630005,314.3280809630005,315.32197089300007,315.32197089300007,318.3281662979998,318.3281662979998,318.3281662979998,318.3281662979998,318.30574956300006,None,0,None,318.3061763659998,318.30622266299997,None,318.3063351689998,318.30638916099997,None,318.30650172900005,318.3065371980001,None,,,,,,,,,,,,,,,,,68,001,0,,2024-04-16_09h55.14.105,replicate_nsd,2023.2.3,59.86538931958263,2024-04-16 09h55.27.690645 -0400,
images/image_529_seed_1.png,51,0,0,0,0,"[9, 19, 29, 39, 49, 59, 68, 69, 70, 71]",,,,,0,51,51,51,318.3281662979998,,,,,,,,,,,,,,,,,,,,,,,,,,,,,,,,,,,,,,,,,,,,,,,,318.3069117550003,318.30703314200036,318.30704579400026,318.3281662979998,318.3281662979998,319.3220462010004,319.3220462010004,322.32820883899967,322.32820883899967,322.32820883899967,322.32820883899967,322.3058425859999,None,0,None,322.30627269100023,322.3063191279998,None,322.30643390800014,322.30648848200053,None,322.3066022210005,322.30663861799985,None,,,,,,,,,,,,,,,,,68,001,0,,2024-04-16_09h55.14.105,replicate_nsd,2023.2.3,59.86538931958263,2024-04-16 09h55.27.690645 -0400,
images/image_461_seed_1.png,52,0,0,0,0,"[9, 19, 29, 39, 49, 59, 68, 69, 70, 71]",,,,,0,52,52,52,322.32820883899967,,,,,,,,,,,,,,,,,,,,,,,,,,,,,,,,,,,,,,,,,,,,,,,,322.30701602800036,322.30713617400033,322.3071487950001,322.32820883899967,322.32820883899967,323.3222377259999,323.3222377259999,326.33077832900017,326.33077832900017,326.33077832900017,326.33077832900017,326.3059106689998,None,0,None,326.30633803900037,326.30638469899986,None,326.30649822899977,326.30655155099976,None,326.3066661009998,326.30670235100024,None,,,,,,,,,,,,,,,,,68,001,0,,2024-04-16_09h55.14.105,replicate_nsd,2023.2.3,59.86538931958263,2024-04-16 09h55.27.690645 -0400,
images/image_35_seed_1.png,53,0,0,0,0,"[9, 19, 29, 39, 49, 59, 68, 69, 70, 71]",,,,,0,53,53,53,326.33077832900017,,,,,,,,,,,,,,,,,,,,,,,,,,,,,,,,,,,,,,,,,,,,,,,,326.3070836320003,326.3072030960002,326.3072154370002,326.33077832900017,326.33077832900017,327.3222982870002,327.3222982870002,330.32824832700044,330.32824832700044,330.32824832700044,330.32824832700044,330.30593920200045,None,0,None,330.30636370400043,330.30640988100004,None,330.3065228840005,330.3065767859998,None,330.30668923099984,330.3067247549998,None,,,,,,,,,,,,,,,,,68,001,0,,2024-04-16_09h55.14.105,replicate_nsd,2023.2.3,59.86538931958263,2024-04-16 09h55.27.690645 -0400,
images/image_506_seed_1.png,54,0,0,0,0,"[9, 19, 29, 39, 49, 59, 68, 69, 70, 71]",,,,,0,54,54,54,330.32824832700044,,,,,,,,,,,,,,,,,,,,,,,,,,,,,,,,,,,,,,,,,,,,,,,,330.30710697999984,330.3072277800002,330.30724033000024,330.32824832700044,330.32824832700044,331.3221708580004,331.3221708580004,334.33089939799993,334.33089939799993,334.33089939799993,334.33089939799993,334.30615943199973,None,0,None,334.30658982800014,334.30663739600004,None,334.30675342700033,334.30680728900006,None,334.30692228000044,334.306958528,None,,,,,,,,,,,,,,,,,68,001,0,,2024-04-16_09h55.14.105,replicate_nsd,2023.2.3,59.86538931958263,2024-04-16 09h55.27.690645 -0400,
images/image_678_seed_1.png,55,0,0,0,0,"[9, 19, 29, 39, 49, 59, 68, 69, 70, 71]",,,,,0,55,55,55,334.33089939799993,,,,,,,,,,,,,,,,,,,,,,,,,,,,,,,,,,,,,,,,,,,,,,,,334.30734131400004,334.3074623729999,334.3074750020005,334.33089939799993,334.33089939799993,335.3224786720002,335.3224786720002,338.32719628700033,338.32719628700033,338.32719628700033,338.32719628700033,338.30625004600006,None,0,None,338.30667674400047,338.30672254300043,None,338.3068369250004,338.30689022800016,None,338.30700498999977,338.3070409669999,None,,,,,,,,,,,,,,,,,68,001,0,,2024-04-16_09h55.14.105,replicate_nsd,2023.2.3,59.86538931958263,2024-04-16 09h55.27.690645 -0400,
images/image_394_seed_1.png,56,0,0,0,0,"[9, 19, 29, 39, 49, 59, 68, 69, 70, 71]",,,,,0,56,56,56,338.32719628700033,,,,,,,,,,,,,,,,,,,,,,,,,,,,,,,,,,,,,,,,,,,,,,,,338.3074204049999,338.30753952299983,338.3075515930004,338.32719628700033,338.32719628700033,339.3226005389997,339.3226005389997,342.3225213229998,342.3225213229998,342.3225213229998,342.3225213229998,342.3063720800001,None,0,None,342.30679939200036,342.30684540400034,None,342.3069600640001,342.3070136010001,None,342.3071265950002,342.3071622520001,None,,,,,,,,,,,,,,,,,68,001,0,,2024-04-16_09h55.14.105,replicate_nsd,2023.2.3,59.86538931958263,2024-04-16 09h55.27.690645 -0400,
images/6_44.png,57,0,0,0,0,"[9, 19, 29, 39, 49, 59, 68, 69, 70, 71]",,,,,0,57,57,57,342.3225213229998,,,,,,,,,,,,,,,,,,,,,,,,,,,,,,,,,,,,,,,,,,,,,,,,342.307541442,342.30766163000044,342.30767408999964,342.3225213229998,342.3225213229998,343.32169754500046,343.32169754500046,346.329157616,346.329157616,346.329157616,346.329157616,346.3062039739998,None,0,None,346.3066281880001,346.3066724680002,None,346.3067861950003,346.3068385910001,None,346.30695063500025,346.3069860579999,None,,,,,,,,,,,,,,,,,68,001,0,,2024-04-16_09h55.14.105,replicate_nsd,2023.2.3,59.86538931958263,2024-04-16 09h55.27.690645 -0400,
images/image_716_seed_1.png,58,0,0,0,0,"[9, 19, 29, 39, 49, 59, 68, 69, 70, 71]",,,,,0,58,58,58,346.329157616,,,,,,,,,,,,,,,,,,,,,,,,,,,,,,,,,,,,,,,,,,,,,,,,346.3073662229999,346.3074853200005,346.30749768700025,346.329157616,346.329157616,347.3228423010005,347.3228423010005,350.3228589780001,350.3228589780001,350.3228589780001,350.3228589780001,350.30660003200046,None,0,None,350.3070242370004,350.30706980000014,None,350.30718400000023,350.3072372300003,None,350.30735078199996,350.3073864520002,None,,,,,,,,,,,,,,,,,68,001,0,,2024-04-16_09h55.14.105,replicate_nsd,2023.2.3,59.86538931958263,2024-04-16 09h55.27.690645 -0400,
blank.jpg,59,1,0,0,0,"[9, 19, 29, 39, 49, 59, 68, 69, 70, 71]",,,,,0,59,59,59,350.3228589780001,,,,,,,,,,,,,,,,,,,,,,,,,,,,,,,,,,,,,,,,,,,,,,,,350.30776219900054,350.3078808830005,350.30789374400047,,,,,,,,,350.3116360240001,None,0,None,350.31203551700037,354.30658322,None,354.30679756799964,354.3068545320002,None,354.3069812570002,354.307017397,None,350.3228589780001,350.3228589780001,354.328806687,354.328806687,,,,,,,,,,,,,68,001,0,,2024-04-16_09h55.14.105,replicate_nsd,2023.2.3,59.86538931958263,2024-04-16 09h55.27.690645 -0400,
images/image_727_seed_1.png,60,0,0,0,0,"[9, 19, 29, 39, 49, 59, 68, 69, 70, 71]",,,,,0,60,60,60,354.328806687,,,,,,,,,,,,,,,,,,,,,,,,,,,,,,,,,,,,,,,,,,,,,,,,354.3074176119999,354.3075364570004,354.30754848200013,354.328806687,354.328806687,355.32302896200054,355.32302896200054,358.32908969599976,358.32908969599976,358.32908969599976,358.32908969599976,358.3067376959998,None,0,None,358.3071680840003,358.30721488900053,None,358.3073302620005,358.30738510799983,None,358.3074996060004,358.30753510199975,None,,,,,,,,,,,,,,,,,68,001,0,,2024-04-16_09h55.14.105,replicate_nsd,2023.2.3,59.86538931958263,2024-04-16 09h55.27.690645 -0400,
images/image_86_seed_1.png,61,0,0,0,0,"[9, 19, 29, 39, 49, 59, 68, 69, 70, 71]",,,,,0,61,61,61,358.32908969599976,,,,,,,,,,,,,,,,,,,,,,,,,,,,,,,,,,,,,,,,,,,,,,,,358.30791346000024,358.3080326039999,358.308045021,358.32908969599976,358.32908969599976,359.32315624199964,359.32315624199964,362.32673332800005,362.32673332800005,362.32673332800005,362.32673332800005,362.30685472500045,None,0,None,362.30728321399965,362.3073292850004,None,362.30744400500043,362.3074973519997,None,362.30761086799976,362.3076472069997,None,,,,,,,,,,,,,,,,,68,001,0,,2024-04-16_09h55.14.105,replicate_nsd,2023.2.3,59.86538931958263,2024-04-16 09h55.27.690645 -0400,
images/image_65_seed_1.png,62,0,0,0,0,"[9, 19, 29, 39, 49, 59, 68, 69, 70, 71]",,,,,0,62,62,62,362.32673332800005,,,,,,,,,,,,,,,,,,,,,,,,,,,,,,,,,,,,,,,,,,,,,,,,362.30798704599965,362.30808189100026,362.308091977,362.32673332800005,362.32673332800005,363.32325614399997,363.32325614399997,366.32893803499974,366.32893803499974,366.32893803499974,366.32893803499974,366.30695090300014,None,0,None,366.30737754599977,366.30742358099997,None,366.30753849600023,366.30759637200026,None,366.3077109599999,366.30774743500024,None,,,,,,,,,,,,,,,,,68,001,0,,2024-04-16_09h55.14.105,replicate_nsd,2023.2.3,59.86538931958263,2024-04-16 09h55.27.690645 -0400,
images/image_149_seed_1.png,63,0,0,0,0,"[9, 19, 29, 39, 49, 59, 68, 69, 70, 71]",,,,,0,63,63,63,366.32893803499974,,,,,,,,,,,,,,,,,,,,,,,,,,,,,,,,,,,,,,,,,,,,,,,,366.3081269740005,366.3082468190005,366.30825927299975,366.32893803499974,366.32893803499974,367.3234381359998,367.3234381359998,370.3324878220001,370.3324878220001,370.3324878220001,370.3324878220001,370.3070165930003,None,0,None,370.3074521970002,370.3074985330004,None,370.3076140000003,370.3076678790003,None,370.30778266299967,370.30781915199987,None,,,,,,,,,,,,,,,,,68,001,0,,2024-04-16_09h55.14.105,replicate_nsd,2023.2.3,59.86538931958263,2024-04-16 09h55.27.690645 -0400,
images/image_465_seed_1.png,64,0,0,0,0,"[9, 19, 29, 39, 49, 59, 68, 69, 70, 71]",,,,,0,64,64,64,370.3324878220001,,,,,,,,,,,,,,,,,,,,,,,,,,,,,,,,,,,,,,,,,,,,,,,,370.3082017980005,370.30832257400016,370.30833553699995,370.3324878220001,370.3324878220001,371.3234125930003,371.3234125930003,374.32250292000026,374.32250292000026,374.32250292000026,374.32250292000026,374.30600700099967,None,0,None,374.30626623100034,374.30629194300036,None,374.3063559740003,374.3063866880002,None,374.306449271,374.3064693189999,None,,,,,,,,,,,,,,,,,68,001,0,,2024-04-16_09h55.14.105,replicate_nsd,2023.2.3,59.86538931958263,2024-04-16 09h55.27.690645 -0400,
images/w_gym1.jpg,65,0,0,0,0,"[9, 19, 29, 39, 49, 59, 68, 69, 70, 71]",,,,,0,65,65,65,374.32250292000026,,,,,,,,,,,,,,,,,,,,,,,,,,,,,,,,,,,,,,,,,,,,,,,,374.3066865669998,374.30675548199997,374.3067626889997,374.32250292000026,374.32250292000026,375.32253117300024,375.32253117300024,378.32585563999965,378.32585563999965,378.32585563999965,378.32585563999965,378.30629906299964,None,0,None,378.30662369499987,378.3066572919997,None,378.30673857500005,378.3067775270001,None,378.30685864099996,378.30688477400054,None,,,,,,,,,,,,,,,,,68,001,0,,2024-04-16_09h55.14.105,replicate_nsd,2023.2.3,59.86538931958263,2024-04-16 09h55.27.690645 -0400,
images/image_481_seed_1.png,66,0,0,0,0,"[9, 19, 29, 39, 49, 59, 68, 69, 70, 71]",,,,,0,66,66,66,378.32585563999965,,,,,,,,,,,,,,,,,,,,,,,,,,,,,,,,,,,,,,,,,,,,,,,,378.3071634050002,378.3072514590003,378.3072604810004,378.32585563999965,378.32585563999965,379.3224501300001,379.3224501300001,382.32856018500024,382.32856018500024,382.32856018500024,382.32856018500024,382.3073518250003,None,0,None,382.307779277,382.30782654500035,None,382.3079406269999,382.3079946859998,None,382.3081079470003,382.3081447889999,None,,,,,,,,,,,,,,,,,68,001,0,,2024-04-16_09h55.14.105,replicate_nsd,2023.2.3,59.86538931958263,2024-04-16 09h55.27.690645 -0400,
images/image_720_seed_1.png,67,0,0,0,0,"[9, 19, 29, 39, 49, 59, 68, 69, 70, 71]",,,,,0,67,67,67,382.32856018500024,,,,,,,,,,,,,,,,,,,,,,,,,,,,,,,,,,,,,,,,,,,,,,,,382.30852524200054,382.3086454280001,382.30865790200005,382.32856018500024,382.32856018500024,383.3237075090001,383.3237075090001,386.3238574429997,386.3238574429997,386.3238574429997,386.3238574429997,386.3074530980002,None,0,None,386.30787876999966,386.30792517400005,None,386.30803854700025,386.3080925100003,None,386.30820528300046,386.3082402560003,None,,,,,,,,,,,,,,,,,68,001,0,,2024-04-16_09h55.14.105,replicate_nsd,2023.2.3,59.86538931958263,2024-04-16 09h55.27.690645 -0400,
blank.jpg,68,1,0,0,0,"[9, 19, 29, 39, 49, 59, 68, 69, 70, 71]",,,,,0,68,68,68,386.3238574429997,,,,,,,,,,,,,,,,,,,,,,,,,,,,,,,,,,,,,,,,,,,,,,,,386.30862051999975,386.30873925299966,386.30875173999993,,,,,,,,,386.31227776800006,None,0,None,386.3126069919999,390.30635999100014,None,390.30648925900005,390.3065222559999,None,390.30659195800035,390.306612546,None,386.3238574429997,386.3238574429997,390.322874642,390.322874642,,,,,,,,,,,,,68,001,0,,2024-04-16_09h55.14.105,replicate_nsd,2023.2.3,59.86538931958263,2024-04-16 09h55.27.690645 -0400,
blank.jpg,69,1,0,0,0,"[9, 19, 29, 39, 49, 59, 68, 69, 70, 71]",,,,,0,69,69,69,390.322874642,,,,,,,,,,,,,,,,,,,,,,,,,,,,,,,,,,,,,,,,,,,,,,,,390.30683187900013,390.30689876500037,390.3069054970001,,,,,,,,,390.3084132740005,None,0,None,390.3086057159999,394.3078675400002,None,394.3079834600003,394.30801727200014,None,394.308089528,394.30811065499984,None,390.322874642,390.322874642,394.32271331300035,394.32271331300035,,,,,,,,,,,,,68,001,0,,2024-04-16_09h55.14.105,replicate_nsd,2023.2.3,59.86538931958263,2024-04-16 09h55.27.690645 -0400,
blank.jpg,70,1,0,0,0,"[9, 19, 29, 39, 49, 59, 68, 69, 70, 71]",,,,,0,70,70,70,394.32271331300035,,,,,,,,,,,,,,,,,,,,,,,,,,,,,,,,,,,,,,,,,,,,,,,,394.30833457599965,394.30840093000006,394.3084079150003,,,,,,,,,394.3099721710005,None,0,None,394.3101704010005,398.30986664300053,None,398.3100821300004,398.3101401439999,None,398.3102708659999,398.3103080860001,None,394.32271331300035,394.32271331300035,398.32405679800013,398.32405679800013,,,,,,,,,,,,,68,001,0,,2024-04-16_09h55.14.105,replicate_nsd,2023.2.3,59.86538931958263,2024-04-16 09h55.27.690645 -0400,
blank.jpg,71,1,0,1,0,"[9, 19, 29, 39, 49, 59, 68, 69, 70, 71]",,,,,0,71,71,71,398.32405679800013,,,,,,,,,,,,,,,,,,,,,,,,,,,,,,,,,,,,,,,,,,,,,,,,398.3107049600003,398.310823668,398.3108364660002,,,,,,,,,398.31333447700035,None,0,None,398.3136584740005,402.3098754069997,None,402.31009002500014,407.36012281199964,1,407.3616509809999,408.72657302800053,equal,398.32405679800013,398.32405679800013,402.3245281970003,402.3245281970003,402.3245281970003,402.3245281970003,5.031439047999811,None,407.37610980499994,407.37610980499994,1.3499935549998554,None,,,,,68,001,0,,2024-04-16_09h55.14.105,replicate_nsd,2023.2.3,59.86538931958263,2024-04-16 09h55.27.690645 -0400,
images/image_266_seed_1.png,0,0,0,0,1,"[9, 19, 31, 42, 56, 68, 69, 70, 71]",,,,,0,72,72,72,408.7470957840005,,,,,,,,,,,,,,,,,,,,,,,,,,,,,,,,,,,,,,,,,,,,,,,,408.7277388600005,408.7278341990004,408.72784320699975,408.7470957840005,408.7470957840005,409.7428215460004,409.7428215460004,412.7485681200005,412.7485681200005,412.7485681200005,412.7485681200005,412.7247321320001,1,1,None,412.7263087620004,412.726357388,None,412.72643800100013,412.72648002500046,None,412.72656321199975,412.7265905430004,None,,,,,,,,,,,,,2.774677337999492,None,,,68,001,0,,2024-04-16_09h55.14.105,replicate_nsd,2023.2.3,59.86538931958263,2024-04-16 09h55.27.690645 -0400,
images/image_377_seed_1.png,1,0,0,0,1,"[9, 19, 31, 42, 56, 68, 69, 70, 71]",,,,,0,73,73,73,412.7485681200005,,,,,,,,,,,,,,,,,,,,,,,,,,,,,,,,,,,,,,,,,,,,,,,,412.72685684299995,412.7269882870005,412.7269974000001,412.7485681200005,412.7485681200005,413.74112968100053,413.74112968100053,416.75258037000003,416.75258037000003,416.75258037000003,416.75258037000003,416.72727384599966,1,1,"['1', '1', '1', '1']",416.72981159699975,416.7298624770001,None,416.7299904520005,416.73004779300027,None,416.7301657019998,416.7302021590003,None,,,,,,,,,,,,,2.6978858029997355,None,"[0.18451266499960184, 0.3684188309998717, 0.5787170339999648, 0.7940240549996815]","[None, None, None, None]",68,001,0,,2024-04-16_09h55.14.105,replicate_nsd,2023.2.3,59.86538931958263,2024-04-16 09h55.27.690645 -0400,
images/image_616_seed_1.png,2,0,0,0,1,"[9, 19, 31, 42, 56, 68, 69, 70, 71]",,,,,0,74,74,74,416.75258037000003,,,,,,,,,,,,,,,,,,,,,,,,,,,,,,,,,,,,,,,,,,,,,,,,416.7305705429999,416.7306680439997,416.7306781289999,416.75258037000003,416.75258037000003,417.7413225700002,417.7413225700002,420.75062160000016,420.75062160000016,420.75062160000016,420.75062160000016,420.72774743100035,1,1,"['1', '1', '1']",420.72857343099986,420.7286215009999,None,420.72873457600053,420.72879252300027,None,420.72890635800013,420.72894282299967,None,,,,,,,,,,,,,2.62700695500007,None,"[0.3084032879996812, 0.5686628829998881, 0.7980253830000947]","[None, None, None]",68,001,0,,2024-04-16_09h55.14.105,replicate_nsd,2023.2.3,59.86538931958263,2024-04-16 09h55.27.690645 -0400,
images/image_530_seed_1.png,3,0,0,0,1,"[9, 19, 31, 42, 56, 68, 69, 70, 71]",,,,,0,75,75,75,420.75062160000016,,,,,,,,,,,,,,,,,,,,,,,,,,,,,,,,,,,,,,,,,,,,,,,,420.7293209569998,420.7294410559998,420.72945389100005,420.75062160000016,420.75062160000016,421.74137518000043,421.74137518000043,424.74584833300014,424.74584833300014,424.74584833300014,424.74584833300014,424.72508653800014,None,0,None,424.725514533,424.72556129999975,None,424.72567494899977,424.72573023099994,None,424.7258430009997,424.72587890199975,None,,,,,,,,,,,,,,,,,68,001,0,,2024-04-16_09h55.14.105,replicate_nsd,2023.2.3,59.86538931958263,2024-04-16 09h55.27.690645 -0400,
images/image_737_seed_1.png,4,0,0,0,1,"[9, 19, 31, 42, 56, 68, 69, 70, 71]",,,,,0,76,76,76,424.74584833300014,,,,,,,,,,,,,,,,,,,,,,,,,,,,,,,,,,,,,,,,,,,,,,,,424.726254786,424.72637434399985,424.72638729499977,424.74584833300014,424.74584833300014,425.7415118179997,425.7415118179997,428.75097966500016,428.75097966500016,428.75097966500016,428.75097966500016,428.7279230189997,None,0,None,428.72853519,428.7285808409997,None,428.728691112,428.7287454260004,None,428.72885551299987,428.7288897190001,None,,,,,,,,,,,,,,,,,68,001,0,,2024-04-16_09h55.14.105,replicate_nsd,2023.2.3,59.86538931958263,2024-04-16 09h55.27.690645 -0400,
images/image_458_seed_1.png,5,0,0,0,1,"[9, 19, 31, 42, 56, 68, 69, 70, 71]",,,,,0,77,77,77,428.75097966500016,,,,,,,,,,,,,,,,,,,,,,,,,,,,,,,,,,,,,,,,,,,,,,,,428.72926230899975,428.7293806990001,428.7293932769999,428.75097966500016,428.75097966500016,429.74360814099964,429.74360814099964,432.7477126240001,432.7477126240001,432.7477126240001,432.7477126240001,432.72703005699987,None,0,None,432.72748098900047,432.72752821500035,None,432.72764356300013,432.72769866100043,None,432.72781385100006,432.7278501870005,None,,,,,,,,,,,,,,,,,68,001,0,,2024-04-16_09h55.14.105,replicate_nsd,2023.2.3,59.86538931958263,2024-04-16 09h55.27.690645 -0400,
images/paired_image_41_1.png,6,0,0,0,1,"[9, 19, 31, 42, 56, 68, 69, 70, 71]",,,,,0,78,78,78,432.7477126240001,,,,,,,,,,,,,,,,,,,,,,,,,,,,,,,,,,,,,,,,,,,,,,,,432.72821231299986,432.72830943900044,432.72831972099993,432.7477126240001,432.7477126240001,433.7416594839997,433.7416594839997,436.7468256479997,436.7468256479997,436.7468256479997,436.7468256479997,436.72676842300007,None,0,None,436.72720412499984,436.7272502659998,None,436.7273660820001,436.7274221790003,None,436.7275363839999,436.7275726079997,None,,,,,,,,,,,,,,,,,68,001,0,,2024-04-16_09h55.14.105,replicate_nsd,2023.2.3,59.86538931958263,2024-04-16 09h55.27.690645 -0400,
images/image_238_seed_1.png,7,0,0,0,1,"[9, 19, 31, 42, 56, 68, 69, 70, 71]",,,,,0,79,79,79,436.7468256479997,,,,,,,,,,,,,,,,,,,,,,,,,,,,,,,,,,,,,,,,,,,,,,,,436.72794646500006,436.72804293599984,436.7280530810003,436.7468256479997,436.7468256479997,437.741858114,437.741858114,440.7505098299998,440.7505098299998,440.7505098299998,440.7505098299998,440.72553023599994,None,0,None,440.7259610760002,440.7260074020005,None,440.72612135000054,440.726176659,None,440.7262905990001,440.726326514,None,,,,,,,,,,,,,,,,,68,001,0,,2024-04-16_09h55.14.105,replicate_nsd,2023.2.3,59.86538931958263,2024-04-16 09h55.27.690645 -0400,
images/image_505_seed_1.png,8,0,0,0,1,"[9, 19, 31, 42, 56, 68, 69, 70, 71]",,,,,0,80,80,80,440.7505098299998,,,,,,,,,,,,,,,,,,,,,,,,,,,,,,,,,,,,,,,,,,,,,,,,440.7267093780001,440.72682998799974,440.7268426190003,440.7505098299998,440.7505098299998,441.7436308030001,441.7436308030001,444.7420279529997,444.7420279529997,444.7420279529997,444.7420279529997,444.72737020099976,None,0,None,444.7277966170004,444.72784330800005,None,444.72795667599985,444.728014884,None,444.72812809900006,444.7281638559998,None,,,,,,,,,,,,,,,,,68,001,0,,2024-04-16_09h55.14.105,replicate_nsd,2023.2.3,59.86538931958263,2024-04-16 09h55.27.690645 -0400,
blank.jpg,9,1,0,0,1,"[9, 19, 31, 42, 56, 68, 69, 70, 71]",,,,,0,81,81,81,444.7420279529997,,,,,,,,,,,,,,,,,,,,,,,,,,,,,,,,,,,,,,,,,,,,,,,,444.72853980000036,444.72866041,444.72867298799974,,,,,,,,,444.733086577,None,0,None,444.7334847410002,448.727547986,None,448.72776200499993,448.72782128000017,None,448.72794961,448.7279873180005,None,444.7420279529997,444.7420279529997,448.74640311500025,448.74640311500025,,,,,,,,,,,,,68,001,0,,2024-04-16_09h55.14.105,replicate_nsd,2023.2.3,59.86538931958263,2024-04-16 09h55.27.690645 -0400,
images/image_142_seed_1.png,10,0,0,0,1,"[9, 19, 31, 42, 56, 68, 69, 70, 71]",,,,,0,82,82,82,448.74640311500025,,,,,,,,,,,,,,,,,,,,,,,,,,,,,,,,,,,,,,,,,,,,,,,,448.72839304599984,448.72851351200006,448.72852598400004,448.74640311500025,448.74640311500025,449.7421292380004,449.7421292380004,452.7510419299997,452.7510419299997,452.7510419299997,452.7510419299997,452.72841372400035,None,0,None,452.72884277200046,452.72889088300053,None,452.72900618899985,452.7290660790004,None,452.7291799120003,452.7292164600003,None,,,,,,,,,,,,,,,,,68,001,0,,2024-04-16_09h55.14.105,replicate_nsd,2023.2.3,59.86538931958263,2024-04-16 09h55.27.690645 -0400,
images/image_371_seed_1.png,11,0,0,0,1,"[9, 19, 31, 42, 56, 68, 69, 70, 71]",,,,,0,83,83,83,452.7510419299997,,,,,,,,,,,,,,,,,,,,,,,,,,,,,,,,,,,,,,,,,,,,,,,,452.7295941100001,452.7297135380004,452.7297261140002,452.7510419299997,452.7510419299997,453.7423211309997,453.7423211309997,456.7491363750005,456.7491363750005,456.7491363750005,456.7491363750005,456.72844279400033,None,0,None,456.7288726480001,456.72891922300005,None,456.7290341509997,456.72909020299994,None,456.72920506399987,456.7292404640002,None,,,,,,,,,,,,,,,,,68,001,0,,2024-04-16_09h55.14.105,replicate_nsd,2023.2.3,59.86538931958263,2024-04-16 09h55.27.690645 -0400,
images/image_599_seed_1.png,12,0,0,0,1,"[9, 19, 31, 42, 56, 68, 69, 70, 71]",,,,,0,84,84,84,456.7491363750005,,,,,,,,,,,,,,,,,,,,,,,,,,,,,,,,,,,,,,,,,,,,,,,,456.729643873,456.7297648140002,456.72977763000017,456.7491363750005,456.7491363750005,457.7420854210004,457.7420854210004,460.74868633799997,460.74868633799997,460.74868633799997,460.74868633799997,460.72595434400046,None,0,None,460.7263833449997,460.7264299620001,None,460.7265443040005,460.726600897,None,460.72671471800004,460.726750842,None,,,,,,,,,,,,,,,,,68,001,0,,2024-04-16_09h55.14.105,replicate_nsd,2023.2.3,59.86538931958263,2024-04-16 09h55.27.690645 -0400,
images/image_449_seed_1.png,13,0,0,0,1,"[9, 19, 31, 42, 56, 68, 69, 70, 71]",,,,,0,85,85,85,460.74868633799997,,,,,,,,,,,,,,,,,,,,,,,,,,,,,,,,,,,,,,,,,,,,,,,,460.72713157700036,460.727252572,460.7272652520005,460.74868633799997,460.74868633799997,461.7441024720001,461.7441024720001,464.7514331100001,464.7514331100001,464.7514331100001,464.7514331100001,464.72858670700043,None,0,None,464.7290156580002,464.7290619690002,None,464.7291770749998,464.72923256600006,None,464.72934702899965,464.72938297400015,None,,,,,,,,,,,,,,,,,68,001,0,,2024-04-16_09h55.14.105,replicate_nsd,2023.2.3,59.86538931958263,2024-04-16 09h55.27.690645 -0400,
images/image_353_seed_1.png,14,0,0,0,1,"[9, 19, 31, 42, 56, 68, 69, 70, 71]",,,,,0,86,86,86,464.7514331100001,,,,,,,,,,,,,,,,,,,,,,,,,,,,,,,,,,,,,,,,,,,,,,,,464.7297634730003,464.72988261200044,464.72989505700025,464.7514331100001,464.7514331100001,465.7424136890004,465.7424136890004,468.7522864299999,468.7522864299999,468.7522864299999,468.7522864299999,468.7285085809999,None,0,None,468.72893486799967,468.72898199300016,None,468.72909552800047,468.7291500849997,None,468.7292651349999,468.72930146199997,None,,,,,,,,,,,,,,,,,68,001,0,,2024-04-16_09h55.14.105,replicate_nsd,2023.2.3,59.86538931958263,2024-04-16 09h55.27.690645 -0400,
images/image_134_seed_1.png,15,0,0,0,1,"[9, 19, 31, 42, 56, 68, 69, 70, 71]",,,,,0,87,87,87,468.7522864299999,,,,,,,,,,,,,,,,,,,,,,,,,,,,,,,,,,,,,,,,,,,,,,,,468.72967733899986,468.7297969299998,468.72980974799975,468.7522864299999,468.7522864299999,469.7444547089999,469.7444547089999,472.75066050500027,472.75066050500027,472.75066050500027,472.75066050500027,472.7286121970001,None,0,None,472.72903821599994,472.7290853479999,None,472.72919900299985,472.7292538829997,None,472.72936570300044,472.72940086499966,None,,,,,,,,,,,,,,,,,68,001,0,,2024-04-16_09h55.14.105,replicate_nsd,2023.2.3,59.86538931958263,2024-04-16 09h55.27.690645 -0400,
images/image_278_seed_1.png,16,0,0,0,1,"[9, 19, 31, 42, 56, 68, 69, 70, 71]",,,,,0,88,88,88,472.75066050500027,,,,,,,,,,,,,,,,,,,,,,,,,,,,,,,,,,,,,,,,,,,,,,,,472.729779798,472.7298995070005,472.72991195099985,472.75066050500027,472.75066050500027,473.7445341190005,473.7445341190005,476.7485423200005,476.7485423200005,476.7485423200005,476.7485423200005,476.7288187129998,None,0,None,476.7292501620004,476.7292962239999,None,476.7294119039998,476.72946631500054,None,476.7295807780001,476.7296167479999,None,,,,,,,,,,,,,,,,,68,001,0,,2024-04-16_09h55.14.105,replicate_nsd,2023.2.3,59.86538931958263,2024-04-16 09h55.27.690645 -0400,
images/image_294_seed_1.png,17,0,0,0,1,"[9, 19, 31, 42, 56, 68, 69, 70, 71]",,,,,0,89,89,89,476.7485423200005,,,,,,,,,,,,,,,,,,,,,,,,,,,,,,,,,,,,,,,,,,,,,,,,476.72999885900026,476.7301195509999,476.73013234799964,476.7485423200005,476.7485423200005,477.74464651499966,477.74464651499966,480.7519403309998,480.7519403309998,480.7519403309998,480.7519403309998,480.72930987699965,None,0,None,480.72992196500036,480.7299679730004,None,480.7300829650003,480.73013796899977,None,480.73025123299976,480.73028737500044,None,,,,,,,,,,,,,,,,,68,001,0,,2024-04-16_09h55.14.105,replicate_nsd,2023.2.3,59.86538931958263,2024-04-16 09h55.27.690645 -0400,
images/image_275_seed_1.png,18,0,0,0,1,"[9, 19, 31, 42, 56, 68, 69, 70, 71]",,,,,0,90,90,90,480.7519403309998,,,,,,,,,,,,,,,,,,,,,,,,,,,,,,,,,,,,,,,,,,,,,,,,480.73066617099994,480.73078564800016,480.73079854000025,480.7519403309998,480.7519403309998,481.74288301100023,481.74288301100023,484.7430576730003,484.7430576730003,484.7430576730003,484.7430576730003,484.7264975670005,None,0,None,484.7269283100004,484.72697562600024,None,484.7270904679999,484.72714537200045,None,484.7272587710004,484.72729446799985,None,,,,,,,,,,,,,,,,,68,001,0,,2024-04-16_09h55.14.105,replicate_nsd,2023.2.3,59.86538931958263,2024-04-16 09h55.27.690645 -0400,
blank.jpg,19,1,0,0,1,"[9, 19, 31, 42, 56, 68, 69, 70, 71]",,,,,0,91,91,91,484.7430576730003,,,,,,,,,,,,,,,,,,,,,,,,,,,,,,,,,,,,,,,,,,,,,,,,484.7276760069999,484.7277966040001,484.72780939400036,,,,,,,,,484.7312191580004,None,0,None,484.731542431,488.7284770060005,None,488.72869336999975,488.7287516770002,None,488.7288807249997,488.72891821600024,None,484.7430576730003,484.7430576730003,488.7508606649999,488.7508606649999,,,,,,,,,,,,,68,001,0,,2024-04-16_09h55.14.105,replicate_nsd,2023.2.3,59.86538931958263,2024-04-16 09h55.27.690645 -0400,
images/image_632_seed_1.png,20,0,0,0,1,"[9, 19, 31, 42, 56, 68, 69, 70, 71]",,,,,0,92,92,92,488.7508606649999,,,,,,,,,,,,,,,,,,,,,,,,,,,,,,,,,,,,,,,,,,,,,,,,488.72931684500054,488.72943595499964,488.729448264,488.7508606649999,488.7508606649999,489.74466245799977,489.74466245799977,492.7502471810003,492.7502471810003,492.7502471810003,492.7502471810003,492.7294193309999,None,0,None,492.7298466729999,492.72989544699976,None,492.7300104440001,492.730070138,None,492.7301856459999,492.730221582,None,,,,,,,,,,,,,,,,,68,001,0,,2024-04-16_09h55.14.105,replicate_nsd,2023.2.3,59.86538931958263,2024-04-16 09h55.27.690645 -0400,
images/image_132_seed_1.png,21,0,0,0,1,"[9, 19, 31, 42, 56, 68, 69, 70, 71]",,,,,0,93,93,93,492.7502471810003,,,,,,,,,,,,,,,,,,,,,,,,,,,,,,,,,,,,,,,,,,,,,,,,492.73060041700046,492.7307205039997,492.73073312500037,492.7502471810003,492.7502471810003,493.74377622799966,493.74377622799966,496.7506210419997,496.7506210419997,496.7506210419997,496.7506210419997,496.7265451000003,None,0,None,496.7269743679999,496.7270214500004,None,496.727134752,496.7271891239998,None,496.7273030209999,496.7273383950005,None,,,,,,,,,,,,,,,,,68,001,0,,2024-04-16_09h55.14.105,replicate_nsd,2023.2.3,59.86538931958263,2024-04-16 09h55.27.690645 -0400,
images/image_326_seed_1.png,22,0,0,0,1,"[9, 19, 31, 42, 56, 68, 69, 70, 71]",,,,,0,94,94,94,496.7506210419997,,,,,,,,,,,,,,,,,,,,,,,,,,,,,,,,,,,,,,,,,,,,,,,,496.7277351519997,496.72783126299964,496.72784162599964,496.7506210419997,496.7506210419997,497.7433986490005,497.7433986490005,500.7517267559997,500.7517267559997,500.7517267559997,500.7517267559997,500.72977852700024,None,0,None,500.730390789,500.7304382170005,None,500.73055037999984,500.7306048629998,None,500.73071670399986,500.7307519450005,None,,,,,,,,,,,,,,,,,68,001,0,,2024-04-16_09h55.14.105,replicate_nsd,2023.2.3,59.86538931958263,2024-04-16 09h55.27.690645 -0400,
images/image_522_seed_1.png,23,0,0,0,1,"[9, 19, 31, 42, 56, 68, 69, 70, 71]",,,,,0,95,95,95,500.7517267559997,,,,,,,,,,,,,,,,,,,,,,,,,,,,,,,,,,,,,,,,,,,,,,,,500.7311280590002,500.7312486330002,500.7312609090004,500.7517267559997,500.7517267559997,501.7451691510005,501.7451691510005,504.7507208240004,504.7507208240004,504.7507208240004,504.7507208240004,504.7297325059999,None,0,None,504.73015956499967,504.7302058770001,None,504.7303193710004,504.7303738649998,None,504.7304868350002,504.73052252399975,None,,,,,,,,,,,,,,,,,68,001,0,,2024-04-16_09h55.14.105,replicate_nsd,2023.2.3,59.86538931958263,2024-04-16 09h55.27.690645 -0400,
images/image_6_seed_1.png,24,0,1,0,1,"[9, 19, 31, 42, 56, 68, 69, 70, 71]",,,,,0,96,96,96,504.7507208240004,,,,,,,,,,,,,,,,,,,,,,,,,,,,,,,,,,,,,,,,,,,,,,,,504.7309024309998,504.7310222220003,504.73103493600047,504.7507208240004,504.7507208240004,505.74350465600037,505.74350465600037,508.75177552900004,508.75177552900004,508.75177552900004,508.75177552900004,508.72902133499974,None,0,None,508.7294466149997,508.7294925670003,None,508.729606246,508.7296658840005,None,508.7297798620002,508.72981516599975,None,,,,,,,,,,,,,,,,,68,001,0,,2024-04-16_09h55.14.105,replicate_nsd,2023.2.3,59.86538931958263,2024-04-16 09h55.27.690645 -0400,
images/image_544_seed_1.png,25,0,0,0,1,"[9, 19, 31, 42, 56, 68, 69, 70, 71]",,,,,0,97,97,97,508.75177552900004,,,,,,,,,,,,,,,,,,,,,,,,,,,,,,,,,,,,,,,,,,,,,,,,508.73019302300054,508.730313086,508.730325732,508.75177552900004,508.75177552900004,509.7433108619998,509.7433108619998,512.7498590300002,512.7498590300002,512.7498590300002,512.7498590300002,512.7292070049998,None,0,None,512.7296346720004,512.729680763,None,512.7297939990003,512.7298487190001,None,512.7299616359996,512.7299971749999,None,,,,,,,,,,,,,,,,,68,001,0,,2024-04-16_09h55.14.105,replicate_nsd,2023.2.3,59.86538931958263,2024-04-16 09h55.27.690645 -0400,
images/image_212_seed_1.png,26,0,0,0,1,"[9, 19, 31, 42, 56, 68, 69, 70, 71]",,,,,0,98,98,98,512.7498590300002,,,,,,,,,,,,,,,,,,,,,,,,,,,,,,,,,,,,,,,,,,,,,,,,512.730374283,512.7304925950002,512.7305048910002,512.7498590300002,512.7498590300002,513.7436422139999,513.7436422139999,516.7555960489999,516.7555960489999,516.7555960489999,516.7555960489999,516.729168885,None,0,None,516.7295969859997,516.72964305,None,516.7297560429997,516.7298163129999,None,516.7299306639998,516.7299667460002,None,,,,,,,,,,,,,,,,,68,001,0,,2024-04-16_09h55.14.105,replicate_nsd,2023.2.3,59.86538931958263,2024-04-16 09h55.27.690645 -0400,
images/image_139_seed_1.png,27,0,0,0,1,"[9, 19, 31, 42, 56, 68, 69, 70, 71]",,,,,0,99,99,99,516.7555960489999,,,,,,,,,,,,,,,,,,,,,,,,,,,,,,,,,,,,,,,,,,,,,,,,516.7303426999997,516.7304617990003,516.730474385,516.7555960489999,516.7555960489999,517.7440482459997,517.7440482459997,520.7432257800001,520.7432257800001,520.7432257800001,520.7432257800001,520.7292728829998,None,0,None,520.7298842680002,520.7299309529999,None,520.7300448200003,520.7300999159997,None,520.7302133200001,520.7302492170002,None,,,,,,,,,,,,,,,,,68,001,0,,2024-04-16_09h55.14.105,replicate_nsd,2023.2.3,59.86538931958263,2024-04-16 09h55.27.690645 -0400,
images/w_runway2.jpg,28,0,0,0,1,"[9, 19, 31, 42, 56, 68, 69, 70, 71]",,,,,0,100,100,100,520.7432257800001,,,,,,,,,,,,,,,,,,,,,,,,,,,,,,,,,,,,,,,,,,,,,,,,520.7306285040004,520.7307497310003,520.7307622130002,520.7432257800001,520.7432257800001,521.7455153110004,521.7455153110004,524.7370801550005,524.7370801550005,524.7370801550005,524.7370801550005,524.7128081890005,None,0,None,524.7132364270001,524.7132819440003,None,524.7133956750004,524.7134550640003,None,524.7135686090005,524.7136055210003,None,,,,,,,,,,,,,,,,,68,001,0,,2024-04-16_09h55.14.105,replicate_nsd,2023.2.3,59.86538931958263,2024-04-16 09h55.27.690645 -0400,
images/image_168_seed_1.png,29,0,0,0,1,"[9, 19, 31, 42, 56, 68, 69, 70, 71]",,,,,0,101,101,101,524.7370801550005,,,,,,,,,,,,,,,,,,,,,,,,,,,,,,,,,,,,,,,,,,,,,,,,524.7139835879998,524.7141042860003,524.7141169389997,524.7370801550005,524.7370801550005,525.7273044949998,525.7273044949998,528.7345131049997,528.7345131049997,528.7345131049997,528.7345131049997,528.711176928,None,0,None,528.7116025149999,528.7116493470003,None,528.7117639409998,528.7118184440005,None,528.7119302729998,528.7119657809999,None,,,,,,,,,,,,,,,,,68,001,0,,2024-04-16_09h55.14.105,replicate_nsd,2023.2.3,59.86538931958263,2024-04-16 09h55.27.690645 -0400,
images/image_687_seed_1.png,30,0,0,0,1,"[9, 19, 31, 42, 56, 68, 69, 70, 71]",,,,,0,102,102,102,528.7345131049997,,,,,,,,,,,,,,,,,,,,,,,,,,,,,,,,,,,,,,,,,,,,,,,,528.7123438300005,528.7124633630001,528.712476062,528.7345131049997,528.7345131049997,529.7274319930002,529.7274319930002,532.727537797,532.727537797,532.727537797,532.727537797,532.7112262440005,None,0,None,532.7116547579999,532.7117009849999,None,532.7118145410004,532.7118695440004,None,532.7119834880004,532.7120199339997,None,,,,,,,,,,,,,,,,,68,001,0,,2024-04-16_09h55.14.105,replicate_nsd,2023.2.3,59.86538931958263,2024-04-16 09h55.27.690645 -0400,
blank.jpg,31,1,0,0,1,"[9, 19, 31, 42, 56, 68, 69, 70, 71]",,,,,0,103,103,103,532.727537797,,,,,,,,,,,,,,,,,,,,,,,,,,,,,,,,,,,,,,,,,,,,,,,,532.7123994619997,532.7125195589997,532.7125325779998,,,,,,,,,532.7161360360005,None,0,None,532.71653083,536.7131832940004,None,536.7133987090001,536.7134601090002,None,536.7135911309997,536.7136289720002,None,532.727537797,532.727537797,536.7337109440004,536.7337109440004,,,,,,,,,,,,,68,001,0,,2024-04-16_09h55.14.105,replicate_nsd,2023.2.3,59.86538931958263,2024-04-16 09h55.27.690645 -0400,
images/image_562_seed_1.png,32,0,1,0,1,"[9, 19, 31, 42, 56, 68, 69, 70, 71]",,,,,0,104,104,104,536.7337109440004,,,,,,,,,,,,,,,,,,,,,,,,,,,,,,,,,,,,,,,,,,,,,,,,536.71404153,536.7141628320005,536.7141751669997,536.7337109440004,536.7337109440004,537.7277898510001,537.7277898510001,540.7352477570003,540.7352477570003,540.7352477570003,540.7352477570003,540.7114040140004,None,0,None,540.7118346180005,540.7118818440003,None,540.711994409,540.7120501660002,None,540.7121630060001,540.7121987400005,None,,,,,,,,,,,,,,,,,68,001,0,,2024-04-16_09h55.14.105,replicate_nsd,2023.2.3,59.86538931958263,2024-04-16 09h55.27.690645 -0400,
images/image_345_seed_1.png,33,0,0,0,1,"[9, 19, 31, 42, 56, 68, 69, 70, 71]",,,,,0,105,105,105,540.7352477570003,,,,,,,,,,,,,,,,,,,,,,,,,,,,,,,,,,,,,,,,,,,,,,,,540.7125737120004,540.7126922360003,540.7127046420001,540.7352477570003,540.7352477570003,541.7295890410005,541.7295890410005,544.7381759700002,544.7381759700002,544.7381759700002,544.7381759700002,544.7130343899998,None,0,None,544.7134626509996,544.7135097110004,None,544.7136236859997,544.7136791000003,None,544.7137937750003,544.713830445,None,,,,,,,,,,,,,,,,,68,001,0,,2024-04-16_09h55.14.105,replicate_nsd,2023.2.3,59.86538931958263,2024-04-16 09h55.27.690645 -0400,
images/image_70_seed_1.png,34,0,0,0,1,"[9, 19, 31, 42, 56, 68, 69, 70, 71]",,,,,0,106,106,106,544.7381759700002,,,,,,,,,,,,,,,,,,,,,,,,,,,,,,,,,,,,,,,,,,,,,,,,544.7142079610003,544.7143267720003,544.7143392389999,544.7381759700002,544.7381759700002,545.727821163,545.727821163,548.743895222,548.743895222,548.743895222,548.743895222,548.7306909030003,None,0,None,548.7311232840002,548.7311701730005,None,548.731285195,548.7313407390002,None,548.7314547020005,548.7314915939996,None,,,,,,,,,,,,,,,,,68,001,0,,2024-04-16_09h55.14.105,replicate_nsd,2023.2.3,59.86538931958263,2024-04-16 09h55.27.690645 -0400,
images/1_78.png,35,0,0,0,1,"[9, 19, 31, 42, 56, 68, 69, 70, 71]",,,,,0,107,107,107,548.743895222,,,,,,,,,,,,,,,,,,,,,,,,,,,,,,,,,,,,,,,,,,,,,,,,548.7318750499999,548.7319954450004,548.7320080560003,548.743895222,548.743895222,549.7446690510005,549.7446690510005,552.7539487029999,552.7539487029999,552.7539487029999,552.7539487029999,552.7300896630004,None,0,None,552.7305200680003,552.7305665929998,None,552.7306806480001,552.7307356390002,None,552.7308492000002,552.730884433,None,,,,,,,,,,,,,,,,,68,001,0,,2024-04-16_09h55.14.105,replicate_nsd,2023.2.3,59.86538931958263,2024-04-16 09h55.27.690645 -0400,
images/image_344_seed_1.png,36,0,0,0,1,"[9, 19, 31, 42, 56, 68, 69, 70, 71]",,,,,0,108,108,108,552.7539487029999,,,,,,,,,,,,,,,,,,,,,,,,,,,,,,,,,,,,,,,,,,,,,,,,552.7312644820004,552.7313847249998,552.7313977949998,552.7539487029999,552.7539487029999,553.7450686540005,553.7450686540005,556.751579963,556.751579963,556.751579963,556.751579963,556.7283074010002,None,0,None,556.7287331440002,556.7287806100003,None,556.7288932829997,556.7289487380003,None,556.7290609049996,556.7290971920002,None,,,,,,,,,,,,,,,,,68,001,0,,2024-04-16_09h55.14.105,replicate_nsd,2023.2.3,59.86538931958263,2024-04-16 09h55.27.690645 -0400,
images/image_340_seed_1.png,37,0,0,0,1,"[9, 19, 31, 42, 56, 68, 69, 70, 71]",,,,,0,109,109,109,556.751579963,,,,,,,,,,,,,,,,,,,,,,,,,,,,,,,,,,,,,,,,,,,,,,,,556.7294768920001,556.7295983020003,556.7296111420001,556.751579963,556.751579963,557.744877737,557.744877737,560.7539511220002,560.7539511220002,560.7539511220002,560.7539511220002,560.7303653730005,None,0,None,560.730980458,560.7310261949997,None,560.7311382549997,560.7311920760003,None,560.7313025439998,560.73133753,None,,,,,,,,,,,,,,,,,68,001,0,,2024-04-16_09h55.14.105,replicate_nsd,2023.2.3,59.86538931958263,2024-04-16 09h55.27.690645 -0400,
images/image_28_seed_1.png,38,0,0,0,1,"[9, 19, 31, 42, 56, 68, 69, 70, 71]",,,,,0,110,110,110,560.7539511220002,,,,,,,,,,,,,,,,,,,,,,,,,,,,,,,,,,,,,,,,,,,,,,,,560.7317097920004,560.7318282409997,560.7318408620004,560.7539511220002,560.7539511220002,561.7467073560001,561.7467073560001,564.7545038819999,564.7545038819999,564.7545038819999,564.7545038819999,564.7313619619999,None,0,None,564.731973639,564.7320200949998,None,564.732131492,564.732186528,None,564.7322981440002,564.7323337950002,None,,,,,,,,,,,,,,,,,68,001,0,,2024-04-16_09h55.14.105,replicate_nsd,2023.2.3,59.86538931958263,2024-04-16 09h55.27.690645 -0400,
images/image_565_seed_1.png,39,0,0,0,1,"[9, 19, 31, 42, 56, 68, 69, 70, 71]",,,,,0,111,111,111,564.7545038819999,,,,,,,,,,,,,,,,,,,,,,,,,,,,,,,,,,,,,,,,,,,,,,,,564.7327128530005,564.7328337010003,564.732846332,564.7545038819999,564.7545038819999,565.7447877659997,565.7447877659997,568.7535658280003,568.7535658280003,568.7535658280003,568.7535658280003,568.7287669420002,None,0,None,568.7291941550002,568.7292399090002,None,568.7293531340001,568.7294086069996,None,568.7295218300005,568.7295579510001,None,,,,,,,,,,,,,,,,,68,001,0,,2024-04-16_09h55.14.105,replicate_nsd,2023.2.3,59.86538931958263,2024-04-16 09h55.27.690645 -0400,
images/image_676_seed_1.png,40,0,0,0,1,"[9, 19, 31, 42, 56, 68, 69, 70, 71]",,,,,0,112,112,112,568.7535658280003,,,,,,,,,,,,,,,,,,,,,,,,,,,,,,,,,,,,,,,,,,,,,,,,568.7299368209997,568.730055821,568.730068457,568.7535658280003,568.7535658280003,569.7452127200004,569.7452127200004,572.7513008510005,572.7513008510005,572.7513008510005,572.7513008510005,572.7288022900002,None,0,None,572.7292281210002,572.7292744879996,None,572.7293866870004,572.729441726,None,572.7295524600004,572.7295879180001,None,,,,,,,,,,,,,,,,,68,001,0,,2024-04-16_09h55.14.105,replicate_nsd,2023.2.3,59.86538931958263,2024-04-16 09h55.27.690645 -0400,
images/image_309_seed_1.png,41,0,0,0,1,"[9, 19, 31, 42, 56, 68, 69, 70, 71]",,,,,0,113,113,113,572.7513008510005,,,,,,,,,,,,,,,,,,,,,,,,,,,,,,,,,,,,,,,,,,,,,,,,572.7299600060005,572.7300783860001,572.7300911190005,572.7513008510005,572.7513008510005,573.7451676789997,573.7451676789997,576.7451497310003,576.7451497310003,576.7451497310003,576.7451497310003,576.7287857030005,None,0,None,576.7292076820004,576.7292536120003,None,576.7293662330003,576.7294204850004,None,576.7295305460002,576.7295649670004,None,,,,,,,,,,,,,,,,,68,001,0,,2024-04-16_09h55.14.105,replicate_nsd,2023.2.3,59.86538931958263,2024-04-16 09h55.27.690645 -0400,
blank.jpg,42,1,0,0,1,"[9, 19, 31, 42, 56, 68, 69, 70, 71]",,,,,0,114,114,114,576.7451497310003,,,,,,,,,,,,,,,,,,,,,,,,,,,,,,,,,,,,,,,,,,,,,,,,576.7299357909997,576.7300565880005,576.7300692199997,,,,,,,,,576.7340672179998,None,0,None,576.734457865,580.7288721069999,None,580.7290844910003,580.7291454380002,None,580.7292733590002,580.7293108840004,None,576.7451497310003,576.7451497310003,580.7505024829998,580.7505024829998,,,,,,,,,,,,,68,001,0,,2024-04-16_09h55.14.105,replicate_nsd,2023.2.3,59.86538931958263,2024-04-16 09h55.27.690645 -0400,
images/image_563_seed_1.png,43,0,0,0,1,"[9, 19, 31, 42, 56, 68, 69, 70, 71]",,,,,0,115,115,115,580.7505024829998,,,,,,,,,,,,,,,,,,,,,,,,,,,,,,,,,,,,,,,,,,,,,,,,580.7297215369999,580.7298406259997,580.7298536750004,580.7505024829998,580.7505024829998,581.7472290149999,581.7472290149999,584.7536704220001,584.7536704220001,584.7536704220001,584.7536704220001,584.7317992540002,None,0,None,584.7322161980001,584.7322628279999,None,584.7323740250004,584.7324330540005,None,584.7325457050001,584.7325815630002,None,,,,,,,,,,,,,,,,,68,001,0,,2024-04-16_09h55.14.105,replicate_nsd,2023.2.3,59.86538931958263,2024-04-16 09h55.27.690645 -0400,
images/image_643_seed_1.png,44,0,0,0,1,"[9, 19, 31, 42, 56, 68, 69, 70, 71]",,,,,0,116,116,116,584.7536704220001,,,,,,,,,,,,,,,,,,,,,,,,,,,,,,,,,,,,,,,,,,,,,,,,584.7329548870002,584.7330755169996,584.7330882810002,584.7536704220001,584.7536704220001,585.7473333830003,585.7473333830003,588.7494549640005,588.7494549640005,588.7494549640005,588.7494549640005,588.7316508680005,None,0,None,588.7320745570005,588.7321209399997,None,588.7322330269999,588.7322878450004,None,588.7324002530004,588.7324359310005,None,,,,,,,,,,,,,,,,,68,001,0,,2024-04-16_09h55.14.105,replicate_nsd,2023.2.3,59.86538931958263,2024-04-16 09h55.27.690645 -0400,
images/image_37_seed_1.png,45,0,0,0,1,"[9, 19, 31, 42, 56, 68, 69, 70, 71]",,,,,0,117,117,117,588.7494549640005,,,,,,,,,,,,,,,,,,,,,,,,,,,,,,,,,,,,,,,,,,,,,,,,588.7328107230005,588.7329307760001,588.7329433679997,588.7494549640005,588.7494549640005,589.74565153,589.74565153,592.7530861120003,592.7530861120003,592.7530861120003,592.7530861120003,592.7311991790002,None,0,None,592.7316223420003,592.7316674470003,None,592.7317817780004,592.731836168,None,592.7319495310003,592.7319857439998,None,,,,,,,,,,,,,,,,,68,001,0,,2024-04-16_09h55.14.105,replicate_nsd,2023.2.3,59.86538931958263,2024-04-16 09h55.27.690645 -0400,
images/image_105_seed_1.png,46,0,0,0,1,"[9, 19, 31, 42, 56, 68, 69, 70, 71]",,,,,0,118,118,118,592.7530861120003,,,,,,,,,,,,,,,,,,,,,,,,,,,,,,,,,,,,,,,,,,,,,,,,592.7323609169998,592.7324798750005,592.732492911,592.7530861120003,592.7530861120003,593.74756239,593.74756239,596.752205754,596.752205754,596.752205754,596.752205754,596.7294284520003,None,0,None,596.7298486279997,596.729895124,None,596.7300066039998,596.7300613400002,None,596.7301721439999,596.7302071189997,None,,,,,,,,,,,,,,,,,68,001,0,,2024-04-16_09h55.14.105,replicate_nsd,2023.2.3,59.86538931958263,2024-04-16 09h55.27.690645 -0400,
images/image_490_seed_1.png,47,0,0,0,1,"[9, 19, 31, 42, 56, 68, 69, 70, 71]",,,,,0,119,119,119,596.752205754,,,,,,,,,,,,,,,,,,,,,,,,,,,,,,,,,,,,,,,,,,,,,,,,596.7305801120001,596.7306999470002,596.7307124730005,596.752205754,596.752205754,597.7457940300001,597.7457940300001,600.7515192310002,600.7515192310002,600.7515192310002,600.7515192310002,600.7313573430001,None,0,None,600.7317806970004,600.7318257950001,None,600.7319379830005,600.7319923360001,None,600.7321035759996,600.7321390759998,None,,,,,,,,,,,,,,,,,68,001,0,,2024-04-16_09h55.14.105,replicate_nsd,2023.2.3,59.86538931958263,2024-04-16 09h55.27.690645 -0400,
images/image_313_seed_1.png,48,0,0,0,1,"[9, 19, 31, 42, 56, 68, 69, 70, 71]",,,,,0,120,120,120,600.7515192310002,,,,,,,,,,,,,,,,,,,,,,,,,,,,,,,,,,,,,,,,,,,,,,,,600.7325136130003,600.7326331290005,600.7326458360003,600.7515192310002,600.7515192310002,601.7476731630004,601.7476731630004,604.7519634689997,604.7519634689997,604.7519634689997,604.7519634689997,604.729764617,None,0,None,604.7301864860001,604.7302328659998,None,604.7303440880005,604.7303980930001,None,604.7305098240004,604.7305452010005,None,,,,,,,,,,,,,,,,,68,001,0,,2024-04-16_09h55.14.105,replicate_nsd,2023.2.3,59.86538931958263,2024-04-16 09h55.27.690645 -0400,
images/image_300_seed_1.png,49,0,0,0,1,"[9, 19, 31, 42, 56, 68, 69, 70, 71]",,,,,0,121,121,121,604.7519634689997,,,,,,,,,,,,,,,,,,,,,,,,,,,,,,,,,,,,,,,,,,,,,,,,604.730920514,604.7310402909998,604.7310531740004,604.7519634689997,604.7519634689997,605.746074531,605.746074531,608.7529594549997,608.7529594549997,608.7529594549997,608.7529594549997,608.7315929710003,None,0,None,608.7320138289997,608.732059897,None,608.7321723160003,608.732227087,None,608.7323392179997,608.7323745740005,None,,,,,,,,,,,,,,,,,68,001,0,,2024-04-16_09h55.14.105,replicate_nsd,2023.2.3,59.86538931958263,2024-04-16 09h55.27.690645 -0400,
images/image_647_seed_1.png,50,0,0,0,1,"[9, 19, 31, 42, 56, 68, 69, 70, 71]",,,,,0,122,122,122,608.7529594549997,,,,,,,,,,,,,,,,,,,,,,,,,,,,,,,,,,,,,,,,,,,,,,,,608.7327514230001,608.7328704270003,608.732883267,608.7529594549997,608.7529594549997,609.746124497,609.746124497,612.7530326189999,612.7530326189999,612.7530326189999,612.7530326189999,612.7299476979997,None,0,None,612.7303737110005,612.730420543,None,612.7305328279999,612.7305882190003,None,612.7307002449998,612.7307358469998,None,,,,,,,,,,,,,,,,,68,001,0,,2024-04-16_09h55.14.105,replicate_nsd,2023.2.3,59.86538931958263,2024-04-16 09h55.27.690645 -0400,
images/image_627_seed_1.png,51,0,0,0,1,"[9, 19, 31, 42, 56, 68, 69, 70, 71]",,,,,0,123,123,123,612.7530326189999,,,,,,,,,,,,,,,,,,,,,,,,,,,,,,,,,,,,,,,,,,,,,,,,612.7311145909998,612.7312348289997,612.7312480740002,612.7530326189999,612.7530326189999,613.7462919360005,613.7462919360005,616.7535588319997,616.7535588319997,616.7535588319997,616.7535588319997,616.7299667099996,None,0,None,616.7303882280003,616.7304346640003,None,616.7305479409997,616.7306019630005,None,616.7307141629999,616.7307497279999,None,,,,,,,,,,,,,,,,,68,001,0,,2024-04-16_09h55.14.105,replicate_nsd,2023.2.3,59.86538931958263,2024-04-16 09h55.27.690645 -0400,
images/image_138_seed_1.png,52,0,0,0,1,"[9, 19, 31, 42, 56, 68, 69, 70, 71]",,,,,0,124,124,124,616.7535588319997,,,,,,,,,,,,,,,,,,,,,,,,,,,,,,,,,,,,,,,,,,,,,,,,616.7311216790004,616.7312405459998,616.7312535609999,616.7535588319997,616.7535588319997,617.7464254839997,617.7464254839997,620.7473818810004,620.7473818810004,620.7473818810004,620.7473818810004,620.730102943,None,0,None,620.730526757,620.7305728259998,None,620.7306855469997,620.7307391310005,None,620.730850209,620.7308854359999,None,,,,,,,,,,,,,,,,,68,001,0,,2024-04-16_09h55.14.105,replicate_nsd,2023.2.3,59.86538931958263,2024-04-16 09h55.27.690645 -0400,
images/19_56.png,53,0,0,0,1,"[9, 19, 31, 42, 56, 68, 69, 70, 71]",,,,,0,125,125,125,620.7473818810004,,,,,,,,,,,,,,,,,,,,,,,,,,,,,,,,,,,,,,,,,,,,,,,,620.7312597290002,620.7313786539999,620.7313916200001,620.7473818810004,620.7473818810004,621.7465084719997,621.7465084719997,624.7522144989998,624.7522144989998,624.7522144989998,624.7522144989998,624.7302479950004,None,0,None,624.7306689090001,624.730714235,None,624.7308241440005,624.73087897,None,624.7309895469998,624.7310255190005,None,,,,,,,,,,,,,,,,,68,001,0,,2024-04-16_09h55.14.105,replicate_nsd,2023.2.3,59.86538931958263,2024-04-16 09h55.27.690645 -0400,
images/image_392_seed_1.png,54,0,0,0,1,"[9, 19, 31, 42, 56, 68, 69, 70, 71]",,,,,0,126,126,126,624.7522144989998,,,,,,,,,,,,,,,,,,,,,,,,,,,,,,,,,,,,,,,,,,,,,,,,624.7314059150003,624.7315251150003,624.731537871,624.7522144989998,624.7522144989998,625.7465894830002,625.7465894830002,628.755092249,628.755092249,628.755092249,628.755092249,628.7320940119998,None,0,None,628.7325152180001,628.7325605890001,None,628.732674283,628.7327288940005,None,628.7328412380002,628.7328772580004,None,,,,,,,,,,,,,,,,,68,001,0,,2024-04-16_09h55.14.105,replicate_nsd,2023.2.3,59.86538931958263,2024-04-16 09h55.27.690645 -0400,
images/image_193_seed_1.png,55,0,0,0,1,"[9, 19, 31, 42, 56, 68, 69, 70, 71]",,,,,0,127,127,127,628.755092249,,,,,,,,,,,,,,,,,,,,,,,,,,,,,,,,,,,,,,,,,,,,,,,,628.733253026,628.7333731690005,628.7333860190001,628.755092249,628.755092249,629.7485033969997,629.7485033969997,632.7459206189997,632.7459206189997,632.7459206189997,632.7459206189997,632.7309945380002,None,0,None,632.7312125190001,632.7312340130002,None,632.7312835060002,632.731310098,None,632.7313591600005,632.7313756840003,None,,,,,,,,,,,,,,,,,68,001,0,,2024-04-16_09h55.14.105,replicate_nsd,2023.2.3,59.86538931958263,2024-04-16 09h55.27.690645 -0400,
blank.jpg,56,1,0,0,1,"[9, 19, 31, 42, 56, 68, 69, 70, 71]",,,,,0,128,128,128,632.7459206189997,,,,,,,,,,,,,,,,,,,,,,,,,,,,,,,,,,,,,,,,,,,,,,,,632.7315521,632.7316075500003,632.731613125,,,,,,,,,632.7342927899999,None,0,None,632.7345641680004,636.732883959,None,636.733096514,636.7331567669999,None,636.7332834609997,636.7333206140001,None,632.7459206189997,632.7459206189997,636.7568664910004,636.7568664910004,,,,,,,,,,,,,68,001,0,,2024-04-16_09h55.14.105,replicate_nsd,2023.2.3,59.86538931958263,2024-04-16 09h55.27.690645 -0400,
images/image_486_seed_1.png,57,0,0,0,1,"[9, 19, 31, 42, 56, 68, 69, 70, 71]",,,,,0,129,129,129,636.7568664910004,,,,,,,,,,,,,,,,,,,,,,,,,,,,,,,,,,,,,,,,,,,,,,,,636.7337154309998,636.7338332669997,636.7338458330005,636.7568664910004,636.7568664910004,637.7486197959997,637.7486197959997,640.7531120450003,640.7531120450003,640.7531120450003,640.7531120450003,640.7306038790002,None,0,None,640.7310276609996,640.7310732920005,None,640.7311866970003,640.731242238,None,640.731354384,640.7313892580005,None,,,,,,,,,,,,,,,,,68,001,0,,2024-04-16_09h55.14.105,replicate_nsd,2023.2.3,59.86538931958263,2024-04-16 09h55.27.690645 -0400,
images/image_251_seed_1.png,58,0,0,0,1,"[9, 19, 31, 42, 56, 68, 69, 70, 71]",,,,,0,130,130,130,640.7531120450003,,,,,,,,,,,,,,,,,,,,,,,,,,,,,,,,,,,,,,,,,,,,,,,,640.7317610420005,640.7318817690002,640.7318948820002,640.7531120450003,640.7531120450003,641.748237326,641.748237326,644.751659472,644.751659472,644.751659472,644.751659472,644.7307469030002,None,0,None,644.7311681640003,644.7312143950003,None,644.7313263920005,644.7313813829996,None,644.7314932959998,644.7315290180004,None,,,,,,,,,,,,,,,,,68,001,0,,2024-04-16_09h55.14.105,replicate_nsd,2023.2.3,59.86538931958263,2024-04-16 09h55.27.690645 -0400,
images/image_244_seed_1.png,59,0,0,0,1,"[9, 19, 31, 42, 56, 68, 69, 70, 71]",,,,,0,131,131,131,644.751659472,,,,,,,,,,,,,,,,,,,,,,,,,,,,,,,,,,,,,,,,,,,,,,,,644.7319045710001,644.7320247349999,644.7320374310002,644.751659472,644.751659472,645.7471053030004,645.7471053030004,648.7574905840002,648.7574905840002,648.7574905840002,648.7574905840002,648.733417632,None,0,None,648.7338389550005,648.7338845459999,None,648.7339951690001,648.7340540800005,None,648.7341666359998,648.7342021390004,None,,,,,,,,,,,,,,,,,68,001,0,,2024-04-16_09h55.14.105,replicate_nsd,2023.2.3,59.86538931958263,2024-04-16 09h55.27.690645 -0400,
images/image_443_seed_1.png,60,0,0,0,1,"[9, 19, 31, 42, 56, 68, 69, 70, 71]",,,,,0,132,132,132,648.7574905840002,,,,,,,,,,,,,,,,,,,,,,,,,,,,,,,,,,,,,,,,,,,,,,,,648.7345750049999,648.7346956339998,648.7347085179999,648.7574905840002,648.7574905840002,649.7472998929998,649.7472998929998,652.753694213,652.753694213,652.753694213,652.753694213,652.7308705040004,None,0,None,652.7312915170005,652.7313378649997,None,652.7314501669998,652.7315048649998,None,652.7316166150003,652.7316515809998,None,,,,,,,,,,,,,,,,,68,001,0,,2024-04-16_09h55.14.105,replicate_nsd,2023.2.3,59.86538931958263,2024-04-16 09h55.27.690645 -0400,
images/image_669_seed_1.png,61,0,0,0,1,"[9, 19, 31, 42, 56, 68, 69, 70, 71]",,,,,0,133,133,133,652.753694213,,,,,,,,,,,,,,,,,,,,,,,,,,,,,,,,,,,,,,,,,,,,,,,,652.7320289600002,652.7321479780003,652.7321605879997,652.753694213,652.753694213,653.7473014759998,653.7473014759998,656.7533665749997,656.7533665749997,656.7533665749997,656.7533665749997,656.7309313810001,None,0,None,656.7313566350003,656.7314025670003,None,656.7315135460003,656.7315674130004,None,656.7316778109998,656.7317127340002,None,,,,,,,,,,,,,,,,,68,001,0,,2024-04-16_09h55.14.105,replicate_nsd,2023.2.3,59.86538931958263,2024-04-16 09h55.27.690645 -0400,
images/image_657_seed_1.png,62,0,0,0,1,"[9, 19, 31, 42, 56, 68, 69, 70, 71]",,,,,0,134,134,134,656.7533665749997,,,,,,,,,,,,,,,,,,,,,,,,,,,,,,,,,,,,,,,,,,,,,,,,656.7320861730004,656.7322053549997,656.732217666,656.7533665749997,656.7533665749997,657.7473982250003,657.7473982250003,660.7530689969999,660.7530689969999,660.7530689969999,660.7530689969999,660.7311342900002,None,0,None,660.7315551970005,660.7316020130002,None,660.7317136390002,660.7317686770002,None,660.7318811080004,660.7319168020003,None,,,,,,,,,,,,,,,,,68,001,0,,2024-04-16_09h55.14.105,replicate_nsd,2023.2.3,59.86538931958263,2024-04-16 09h55.27.690645 -0400,
images/image_133_seed_1.png,63,0,0,0,1,"[9, 19, 31, 42, 56, 68, 69, 70, 71]",,,,,0,135,135,135,660.7530689969999,,,,,,,,,,,,,,,,,,,,,,,,,,,,,,,,,,,,,,,,,,,,,,,,660.7322916049998,660.7324114860003,660.7324238199999,660.7530689969999,660.7530689969999,661.7474903140001,661.7474903140001,664.7564666529997,664.7564666529997,664.7564666529997,664.7564666529997,664.7326963559999,None,0,None,664.7331210479997,664.7331672079999,None,664.7332798220004,664.7333345910001,None,664.7334468179997,664.7334824890004,None,,,,,,,,,,,,,,,,,68,001,0,,2024-04-16_09h55.14.105,replicate_nsd,2023.2.3,59.86538931958263,2024-04-16 09h55.27.690645 -0400,
images/image_498_seed_1.png,64,0,0,0,1,"[9, 19, 31, 42, 56, 68, 69, 70, 71]",,,,,0,136,136,136,664.7564666529997,,,,,,,,,,,,,,,,,,,,,,,,,,,,,,,,,,,,,,,,,,,,,,,,664.7338609199996,664.733980815,664.733993156,664.7564666529997,664.7564666529997,665.7475580740002,665.7475580740002,668.7575457419998,668.7575457419998,668.7575457419998,668.7575457419998,668.7338520610001,None,0,None,668.7342801619998,668.7343264649999,None,668.734439625,668.7344942979998,None,668.7346064350004,668.7346421210004,None,,,,,,,,,,,,,,,,,68,001,0,,2024-04-16_09h55.14.105,replicate_nsd,2023.2.3,59.86538931958263,2024-04-16 09h55.27.690645 -0400,
