current_image,trial_index,is_blank_trial,is_repeat,is_new_run,run_num,all_blanks_list,practice.thisRepN,practice.thisTrialN,practice.thisN,practice.thisIndex,loop_all_images.thisRepN,loop_all_images.thisTrialN,loop_all_images.thisN,loop_all_images.thisIndex,thisRow.t,notes,set_up.started,set_up.stopped,practice_continue.started,key_resp_6.started,text_6.started,practice_continue.stopped,key_resp_6.keys,key_resp_6.rt,key_resp_6.duration,set_skips_and_correct_key_2.started,set_skips_and_correct_key_2.stopped,practice_trial.started,polygon_3.started,all_keys_pressed_2.started,image_2.started,press_if_repeat_2.started,image_2.stopped,press_if_repeat_2.stopped,polygon_3.stopped,all_keys_pressed_2.stopped,practice_trial.stopped,press_if_repeat_2.keys,press_if_repeat_2.corr,all_keys_pressed_2.keys,blank_trial_2.started,blank_trial_2.stopped,polygon_4.started,polygon_4.stopped,testing_continue.started,key_resp_7.started,text_7.started,testing_continue.stopped,key_resp_7.keys,key_resp_7.rt,key_resp_7.duration,waiting_fmri.started,key_resp_2.started,text_3.started,waiting_fmri.stopped,key_resp_2.keys,key_resp_2.rt,key_resp_2.duration,set_skips_and_correct_key.started,set_skips_and_correct_key.stopped,trial.started,trial.stopped,press_if_repeat.keys,press_if_repeat.corr,all_keys_pressed.keys,blank_trial.started,blank_trial.stopped,blank_trial_testing_keys.keys,run_wait2_2.started,run_wait2_2.stopped,key_resp_5.keys,waiting_fmri_2.started,waiting_fmri_2.stopped,key_resp_4.keys,polygon.started,all_keys_pressed.started,image.started,press_if_repeat.started,image.stopped,press_if_repeat.stopped,polygon.stopped,all_keys_pressed.stopped,press_if_repeat.rt,press_if_repeat.duration,blank_trial_testing_keys.started,polygon_2.started,blank_trial_testing_keys.stopped,polygon_2.stopped,key_resp_5.started,text_5.started,key_resp_5.rt,key_resp_5.duration,participant,session,starting_run,,date,expName,psychopyVersion,frameRate,expStart,
,,,,,,,,,,,,,,,,,0.025938705002772622,0.02619327200227417,0.026215796002361458,0.04641287699632812,0.04641287699632812,2.6283801710014814,2,2.5719966729957378,None,,,,,,,,,,,,,,,,,,,,,,,,,,,,,,,,,,,,,,,,,,,,,,,,,,,,,,,,,,,,,,,,,,,,74,001,15,,2024-04-22_16h55.59.573,replicate_nsd,2023.2.3,59.95287979310988,2024-04-22 16h56.21.613395 -0400,
practice_images/w_bedroom2.jpg,0,0,,,,,0,0,0,0,,,,,2.6527914600010263,,,,,,,,,,,2.633783368000877,2.6338272580032935,2.633833145002427,2.6527914600010263,2.6527914600010263,3.644973909998953,3.644973909998953,6.645575615999405,6.645575615999405,6.645575615999405,6.645575615999405,6.629363624000689,None,0,None,6.630030895998061,6.630073480999272,,,,,,,,,,,,,,,,,,,,,,,,,,,,,,,,,,,,,,,,,,,,,,,,,,,74,001,15,,2024-04-22_16h55.59.573,replicate_nsd,2023.2.3,59.95287979310988,2024-04-22 16h56.21.613395 -0400,
practice_images/w_kitchen2.jpg,1,0,,,,,0,1,1,1,,,,,6.645575615999405,,,,,,,,,,,6.630356276000384,6.6304419320003944,6.630453564001073,6.645575615999405,6.645575615999405,7.645974491999368,7.645974491999368,10.645200970000587,10.645200970000587,10.645200970000587,10.645200970000587,10.628666245000204,None,0,None,10.628915538996807,10.628937977002352,,,,,,,,,,,,,,,,,,,,,,,,,,,,,,,,,,,,,,,,,,,,,,,,,,,74,001,15,,2024-04-22_16h55.59.573,replicate_nsd,2023.2.3,59.95287979310988,2024-04-22 16h56.21.613395 -0400,
practice_images/w_auditorium1.jpg,2,0,,,,,0,2,2,2,,,,,10.645200970000587,,,,,,,,,,,10.629101133003132,10.629150950997428,10.629157349001616,10.645200970000587,10.645200970000587,11.645916690002196,11.645916690002196,14.645927700003085,14.645927700003085,14.645927700003085,14.645927700003085,14.629414820003149,None,0,None,14.629813970001123,14.629854557002545,,,,,,,,,,,,,,,,,,,,,,,,,,,,,,,,,,,,,,,,,,,,,,,,,,,74,001,15,,2024-04-22_16h55.59.573,replicate_nsd,2023.2.3,59.95287979310988,2024-04-22 16h56.21.613395 -0400,
practice_images/w_auditorium2.jpg,3,0,,,,,0,3,3,3,,,,,14.645927700003085,,,,,,,,,,,14.63012976400205,14.630216001001827,14.630227337998804,14.645927700003085,14.645927700003085,15.645929849000822,15.645929849000822,18.64595563599869,18.64595563599869,18.64595563599869,18.64595563599869,18.6293864390027,None,0,None,18.62978428199858,18.629823556999327,,,,,,,,,,,,,,,,,,,,,,,,,,,,,,,,,,,,,,,,,,,,,,,,,,,74,001,15,,2024-04-22_16h55.59.573,replicate_nsd,2023.2.3,59.95287979310988,2024-04-22 16h56.21.613395 -0400,
practice_images/w_monument1.jpg,4,0,,,,,0,4,4,4,,,,,18.64595563599869,,,,,,,,,,,18.630099200003315,18.630185053996684,18.630196796002565,18.64595563599869,18.64595563599869,19.64594701799797,19.64594701799797,22.64535605200217,22.64535605200217,22.64535605200217,22.64535605200217,22.629377901001135,None,0,None,22.629772663996846,22.629812546998437,,,,,,,,,,,,,,,,,,,,,,,,,,,,,,,,,,,,,,,,,,,,,,,,,,,74,001,15,,2024-04-22_16h55.59.573,replicate_nsd,2023.2.3,59.95287979310988,2024-04-22 16h56.21.613395 -0400,
practice_images/w_kitchen1.jpg,5,0,,,,,0,5,5,5,,,,,22.64535605200217,,,,,,,,,,,22.630080112998257,22.630164937996597,22.63017635599681,22.64535605200217,22.64535605200217,23.645931774997734,23.645931774997734,26.64591447699786,26.64591447699786,26.64591447699786,26.64591447699786,26.629326380003477,None,0,None,26.629720664997876,26.62976058100321,,,,,,,,,,,,,,,,,,,,,,,,,,,,,,,,,,,,,,,,,,,,,,,,,,,74,001,15,,2024-04-22_16h55.59.573,replicate_nsd,2023.2.3,59.95287979310988,2024-04-22 16h56.21.613395 -0400,
practice_images/w_monument2.jpg,6,0,,,,,0,6,6,6,,,,,26.64591447699786,,,,,,,,,,,26.630036442002165,26.630122055998072,26.630133792998095,26.64591447699786,26.64591447699786,27.645907502002956,27.645907502002956,30.645281224002247,30.645281224002247,30.645281224002247,30.645281224002247,30.628970869001932,None,0,None,30.629367365996586,30.629407334999996,,,,,,,,,,,,,,,,,,,,,,,,,,,,,,,,,,,,,,,,,,,,,,,,,,,74,001,15,,2024-04-22_16h55.59.573,replicate_nsd,2023.2.3,59.95287979310988,2024-04-22 16h56.21.613395 -0400,
practice_images/w_boardwalk2.jpg,7,0,,,,,0,7,7,7,,,,,30.645281224002247,,,,,,,,,,,30.629683038998337,30.629767858001287,30.62977958400006,30.645281224002247,30.645281224002247,31.645501648999925,31.645501648999925,34.645259794000594,34.645259794000594,34.645259794000594,34.645259794000594,34.629404610001075,None,0,None,34.6298035860018,34.629843825001444,,,,,,,,,,,,,,,,,,,,,,,,,,,,,,,,,,,,,,,,,,,,,,,,,,,74,001,15,,2024-04-22_16h55.59.573,replicate_nsd,2023.2.3,59.95287979310988,2024-04-22 16h56.21.613395 -0400,
practice_images/w_bedroom2.jpg,8,0,,,,,0,8,8,8,,,,,34.645259794000594,,,,,,,,,,,34.63012296600209,34.63020988700009,34.630221380000876,34.645259794000594,34.645259794000594,35.64553764300217,35.64553764300217,38.64529333000246,38.64529333000246,38.64529333000246,38.64529333000246,38.629363286003354,None,0,None,38.62976270099898,38.629803124997125,,,,,,,,,,,,,,,,,,,,,,,,,,,,,,,,,,,,,,,,,,,,,,,,,,,74,001,15,,2024-04-22_16h55.59.573,replicate_nsd,2023.2.3,59.95287979310988,2024-04-22 16h56.21.613395 -0400,
practice_images/w_boardwalk1.jpg,9,0,,,,,0,9,9,9,,,,,38.64529333000246,,,,,,,,,,,38.630080226001155,38.63016680599685,38.630178444997,38.64529333000246,38.64529333000246,39.64592546300264,39.64592546300264,42.6455225000027,42.6455225000027,42.6455225000027,42.6455225000027,42.62877319799736,None,0,None,42.629173415996775,42.62921345799987,,,,,,,,,,,,,,,,,,,,,,,,,,,,,,,,,,,,,,,,,,,,,,,,,,,74,001,15,,2024-04-22_16h55.59.573,replicate_nsd,2023.2.3,59.95287979310988,2024-04-22 16h56.21.613395 -0400,
blank.jpg,10,1,,,,,0,10,10,10,,,,,42.6455225000027,,,,,,,,,,,42.629491548999795,42.62957820799784,42.62959013300133,,,,,,,,,42.63350339000317,None,0,None,42.63378474899946,46.69603523499973,42.6455225000027,46.712269251002,,,,,,,,,,,,,,,,,,,,,,,,,,,,,,,,,,,,,,,,,,,,,,,,,74,001,15,,2024-04-22_16h55.59.573,replicate_nsd,2023.2.3,59.95287979310988,2024-04-22 16h56.21.613395 -0400,
practice_images/w_kitchen2.jpg,11,0,,,,,0,11,11,11,,,,,46.712269251002,,,,,,,,,,,46.69639700400148,46.696481747996586,46.69649349000247,46.712269251002,46.712269251002,47.71229932999995,47.71229932999995,50.7123396379975,50.7123396379975,50.7123396379975,50.7123396379975,50.695705359001295,None,0,None,50.69610274199658,50.696143105000374,,,,,,,,,,,,,,,,,,,,,,,,,,,,,,,,,,,,,,,,,,,,,,,,,,,74,001,15,,2024-04-22_16h55.59.573,replicate_nsd,2023.2.3,59.95287979310988,2024-04-22 16h56.21.613395 -0400,
practice_images/w_bedroom1.jpg,12,0,,,,,0,12,12,12,,,,,50.7123396379975,,,,,,,,,,,50.696415856000385,50.69650162800099,50.696513253999,50.7123396379975,50.7123396379975,51.71229060400219,51.71229060400219,54.712312267001835,54.712312267001835,54.712312267001835,54.712312267001835,54.69612696999684,None,0,None,54.69652812500135,54.696567291000974,,,,,,,,,,,,,,,,,,,,,,,,,,,,,,,,,,,,,,,,,,,,,,,,,,,74,001,15,,2024-04-22_16h55.59.573,replicate_nsd,2023.2.3,59.95287979310988,2024-04-22 16h56.21.613395 -0400,
practice_images/w_boardwalk2.jpg,13,0,,,,,0,13,13,13,,,,,54.712312267001835,,,,,,,,,,,54.69684411500202,54.69693039699632,54.69694195000193,54.712312267001835,54.712312267001835,55.71233266899799,55.71233266899799,58.71229882499756,58.71229882499756,58.71229882499756,58.71229882499756,58.69605919600144,None,0,None,58.69645596799819,58.69649565900181,,,,,,,,,,,,,,,,,,,,,,,,,,,,,,,,,,,,,,,,,,,,,,,,,,,74,001,15,,2024-04-22_16h55.59.573,replicate_nsd,2023.2.3,59.95287979310988,2024-04-22 16h56.21.613395 -0400,
practice_images/w_monument1.jpg,14,0,,,,,0,14,14,14,,,,,58.71229882499756,,,,,,,,,,,58.69677141000284,58.69685728100012,58.69686864999676,58.71229882499756,58.71229882499756,59.71232133999729,59.71232133999729,62.71217144100228,62.71217144100228,62.71217144100228,62.71217144100228,62.69571490200178,None,0,None,62.69612133700139,62.696161052001116,,,,,,,,,,,,,,,,,,,,,,,,,,,,,,,,,,,,,,,,,,,,,,,,,,,74,001,15,,2024-04-22_16h55.59.573,replicate_nsd,2023.2.3,59.95287979310988,2024-04-22 16h56.21.613395 -0400,
practice_images/w_auditorium1.jpg,15,0,,,,,0,15,15,15,,,,,62.71217144100228,,,,,,,,,,,62.696443448003265,62.696531335001055,62.6965429089978,62.71217144100228,62.71217144100228,63.71234360800008,63.71234360800008,66.71229676000075,66.71229676000075,66.71229676000075,66.71229676000075,66.69604066199827,None,0,None,66.69643989900214,66.69648036199942,,,,,,,,,,,,,,,,,,,,,,,,,,,,,,,,,,,,,,,,,,,,,,,,,,,74,001,15,,2024-04-22_16h55.59.573,replicate_nsd,2023.2.3,59.95287979310988,2024-04-22 16h56.21.613395 -0400,
practice_images/w_auditorium2.jpg,16,0,,,,,0,16,16,16,,,,,66.71229676000075,,,,,,,,,,,66.69675559300231,66.69684365799912,66.69685527899856,66.71229676000075,66.71229676000075,67.7123330760005,67.7123330760005,70.71234601600008,70.71234601600008,70.71234601600008,70.71234601600008,70.69608247600263,None,0,None,70.696480573999,70.69652024399693,,,,,,,,,,,,,,,,,,,,,,,,,,,,,,,,,,,,,,,,,,,,,,,,,,,74,001,15,,2024-04-22_16h55.59.573,replicate_nsd,2023.2.3,59.95287979310988,2024-04-22 16h56.21.613395 -0400,
practice_images/w_kitchen1.jpg,17,0,,,,,0,17,17,17,,,,,70.71234601600008,,,,,,,,,,,70.69679749199713,70.69688387699716,70.69689499100059,70.71234601600008,70.71234601600008,71.7122970950004,71.7122970950004,74.71234076900146,74.71234076900146,74.71234076900146,74.71234076900146,74.69552441700216,None,0,None,74.6959341949987,74.69597443899693,,,,,,,,,,,,,,,,,,,,,,,,,,,,,,,,,,,,,,,,,,,,,,,,,,,74,001,15,,2024-04-22_16h55.59.573,replicate_nsd,2023.2.3,59.95287979310988,2024-04-22 16h56.21.613395 -0400,
practice_images/w_bedroom1.jpg,18,0,,,,,0,18,18,18,,,,,74.71234076900146,,,,,,,,,,,74.696252998001,74.69634031799797,74.69635174800351,74.71234076900146,74.71234076900146,75.71199373900163,75.71199373900163,78.71232412700192,78.71232412700192,78.71232412700192,78.71232412700192,78.69570442500117,None,0,None,78.696101335001,78.69614167499822,,,,,,,,,,,,,,,,,,,,,,,,,,,,,,,,,,,,,,,,,,,,,,,,,,,74,001,15,,2024-04-22_16h55.59.573,replicate_nsd,2023.2.3,59.95287979310988,2024-04-22 16h56.21.613395 -0400,
practice_images/w_monument2.jpg,19,0,,,,,0,19,19,19,,,,,78.71232412700192,,,,,,,,,,,78.69641608800157,78.69650189400272,78.69651345199964,78.71232412700192,78.71232412700192,79.71228964000329,79.71228964000329,82.71431326799939,82.71431326799939,82.71431326799939,82.71431326799939,82.6958827970011,None,0,None,82.69628417400236,82.69632392500353,,,,,,,,,,,,,,,,,,,,,,,,,,,,,,,,,,,,,,,,,,,,,,,,,,,74,001,15,,2024-04-22_16h55.59.573,replicate_nsd,2023.2.3,59.95287979310988,2024-04-22 16h56.21.613395 -0400,
,,,,,,,,,,,,,,,,,,,,,,,,,,,,,,,,,,,,,,,,,,,,,82.69638241299981,82.71431326799939,82.71431326799939,86.76164455300022,2,4.041178614003002,None,,,,,,,,,,,,,,,,,,,,,,,,,,,,,,,,,,,,,,,,,,74,001,15,,2024-04-22_16h55.59.573,replicate_nsd,2023.2.3,59.95287979310988,2024-04-22 16h56.21.613395 -0400,
,,,,,,,,,,,,,,,,,,,,,,,,,,,,,,,,,,,,,,,,,,,,,,,,,,,,86.76167188300315,86.77875468199636,86.77875468199636,87.89494292200106,equal,1.1060412420047214,None,,,,,,,,,,,,,,,,,,,,,,,,,,,,,,,,,,,74,001,15,,2024-04-22_16h55.59.573,replicate_nsd,2023.2.3,59.95287979310988,2024-04-22 16h56.21.613395 -0400,
images/image_358_seed_1.png,0,0,0,0,0,"[9, 19, 29, 39, 49, 59, 68, 69, 70, 71]",,,,,0,0,0,0,102.08860596200248,,,,,,,,,,,,,,,,,,,,,,,,,,,,,,,,,,,,,,,,,,,,87.96944182900188,87.96950026899867,87.96950730300159,87.9866413560012,None,0,None,87.98784881000029,87.98788176500238,None,87.9883632409983,87.98840416200255,None,87.98888089600223,87.9889095260005,None,,,,,,,,,,,,,,,,,,,74,001,15,,2024-04-22_16h55.59.573,replicate_nsd,2023.2.3,59.95287979310988,2024-04-22 16h56.21.613395 -0400,
images/image_257_seed_1.png,1,0,0,0,0,"[9, 19, 29, 39, 49, 59, 68, 69, 70, 71]",,,,,0,1,1,1,102.08860596200248,,,,,,,,,,,,,,,,,,,,,,,,,,,,,,,,,,,,,,,,,,,,87.9896000880035,87.98969408300036,87.98970165599894,88.00526685299701,None,0,None,88.00546106600086,88.005487593,None,88.00554926900077,88.0055821279966,None,88.00564359100099,88.00566639399767,None,,,,,,,,,,,,,,,,,,,74,001,15,,2024-04-22_16h55.59.573,replicate_nsd,2023.2.3,59.95287979310988,2024-04-22 16h56.21.613395 -0400,
images/image_738_seed_1.png,2,0,0,0,0,"[9, 19, 29, 39, 49, 59, 68, 69, 70, 71]",,,,,0,2,2,2,102.08860596200248,,,,,,,,,,,,,,,,,,,,,,,,,,,,,,,,,,,,,,,,,,,,88.0058677249981,88.00592701500136,88.0059340450025,88.02094699000008,None,0,None,88.0211699240026,88.02120049299992,None,88.0212717079994,88.02130942000076,None,88.02138102999743,88.02140759999747,None,,,,,,,,,,,,,,,,,,,74,001,15,,2024-04-22_16h55.59.573,replicate_nsd,2023.2.3,59.95287979310988,2024-04-22 16h56.21.613395 -0400,
images/image_611_seed_1.png,3,0,0,0,0,"[9, 19, 29, 39, 49, 59, 68, 69, 70, 71]",,,,,0,3,3,3,102.08860596200248,,,,,,,,,,,,,,,,,,,,,,,,,,,,,,,,,,,,,,,,,,,,88.02164320200245,88.02170812200347,88.0217160539978,88.03791633599758,None,0,None,88.03814489600336,88.03817579300085,None,88.03824743199948,88.03828426900145,None,88.0383562499992,88.03838262199861,None,,,,,,,,,,,,,,,,,,,74,001,15,,2024-04-22_16h55.59.573,replicate_nsd,2023.2.3,59.95287979310988,2024-04-22 16h56.21.613395 -0400,
images/image_637_seed_1.png,4,0,0,0,0,"[9, 19, 29, 39, 49, 59, 68, 69, 70, 71]",,,,,0,4,4,4,102.08860596200248,,,,,,,,,,,,,,,,,,,,,,,,,,,,,,,,,,,,,,,,,,,,88.0386232000019,88.0386914069968,88.03869963799661,88.05473510600132,None,0,None,88.0549595429984,88.0549903200008,None,88.0550618490015,88.05510009900172,None,88.05517219199828,88.05519987500156,None,,,,,,,,,,,,,,,,,,,74,001,15,,2024-04-22_16h55.59.573,replicate_nsd,2023.2.3,59.95287979310988,2024-04-22 16h56.21.613395 -0400,
images/image_743_seed_1.png,5,0,0,0,0,"[9, 19, 29, 39, 49, 59, 68, 69, 70, 71]",,,,,0,5,5,5,102.08860596200248,,,,,,,,,,,,,,,,,,,,,,,,,,,,,,,,,,,,,,,,,,,,88.0554336799978,88.05550120100088,88.05550944699644,88.07336196899996,None,0,None,88.0735867350013,88.07361697099986,None,88.07368829999905,88.07372522600053,None,88.07379682399915,88.07382238999708,None,,,,,,,,,,,,,,,,,,,74,001,15,,2024-04-22_16h55.59.573,replicate_nsd,2023.2.3,59.95287979310988,2024-04-22 16h56.21.613395 -0400,
images/image_218_seed_1.png,6,0,0,0,0,"[9, 19, 29, 39, 49, 59, 68, 69, 70, 71]",,,,,0,6,6,6,102.08860596200248,,,,,,,,,,,,,,,,,,,,,,,,,,,,,,,,,,,,,,,,,,,,88.0740679369992,88.07414429700293,88.07415322100132,88.09032280300016,None,0,None,88.09060263099673,88.0906506129977,None,88.0907424399993,88.09080193500267,None,88.09089565199974,88.09092922299897,None,,,,,,,,,,,,,,,,,,,74,001,15,,2024-04-22_16h55.59.573,replicate_nsd,2023.2.3,59.95287979310988,2024-04-22 16h56.21.613395 -0400,
images/image_436_seed_1.png,7,0,0,0,0,"[9, 19, 29, 39, 49, 59, 68, 69, 70, 71]",,,,,0,7,7,7,102.08860596200248,,,,,,,,,,,,,,,,,,,,,,,,,,,,,,,,,,,,,,,,,,,,88.09122163899883,88.0913031750024,88.09131363699998,88.10880419099703,None,0,None,88.10902921899833,88.10906002899719,None,88.10913147500105,88.10916847400222,None,88.10924096099916,88.10926740900322,None,,,,,,,,,,,,,,,,,,,74,001,15,,2024-04-22_16h55.59.573,replicate_nsd,2023.2.3,59.95287979310988,2024-04-22 16h56.21.613395 -0400,
images/image_249_seed_1.png,8,0,0,0,0,"[9, 19, 29, 39, 49, 59, 68, 69, 70, 71]",,,,,0,8,8,8,102.08860596200248,,,,,,,,,,,,,,,,,,,,,,,,,,,,,,,,,,,,,,,,,,,,88.10950250199676,88.10956907000218,88.10957719999715,88.12576419599645,None,0,None,88.12599252499786,88.1260235180016,None,88.12609618099668,88.12613384600263,None,88.12620608699945,88.12623245499708,None,,,,,,,,,,,,,,,,,,,74,001,15,,2024-04-22_16h55.59.573,replicate_nsd,2023.2.3,59.95287979310988,2024-04-22 16h56.21.613395 -0400,
blank.jpg,9,1,0,0,0,"[9, 19, 29, 39, 49, 59, 68, 69, 70, 71]",,,,,0,9,9,9,102.08860596200248,,,,,,,,,,,,,,,,,,,,,,,,,,,,,,,,,,,,,,,,,,,,88.12646697599848,88.12653339599638,88.12654149300215,88.12957522399665,None,0,None,88.12980113799858,88.12983207999787,None,88.1299048150031,88.12994251600321,None,88.13001531500049,88.13004143499711,None,,,,,,,,,,,,,,,,,,,74,001,15,,2024-04-22_16h55.59.573,replicate_nsd,2023.2.3,59.95287979310988,2024-04-22 16h56.21.613395 -0400,
images/image_124_seed_1.png,10,0,0,0,0,"[9, 19, 29, 39, 49, 59, 68, 69, 70, 71]",,,,,0,10,10,10,102.08860596200248,,,,,,,,,,,,,,,,,,,,,,,,,,,,,,,,,,,,,,,,,,,,88.13027822699951,88.13034502299706,88.13035312599823,88.14656414699857,None,0,None,88.146791621999,88.14682293400256,None,88.14689476000058,88.14693234700098,None,88.14700434300175,88.1470305460025,None,,,,,,,,,,,,,,,,,,,74,001,15,,2024-04-22_16h55.59.573,replicate_nsd,2023.2.3,59.95287979310988,2024-04-22 16h56.21.613395 -0400,
images/image_133_seed_1.png,11,0,0,0,0,"[9, 19, 29, 39, 49, 59, 68, 69, 70, 71]",,,,,0,11,11,11,102.08860596200248,,,,,,,,,,,,,,,,,,,,,,,,,,,,,,,,,,,,,,,,,,,,88.14726793199952,88.14733431600325,88.14734220499668,88.16306701699796,None,0,None,88.16329298899655,88.16332328799763,None,88.16339447000064,88.16343100799713,None,88.1635021569964,88.16352798599837,None,,,,,,,,,,,,,,,,,,,74,001,15,,2024-04-22_16h55.59.573,replicate_nsd,2023.2.3,59.95287979310988,2024-04-22 16h56.21.613395 -0400,
images/image_459_seed_1.png,12,0,0,0,0,"[9, 19, 29, 39, 49, 59, 68, 69, 70, 71]",,,,,0,12,12,12,102.08860596200248,,,,,,,,,,,,,,,,,,,,,,,,,,,,,,,,,,,,,,,,,,,,88.16376208599831,88.1638267649978,88.16383483700338,88.18033369600016,None,0,None,88.18061347399635,88.18065337600274,None,88.18074209999759,88.18078773799789,None,88.18087597400154,88.18090879199735,None,,,,,,,,,,,,,,,,,,,74,001,15,,2024-04-22_16h55.59.573,replicate_nsd,2023.2.3,59.95287979310988,2024-04-22 16h56.21.613395 -0400,
images/image_616_seed_1.png,13,0,0,0,0,"[9, 19, 29, 39, 49, 59, 68, 69, 70, 71]",,,,,0,13,13,13,102.08860596200248,,,,,,,,,,,,,,,,,,,,,,,,,,,,,,,,,,,,,,,,,,,,88.18120340399764,88.18128443499882,88.1812947110011,88.19882253400283,None,0,None,88.19904655699793,88.19907733600121,None,88.19914868700289,88.1991859339978,None,88.19925771900307,88.19928386600077,None,,,,,,,,,,,,,,,,,,,74,001,15,,2024-04-22_16h55.59.573,replicate_nsd,2023.2.3,59.95287979310988,2024-04-22 16h56.21.613395 -0400,
images/image_403_seed_1.png,14,0,0,0,0,"[9, 19, 29, 39, 49, 59, 68, 69, 70, 71]",,,,,0,14,14,14,102.08860596200248,,,,,,,,,,,,,,,,,,,,,,,,,,,,,,,,,,,,,,,,,,,,88.199517922003,88.19958346799831,88.19959161899897,88.2149200519998,None,0,None,88.21514643500268,88.21517724199657,None,88.2152489250002,88.21528610600217,None,88.21535830799985,88.21538539500034,None,,,,,,,,,,,,,,,,,,,74,001,15,,2024-04-22_16h55.59.573,replicate_nsd,2023.2.3,59.95287979310988,2024-04-22 16h56.21.613395 -0400,
images/image_675_seed_1.png,15,0,0,0,0,"[9, 19, 29, 39, 49, 59, 68, 69, 70, 71]",,,,,0,15,15,15,102.08860596200248,,,,,,,,,,,,,,,,,,,,,,,,,,,,,,,,,,,,,,,,,,,,88.21562293700117,88.2156892109997,88.21569720400294,88.23097581399634,None,0,None,88.23119946399675,88.23123028800183,None,88.2313020119982,88.23133931199845,None,88.23141106699768,88.23143718999927,None,,,,,,,,,,,,,,,,,,,74,001,15,,2024-04-22_16h55.59.573,replicate_nsd,2023.2.3,59.95287979310988,2024-04-22 16h56.21.613395 -0400,
images/image_438_seed_1.png,16,0,0,0,0,"[9, 19, 29, 39, 49, 59, 68, 69, 70, 71]",,,,,0,16,16,16,102.08860596200248,,,,,,,,,,,,,,,,,,,,,,,,,,,,,,,,,,,,,,,,,,,,88.23167003900016,88.23173582599702,88.23174413899687,88.24552667399985,None,0,None,88.24580334799975,88.24584178299847,None,88.24593153299793,88.24597796399757,None,88.24606655700336,88.2460995529982,None,,,,,,,,,,,,,,,,,,,74,001,15,,2024-04-22_16h55.59.573,replicate_nsd,2023.2.3,59.95287979310988,2024-04-22 16h56.21.613395 -0400,
images/image_442_seed_1.png,17,0,0,0,0,"[9, 19, 29, 39, 49, 59, 68, 69, 70, 71]",,,,,0,17,17,17,102.08860596200248,,,,,,,,,,,,,,,,,,,,,,,,,,,,,,,,,,,,,,,,,,,,88.24638969200169,88.24647051800275,88.24648058599996,88.26407947699772,None,0,None,88.26430404999701,88.26433440900291,None,88.2644057130019,88.26444216800155,None,88.26451297000312,88.26454110600025,None,,,,,,,,,,,,,,,,,,,74,001,15,,2024-04-22_16h55.59.573,replicate_nsd,2023.2.3,59.95287979310988,2024-04-22 16h56.21.613395 -0400,
images/image_59_seed_1.png,18,0,0,0,0,"[9, 19, 29, 39, 49, 59, 68, 69, 70, 71]",,,,,0,18,18,18,102.08860596200248,,,,,,,,,,,,,,,,,,,,,,,,,,,,,,,,,,,,,,,,,,,,88.26477607499692,88.26484160599648,88.26484979900124,88.28037488299742,None,0,None,88.2805670279995,88.28059339400352,None,88.28065459299978,88.28068604200234,None,88.28074729799846,88.28076995500305,None,,,,,,,,,,,,,,,,,,,74,001,15,,2024-04-22_16h55.59.573,replicate_nsd,2023.2.3,59.95287979310988,2024-04-22 16h56.21.613395 -0400,
blank.jpg,19,1,0,0,0,"[9, 19, 29, 39, 49, 59, 68, 69, 70, 71]",,,,,0,19,19,19,102.08860596200248,,,,,,,,,,,,,,,,,,,,,,,,,,,,,,,,,,,,,,,,,,,,88.28097244800301,88.28102850099822,88.28103537899733,88.28353257999697,None,0,None,88.28372407500137,88.28375042800326,None,88.2838107159987,88.28384267199726,None,88.28390358600154,88.2839261140034,None,,,,,,,,,,,,,,,,,,,74,001,15,,2024-04-22_16h55.59.573,replicate_nsd,2023.2.3,59.95287979310988,2024-04-22 16h56.21.613395 -0400,
images/image_73_seed_1.png,20,0,0,0,0,"[9, 19, 29, 39, 49, 59, 68, 69, 70, 71]",,,,,0,20,20,20,102.08860596200248,,,,,,,,,,,,,,,,,,,,,,,,,,,,,,,,,,,,,,,,,,,,88.28413283100235,88.28419027700147,88.28419709100126,88.29424358999677,None,0,None,88.29443280000123,88.29445841500274,None,88.29451786300342,88.29454866499873,None,88.29460880700208,88.29463043499709,None,,,,,,,,,,,,,,,,,,,74,001,15,,2024-04-22_16h55.59.573,replicate_nsd,2023.2.3,59.95287979310988,2024-04-22 16h56.21.613395 -0400,
images/paired_image_777_1.png,21,0,0,0,0,"[9, 19, 29, 39, 49, 59, 68, 69, 70, 71]",,,,,0,21,21,21,102.08860596200248,,,,,,,,,,,,,,,,,,,,,,,,,,,,,,,,,,,,,,,,,,,,88.29483307399641,88.29488904699974,88.2948956859982,88.30819182699634,None,0,None,88.30837998700008,88.30840546199761,None,88.30846562999795,88.30849673299963,None,88.30855651399906,88.30857825400017,None,,,,,,,,,,,,,,,,,,,74,001,15,,2024-04-22_16h55.59.573,replicate_nsd,2023.2.3,59.95287979310988,2024-04-22 16h56.21.613395 -0400,
images/image_507_seed_1.png,22,0,0,0,0,"[9, 19, 29, 39, 49, 59, 68, 69, 70, 71]",,,,,0,22,22,22,102.08860596200248,,,,,,,,,,,,,,,,,,,,,,,,,,,,,,,,,,,,,,,,,,,,88.30877466699894,88.30883051500132,88.30883725800231,88.32293256599951,None,0,None,88.32313310600148,88.32315958000254,None,88.32322042399755,88.32325165800285,None,88.32331310299924,88.3233360469967,None,,,,,,,,,,,,,,,,,,,74,001,15,,2024-04-22_16h55.59.573,replicate_nsd,2023.2.3,59.95287979310988,2024-04-22 16h56.21.613395 -0400,
images/14_33.png,23,0,0,0,0,"[9, 19, 29, 39, 49, 59, 68, 69, 70, 71]",,,,,0,23,23,23,102.08860596200248,,,,,,,,,,,,,,,,,,,,,,,,,,,,,,,,,,,,,,,,,,,,88.32353673400212,88.32359361199633,88.32360087500274,88.329678823,None,0,None,88.32987934700213,88.3299065109968,None,88.32996884999739,88.33000112800073,None,88.33006375600235,88.33008657299797,None,,,,,,,,,,,,,,,,,,,74,001,15,,2024-04-22_16h55.59.573,replicate_nsd,2023.2.3,59.95287979310988,2024-04-22 16h56.21.613395 -0400,
images/image_671_seed_1.png,24,0,0,0,0,"[9, 19, 29, 39, 49, 59, 68, 69, 70, 71]",,,,,0,24,24,24,102.08860596200248,,,,,,,,,,,,,,,,,,,,,,,,,,,,,,,,,,,,,,,,,,,,88.33028903700324,88.33034520599904,88.33035237400327,88.34619013399788,None,0,None,88.34638516500127,88.34641146899958,None,88.34647294000024,88.34650736099866,None,88.34657929000241,88.3466026189999,None,,,,,,,,,,,,,,,,,,,74,001,15,,2024-04-22_16h55.59.573,replicate_nsd,2023.2.3,59.95287979310988,2024-04-22 16h56.21.613395 -0400,
images/image_587_seed_1.png,25,0,0,0,0,"[9, 19, 29, 39, 49, 59, 68, 69, 70, 71]",,,,,0,25,25,25,102.08860596200248,,,,,,,,,,,,,,,,,,,,,,,,,,,,,,,,,,,,,,,,,,,,88.34680544900039,88.34686216599948,88.34686918400257,88.36177897900052,None,0,None,88.36201138499746,88.36204179399647,None,88.36211425100191,88.36215220099984,None,88.36223049600085,88.36225759600347,None,,,,,,,,,,,,,,,,,,,74,001,15,,2024-04-22_16h55.59.573,replicate_nsd,2023.2.3,59.95287979310988,2024-04-22 16h56.21.613395 -0400,
images/image_258_seed_1.png,26,0,0,0,0,"[9, 19, 29, 39, 49, 59, 68, 69, 70, 71]",,,,,0,26,26,26,102.08860596200248,,,,,,,,,,,,,,,,,,,,,,,,,,,,,,,,,,,,,,,,,,,,88.36253719800152,88.36260352499812,88.3626117620006,88.37886592600262,None,0,None,88.37914494200231,88.37918269100192,None,88.3792725500025,88.37931796000339,None,88.3794080000007,88.37944066600176,None,,,,,,,,,,,,,,,,,,,74,001,15,,2024-04-22_16h55.59.573,replicate_nsd,2023.2.3,59.95287979310988,2024-04-22 16h56.21.613395 -0400,
images/image_718_seed_1.png,27,0,0,0,0,"[9, 19, 29, 39, 49, 59, 68, 69, 70, 71]",,,,,0,27,27,27,102.08860596200248,,,,,,,,,,,,,,,,,,,,,,,,,,,,,,,,,,,,,,,,,,,,88.379733638998,88.37981582200155,88.37982596700022,88.39765179999813,None,0,None,88.3978776599979,88.39790815400193,None,88.39797908099717,88.3980157440019,None,88.39808742199966,88.39811389499664,None,,,,,,,,,,,,,,,,,,,74,001,15,,2024-04-22_16h55.59.573,replicate_nsd,2023.2.3,59.95287979310988,2024-04-22 16h56.21.613395 -0400,
images/image_30_seed_1.png,28,0,0,0,0,"[9, 19, 29, 39, 49, 59, 68, 69, 70, 71]",,,,,0,28,28,28,102.08860596200248,,,,,,,,,,,,,,,,,,,,,,,,,,,,,,,,,,,,,,,,,,,,88.3983470940002,88.39841261700349,88.39842072699685,88.41598333999718,None,0,None,88.41626291500143,88.41629992800154,None,88.4163889679985,88.41643541800295,None,88.41652389900264,88.41655656600051,None,,,,,,,,,,,,,,,,,,,74,001,15,,2024-04-22_16h55.59.573,replicate_nsd,2023.2.3,59.95287979310988,2024-04-22 16h56.21.613395 -0400,
blank.jpg,29,1,0,0,0,"[9, 19, 29, 39, 49, 59, 68, 69, 70, 71]",,,,,0,29,29,29,102.08860596200248,,,,,,,,,,,,,,,,,,,,,,,,,,,,,,,,,,,,,,,,,,,,88.41686001999915,88.41694344700227,88.41695353900286,88.42004958899633,None,0,None,88.42028229800053,88.42031327899895,None,88.4203853900035,88.4204224080022,None,88.42049486799806,88.42052062199946,None,,,,,,,,,,,,,,,,,,,74,001,15,,2024-04-22_16h55.59.573,replicate_nsd,2023.2.3,59.95287979310988,2024-04-22 16h56.21.613395 -0400,
images/image_742_seed_1.png,30,0,0,0,0,"[9, 19, 29, 39, 49, 59, 68, 69, 70, 71]",,,,,0,30,30,30,102.08860596200248,,,,,,,,,,,,,,,,,,,,,,,,,,,,,,,,,,,,,,,,,,,,88.42075870300323,88.42082461900281,88.42083278799691,88.43746952500078,None,0,None,88.43767023400142,88.43769646799774,None,88.4377580069995,88.43778987700352,None,88.4378515799981,88.4378741440014,None,,,,,,,,,,,,,,,,,,,74,001,15,,2024-04-22_16h55.59.573,replicate_nsd,2023.2.3,59.95287979310988,2024-04-22 16h56.21.613395 -0400,
images/paired_image_949_1.png,31,0,0,0,0,"[9, 19, 29, 39, 49, 59, 68, 69, 70, 71]",,,,,0,31,31,31,102.08860596200248,,,,,,,,,,,,,,,,,,,,,,,,,,,,,,,,,,,,,,,,,,,,88.43807656900026,88.43813367900293,88.43814063000173,88.45319558800111,None,0,None,88.45342192099633,88.45345328599797,None,88.45352484899922,88.45356213500054,None,88.45363363200158,88.45365945900267,None,,,,,,,,,,,,,,,,,,,74,001,15,,2024-04-22_16h55.59.573,replicate_nsd,2023.2.3,59.95287979310988,2024-04-22 16h56.21.613395 -0400,
images/image_471_seed_1.png,32,0,0,0,0,"[9, 19, 29, 39, 49, 59, 68, 69, 70, 71]",,,,,0,32,32,32,102.08860596200248,,,,,,,,,,,,,,,,,,,,,,,,,,,,,,,,,,,,,,,,,,,,88.45389451600204,88.45396169400192,88.45396986899868,88.46967699599918,None,0,None,88.46996124400175,88.46999895499903,None,88.47008738599834,88.47013296899968,None,88.47022100100003,88.4702535739998,None,,,,,,,,,,,,,,,,,,,74,001,15,,2024-04-22_16h55.59.573,replicate_nsd,2023.2.3,59.95287979310988,2024-04-22 16h56.21.613395 -0400,
images/image_379_seed_1.png,33,0,0,0,0,"[9, 19, 29, 39, 49, 59, 68, 69, 70, 71]",,,,,0,33,33,33,102.08860596200248,,,,,,,,,,,,,,,,,,,,,,,,,,,,,,,,,,,,,,,,,,,,88.4705452479975,88.47063502899982,88.47064508600306,88.48731302999659,None,0,None,88.48759429899656,88.4876325649966,None,88.48773109399917,88.48777759200311,None,88.4878677509987,88.48790027899668,None,,,,,,,,,,,,,,,,,,,74,001,15,,2024-04-22_16h55.59.573,replicate_nsd,2023.2.3,59.95287979310988,2024-04-22 16h56.21.613395 -0400,
images/image_240_seed_1.png,34,0,0,0,0,"[9, 19, 29, 39, 49, 59, 68, 69, 70, 71]",,,,,0,34,34,34,102.08860596200248,,,,,,,,,,,,,,,,,,,,,,,,,,,,,,,,,,,,,,,,,,,,88.48819604599703,88.48827697699744,88.4882870329966,88.5023722870028,None,0,None,88.50265633100207,88.50269439299882,None,88.50278383499972,88.50282930999674,None,88.50291814299999,88.50295071899745,None,,,,,,,,,,,,,,,,,,,74,001,15,,2024-04-22_16h55.59.573,replicate_nsd,2023.2.3,59.95287979310988,2024-04-22 16h56.21.613395 -0400,
images/image_19_seed_1.png,35,0,0,0,0,"[9, 19, 29, 39, 49, 59, 68, 69, 70, 71]",,,,,0,35,35,35,102.08860596200248,,,,,,,,,,,,,,,,,,,,,,,,,,,,,,,,,,,,,,,,,,,,88.50325133199658,88.5033340259979,88.50334426399786,88.52068777800014,None,0,None,88.52097050700104,88.52101715299796,None,88.52110914699733,88.52115642800345,None,88.52124571100285,88.52127859900065,None,,,,,,,,,,,,,,,,,,,74,001,15,,2024-04-22_16h55.59.573,replicate_nsd,2023.2.3,59.95287979310988,2024-04-22 16h56.21.613395 -0400,
images/image_373_seed_1.png,36,0,0,0,0,"[9, 19, 29, 39, 49, 59, 68, 69, 70, 71]",,,,,0,36,36,36,102.08860596200248,,,,,,,,,,,,,,,,,,,,,,,,,,,,,,,,,,,,,,,,,,,,88.5215744149973,88.52165712699934,88.52166728999873,88.53816054700292,None,0,None,88.53836151699943,88.53838820500096,None,88.53844980800204,88.53848162599752,None,88.53854388200125,88.53856647499924,None,,,,,,,,,,,,,,,,,,,74,001,15,,2024-04-22_16h55.59.573,replicate_nsd,2023.2.3,59.95287979310988,2024-04-22 16h56.21.613395 -0400,
images/image_226_seed_1.png,37,0,0,0,0,"[9, 19, 29, 39, 49, 59, 68, 69, 70, 71]",,,,,0,37,37,37,102.08860596200248,,,,,,,,,,,,,,,,,,,,,,,,,,,,,,,,,,,,,,,,,,,,88.53876817000128,88.53882550699927,88.53883232099906,88.55271710200032,None,0,None,88.5530072640031,88.55304583499674,None,88.55313496299641,88.55318093599635,None,88.55327058999683,88.55330359999789,None,,,,,,,,,,,,,,,,,,,74,001,15,,2024-04-22_16h55.59.573,replicate_nsd,2023.2.3,59.95287979310988,2024-04-22 16h56.21.613395 -0400,
images/image_664_seed_1.png,38,0,0,0,0,"[9, 19, 29, 39, 49, 59, 68, 69, 70, 71]",,,,,0,38,38,38,102.08860596200248,,,,,,,,,,,,,,,,,,,,,,,,,,,,,,,,,,,,,,,,,,,,88.55360351200216,88.55368498100142,88.55369488200085,88.56837926399749,None,0,None,88.5686117860023,88.56864225799654,None,88.56871459599643,88.56875121699704,None,88.56882439600304,88.56885086699913,None,,,,,,,,,,,,,,,,,,,74,001,15,,2024-04-22_16h55.59.573,replicate_nsd,2023.2.3,59.95287979310988,2024-04-22 16h56.21.613395 -0400,
blank.jpg,39,1,0,0,0,"[9, 19, 29, 39, 49, 59, 68, 69, 70, 71]",,,,,0,39,39,39,102.08860596200248,,,,,,,,,,,,,,,,,,,,,,,,,,,,,,,,,,,,,,,,,,,,88.56908610399842,88.56915124400257,88.56915951200062,88.57209433800017,None,0,None,88.57233215199813,88.57236341600219,None,88.5724385259964,88.57247598099639,None,88.57255263999832,88.572578927,None,,,,,,,,,,,,,,,,,,,74,001,15,,2024-04-22_16h55.59.573,replicate_nsd,2023.2.3,59.95287979310988,2024-04-22 16h56.21.613395 -0400,
images/image_734_seed_1.png,40,0,0,0,0,"[9, 19, 29, 39, 49, 59, 68, 69, 70, 71]",,,,,0,40,40,40,102.08860596200248,,,,,,,,,,,,,,,,,,,,,,,,,,,,,,,,,,,,,,,,,,,,88.57282700899668,88.57289306299936,88.5729011700023,88.58803577000072,None,0,None,88.58827033599664,88.5883010539983,None,88.5883720799975,88.58841163400211,None,88.58848352399946,88.58850966300088,None,,,,,,,,,,,,,,,,,,,74,001,15,,2024-04-22_16h55.59.573,replicate_nsd,2023.2.3,59.95287979310988,2024-04-22 16h56.21.613395 -0400,
images/image_222_seed_1.png,41,0,0,0,0,"[9, 19, 29, 39, 49, 59, 68, 69, 70, 71]",,,,,0,41,41,41,102.08860596200248,,,,,,,,,,,,,,,,,,,,,,,,,,,,,,,,,,,,,,,,,,,,88.58874455199839,88.58881052499783,88.58881866299635,88.60373018200335,None,0,None,88.60395445900213,88.60398502199678,None,88.60405657999945,88.60409348800022,None,88.60416493200319,88.60419131600065,None,,,,,,,,,,,,,,,,,,,74,001,15,,2024-04-22_16h55.59.573,replicate_nsd,2023.2.3,59.95287979310988,2024-04-22 16h56.21.613395 -0400,
images/image_322_seed_1.png,42,0,0,0,0,"[9, 19, 29, 39, 49, 59, 68, 69, 70, 71]",,,,,0,42,42,42,102.08860596200248,,,,,,,,,,,,,,,,,,,,,,,,,,,,,,,,,,,,,,,,,,,,88.60442650700134,88.60449264899944,88.60450102199684,88.62088309099636,None,0,None,88.62110635999852,88.62113662400225,None,88.62120909900113,88.62124611200124,None,88.62131752300047,88.62134349499684,None,,,,,,,,,,,,,,,,,,,74,001,15,,2024-04-22_16h55.59.573,replicate_nsd,2023.2.3,59.95287979310988,2024-04-22 16h56.21.613395 -0400,
images/image_292_seed_1.png,43,0,0,0,0,"[9, 19, 29, 39, 49, 59, 68, 69, 70, 71]",,,,,0,43,43,43,102.08860596200248,,,,,,,,,,,,,,,,,,,,,,,,,,,,,,,,,,,,,,,,,,,,88.62157688199659,88.62164269400091,88.62165069099865,88.63796883600298,None,0,None,88.6381946659967,88.63822514600179,None,88.63829648400133,88.63833331200294,None,88.63840463999804,88.63843101399834,None,,,,,,,,,,,,,,,,,,,74,001,15,,2024-04-22_16h55.59.573,replicate_nsd,2023.2.3,59.95287979310988,2024-04-22 16h56.21.613395 -0400,
images/image_386_seed_1.png,44,0,0,0,0,"[9, 19, 29, 39, 49, 59, 68, 69, 70, 71]",,,,,0,44,44,44,102.08860596200248,,,,,,,,,,,,,,,,,,,,,,,,,,,,,,,,,,,,,,,,,,,,88.63866358999803,88.63873246099683,88.63875782099785,88.6537887960003,None,0,None,88.65406922400143,88.65410717899795,None,88.65424748600344,88.65429513400159,None,88.65438628099946,88.65441954699781,None,,,,,,,,,,,,,,,,,,,74,001,15,,2024-04-22_16h55.59.573,replicate_nsd,2023.2.3,59.95287979310988,2024-04-22 16h56.21.613395 -0400,
images/image_198_seed_1.png,45,0,0,0,0,"[9, 19, 29, 39, 49, 59, 68, 69, 70, 71]",,,,,0,45,45,45,102.08860596200248,,,,,,,,,,,,,,,,,,,,,,,,,,,,,,,,,,,,,,,,,,,,88.65471098000125,88.65479313400283,88.65480318699701,88.67128405800031,None,0,None,88.67150781700184,88.67153808599687,None,88.67160870399675,88.67164600999968,None,88.67171720800252,88.67174331199931,None,,,,,,,,,,,,,,,,,,,74,001,15,,2024-04-22_16h55.59.573,replicate_nsd,2023.2.3,59.95287979310988,2024-04-22 16h56.21.613395 -0400,
images/image_201_seed_1.png,46,0,0,0,0,"[9, 19, 29, 39, 49, 59, 68, 69, 70, 71]",,,,,0,46,46,46,102.08860596200248,,,,,,,,,,,,,,,,,,,,,,,,,,,,,,,,,,,,,,,,,,,,88.67197871900134,88.6720442040023,88.67205222899793,88.68668776599952,None,0,None,88.68717723699956,88.68722503299796,None,88.68733831399732,88.68739607000316,None,88.68751027600229,88.68755139099812,None,,,,,,,,,,,,,,,,,,,74,001,15,,2024-04-22_16h55.59.573,replicate_nsd,2023.2.3,59.95287979310988,2024-04-22 16h56.21.613395 -0400,
images/image_609_seed_1.png,47,0,0,0,0,"[9, 19, 29, 39, 49, 59, 68, 69, 70, 71]",,,,,0,47,47,47,102.08860596200248,,,,,,,,,,,,,,,,,,,,,,,,,,,,,,,,,,,,,,,,,,,,88.68791497599886,88.68801784500101,88.68803033800214,88.70568945800187,None,0,None,88.70596875799674,88.70600652499706,None,88.70609564000188,88.70614130399917,None,88.70623089499713,88.70626345199707,None,,,,,,,,,,,,,,,,,,,74,001,15,,2024-04-22_16h55.59.573,replicate_nsd,2023.2.3,59.95287979310988,2024-04-22 16h56.21.613395 -0400,
images/image_445_seed_1.png,48,0,0,0,0,"[9, 19, 29, 39, 49, 59, 68, 69, 70, 71]",,,,,0,48,48,48,102.08860596200248,,,,,,,,,,,,,,,,,,,,,,,,,,,,,,,,,,,,,,,,,,,,88.70655671200075,88.70663775499997,88.70664795600169,88.72504617000232,None,0,None,88.72532700799638,88.72536468500039,None,88.72545379400253,88.72550305500044,None,88.7255938849994,88.72562634699716,None,,,,,,,,,,,,,,,,,,,74,001,15,,2024-04-22_16h55.59.573,replicate_nsd,2023.2.3,59.95287979310988,2024-04-22 16h56.21.613395 -0400,
blank.jpg,49,1,0,0,0,"[9, 19, 29, 39, 49, 59, 68, 69, 70, 71]",,,,,0,49,49,49,102.08860596200248,,,,,,,,,,,,,,,,,,,,,,,,,,,,,,,,,,,,,,,,,,,,88.72591627499787,88.72599829999672,88.72600840499945,88.72917792200315,None,0,None,88.7294027809985,88.72943386300176,None,88.7295048119995,88.72954185600247,None,88.72961303299962,88.72963878599694,None,,,,,,,,,,,,,,,,,,,74,001,15,,2024-04-22_16h55.59.573,replicate_nsd,2023.2.3,59.95287979310988,2024-04-22 16h56.21.613395 -0400,
images/image_508_seed_1.png,50,0,0,0,0,"[9, 19, 29, 39, 49, 59, 68, 69, 70, 71]",,,,,0,50,50,50,102.08860596200248,,,,,,,,,,,,,,,,,,,,,,,,,,,,,,,,,,,,,,,,,,,,88.72987370099872,88.72993932799727,88.72994741099683,88.74479623499792,None,0,None,88.7449926249974,88.7450201449974,None,88.74508216200047,88.7451140819976,None,88.74517527800344,88.74519788599719,None,,,,,,,,,,,,,,,,,,,74,001,15,,2024-04-22_16h55.59.573,replicate_nsd,2023.2.3,59.95287979310988,2024-04-22 16h56.21.613395 -0400,
images/paired_image_777_2.png,51,0,0,0,0,"[9, 19, 29, 39, 49, 59, 68, 69, 70, 71]",,,,,0,51,51,51,102.08860596200248,,,,,,,,,,,,,,,,,,,,,,,,,,,,,,,,,,,,,,,,,,,,88.74539892299799,88.74545551199844,88.74546262300282,88.76038354200136,None,0,None,88.76057669099828,88.76060318200325,None,88.76066449799691,88.76069652599836,None,88.76075771100295,88.76078023300215,None,,,,,,,,,,,,,,,,,,,74,001,15,,2024-04-22_16h55.59.573,replicate_nsd,2023.2.3,59.95287979310988,2024-04-22 16h56.21.613395 -0400,
images/image_423_seed_1.png,52,0,0,0,0,"[9, 19, 29, 39, 49, 59, 68, 69, 70, 71]",,,,,0,52,52,52,102.08860596200248,,,,,,,,,,,,,,,,,,,,,,,,,,,,,,,,,,,,,,,,,,,,88.7609801159997,88.76103709499876,88.7610440110002,88.77659074999974,None,0,None,88.77681736199884,88.77684762699937,None,88.77691934000177,88.77695562999725,None,88.77702737299842,88.77705325900024,None,,,,,,,,,,,,,,,,,,,74,001,15,,2024-04-22_16h55.59.573,replicate_nsd,2023.2.3,59.95287979310988,2024-04-22 16h56.21.613395 -0400,
images/image_23_seed_1.png,53,0,0,0,0,"[9, 19, 29, 39, 49, 59, 68, 69, 70, 71]",,,,,0,53,53,53,102.08860596200248,,,,,,,,,,,,,,,,,,,,,,,,,,,,,,,,,,,,,,,,,,,,88.77728650499921,88.77735240900074,88.77736036299757,88.79215793200274,None,0,None,88.7923810229986,88.7924114540001,None,88.79248212299717,88.79251962499984,None,88.79259078999894,88.79261697600305,None,,,,,,,,,,,,,,,,,,,74,001,15,,2024-04-22_16h55.59.573,replicate_nsd,2023.2.3,59.95287979310988,2024-04-22 16h56.21.613395 -0400,
images/3_56.png,54,0,0,0,0,"[9, 19, 29, 39, 49, 59, 68, 69, 70, 71]",,,,,0,54,54,54,102.08860596200248,,,,,,,,,,,,,,,,,,,,,,,,,,,,,,,,,,,,,,,,,,,,88.79285027000151,88.79291528199974,88.79292346999864,88.79988709300233,None,0,None,88.80008043199632,88.80010701299761,None,88.80016891899868,88.8002006270035,None,88.80026238600112,88.80028482399939,None,,,,,,,,,,,,,,,,,,,74,001,15,,2024-04-22_16h55.59.573,replicate_nsd,2023.2.3,59.95287979310988,2024-04-22 16h56.21.613395 -0400,
images/image_148_seed_1.png,55,0,0,0,0,"[9, 19, 29, 39, 49, 59, 68, 69, 70, 71]",,,,,0,55,55,55,102.08860596200248,,,,,,,,,,,,,,,,,,,,,,,,,,,,,,,,,,,,,,,,,,,,88.80048696899757,88.80054389699944,88.80055079700105,88.81609880400356,None,0,None,88.816324626001,88.81635511200147,None,88.8164273739967,88.81646496099711,None,88.8165364200031,88.81656249499792,None,,,,,,,,,,,,,,,,,,,74,001,15,,2024-04-22_16h55.59.573,replicate_nsd,2023.2.3,59.95287979310988,2024-04-22 16h56.21.613395 -0400,
images/19_0.png,56,0,0,0,0,"[9, 19, 29, 39, 49, 59, 68, 69, 70, 71]",,,,,0,56,56,56,102.08860596200248,,,,,,,,,,,,,,,,,,,,,,,,,,,,,,,,,,,,,,,,,,,,88.81679597400216,88.81686228299804,88.81687023099948,88.82436038200103,None,0,None,88.82455537399801,88.82458143099939,None,88.82464426200022,88.82467610399908,None,88.82473827800277,88.8247609530008,None,,,,,,,,,,,,,,,,,,,74,001,15,,2024-04-22_16h55.59.573,replicate_nsd,2023.2.3,59.95287979310988,2024-04-22 16h56.21.613395 -0400,
images/image_258_seed_1.png,57,0,1,0,0,"[9, 19, 29, 39, 49, 59, 68, 69, 70, 71]",,,,,0,57,57,57,102.08860596200248,,,,,,,,,,,,,,,,,,,,,,,,,,,,,,,,,,,,,,,,,,,,88.8249624079981,88.82501924400276,88.82502619900333,88.83609621600044,None,0,None,88.83628273999784,88.83630849699693,None,88.8363670769977,88.83639995400154,None,88.83646010400116,88.83648214099958,None,,,,,,,,,,,,,,,,,,,74,001,15,,2024-04-22_16h55.59.573,replicate_nsd,2023.2.3,59.95287979310988,2024-04-22 16h56.21.613395 -0400,
images/image_270_seed_1.png,58,0,0,0,0,"[9, 19, 29, 39, 49, 59, 68, 69, 70, 71]",,,,,0,58,58,58,102.08860596200248,,,,,,,,,,,,,,,,,,,,,,,,,,,,,,,,,,,,,,,,,,,,88.83667669800343,88.83673134299897,88.83673809099855,88.85041482400266,None,0,None,88.85060655899724,88.850633217,None,88.85069396100153,88.85072603700246,None,88.85078768299718,88.85081084300327,None,,,,,,,,,,,,,,,,,,,74,001,15,,2024-04-22_16h55.59.573,replicate_nsd,2023.2.3,59.95287979310988,2024-04-22 16h56.21.613395 -0400,
blank.jpg,59,1,0,0,0,"[9, 19, 29, 39, 49, 59, 68, 69, 70, 71]",,,,,0,59,59,59,102.08860596200248,,,,,,,,,,,,,,,,,,,,,,,,,,,,,,,,,,,,,,,,,,,,88.85101101399778,88.85106771400024,88.85107445400354,88.85362663800333,None,0,None,88.8538183290002,88.85384416799934,None,88.85390496799664,88.85393670899794,None,88.85399702699942,88.8540195309979,None,,,,,,,,,,,,,,,,,,,74,001,15,,2024-04-22_16h55.59.573,replicate_nsd,2023.2.3,59.95287979310988,2024-04-22 16h56.21.613395 -0400,
images/image_356_seed_1.png,60,0,0,0,0,"[9, 19, 29, 39, 49, 59, 68, 69, 70, 71]",,,,,0,60,60,60,102.08860596200248,,,,,,,,,,,,,,,,,,,,,,,,,,,,,,,,,,,,,,,,,,,,88.85437073600042,88.85447215999739,88.8544848360034,88.87055303100351,None,0,None,88.87077889499778,88.8708100340009,None,88.87088171499636,88.87092002700228,None,88.87099138300255,88.87101768599678,None,,,,,,,,,,,,,,,,,,,74,001,15,,2024-04-22_16h55.59.573,replicate_nsd,2023.2.3,59.95287979310988,2024-04-22 16h56.21.613395 -0400,
images/image_517_seed_1.png,61,0,0,0,0,"[9, 19, 29, 39, 49, 59, 68, 69, 70, 71]",,,,,0,61,61,61,102.08860596200248,,,,,,,,,,,,,,,,,,,,,,,,,,,,,,,,,,,,,,,,,,,,88.87125242799812,88.8713181580024,88.87132629600092,88.88735845300107,None,0,None,88.8875831990008,88.8876142500012,None,88.88768500799779,88.88772159800283,None,88.88779323200288,88.88781982799992,None,,,,,,,,,,,,,,,,,,,74,001,15,,2024-04-22_16h55.59.573,replicate_nsd,2023.2.3,59.95287979310988,2024-04-22 16h56.21.613395 -0400,
images/image_463_seed_1.png,62,0,0,0,0,"[9, 19, 29, 39, 49, 59, 68, 69, 70, 71]",,,,,0,62,62,62,102.08860596200248,,,,,,,,,,,,,,,,,,,,,,,,,,,,,,,,,,,,,,,,,,,,88.88805139900069,88.88811643199733,88.88812449500256,88.9037130650031,None,0,None,88.903939859003,88.90397064800345,None,88.9040433370028,88.904080514003,None,88.90415307499643,88.90417946699745,None,,,,,,,,,,,,,,,,,,,74,001,15,,2024-04-22_16h55.59.573,replicate_nsd,2023.2.3,59.95287979310988,2024-04-22 16h56.21.613395 -0400,
images/image_295_seed_1.png,63,0,0,0,0,"[9, 19, 29, 39, 49, 59, 68, 69, 70, 71]",,,,,0,63,63,63,102.08860596200248,,,,,,,,,,,,,,,,,,,,,,,,,,,,,,,,,,,,,,,,,,,,88.90441433800152,88.9044803910001,88.90448831299727,88.91996174400265,None,0,None,88.92018801799713,88.92021909899631,None,88.92029072400328,88.92032719699637,None,88.92039857400232,88.92042434900213,None,,,,,,,,,,,,,,,,,,,74,001,15,,2024-04-22_16h55.59.573,replicate_nsd,2023.2.3,59.95287979310988,2024-04-22 16h56.21.613395 -0400,
images/image_680_seed_1.png,64,0,0,0,0,"[9, 19, 29, 39, 49, 59, 68, 69, 70, 71]",,,,,0,64,64,64,102.08860596200248,,,,,,,,,,,,,,,,,,,,,,,,,,,,,,,,,,,,,,,,,,,,88.92070202300238,88.92076688000088,88.92077511599928,88.9464748820028,None,0,None,88.94696221299819,88.94701068999711,None,88.94712255700142,88.94718113700219,None,88.94729427900165,88.94733613300195,None,,,,,,,,,,,,,,,,,,,74,001,15,,2024-04-22_16h55.59.573,replicate_nsd,2023.2.3,59.95287979310988,2024-04-22 16h56.21.613395 -0400,
images/image_267_seed_1.png,65,0,0,0,0,"[9, 19, 29, 39, 49, 59, 68, 69, 70, 71]",,,,,0,65,65,65,102.08860596200248,,,,,,,,,,,,,,,,,,,,,,,,,,,,,,,,,,,,,,,,,,,,88.94770932300162,88.9478195460033,88.94783254100184,88.96510692399897,None,0,None,88.9653857000012,88.96542333000252,None,88.96551187500154,88.96555752900167,None,88.96564598000259,88.96568123700126,None,,,,,,,,,,,,,,,,,,,74,001,15,,2024-04-22_16h55.59.573,replicate_nsd,2023.2.3,59.95287979310988,2024-04-22 16h56.21.613395 -0400,
images/image_739_seed_1.png,66,0,0,0,0,"[9, 19, 29, 39, 49, 59, 68, 69, 70, 71]",,,,,0,66,66,66,102.08860596200248,,,,,,,,,,,,,,,,,,,,,,,,,,,,,,,,,,,,,,,,,,,,88.96597725400352,88.96606057500321,88.96607052499894,88.98238767500152,None,0,None,88.98261258300045,88.98264305700286,None,88.98271511100029,88.9827519399987,None,88.98282389799715,88.98284963599872,None,,,,,,,,,,,,,,,,,,,74,001,15,,2024-04-22_16h55.59.573,replicate_nsd,2023.2.3,59.95287979310988,2024-04-22 16h56.21.613395 -0400,
images/image_681_seed_1.png,67,0,0,0,0,"[9, 19, 29, 39, 49, 59, 68, 69, 70, 71]",,,,,0,67,67,67,102.08860596200248,,,,,,,,,,,,,,,,,,,,,,,,,,,,,,,,,,,,,,,,,,,,88.98308477899991,88.98315002799791,88.98315813500085,89.01114465799765,None,0,None,89.01164192400029,89.01169007799763,None,89.01180438199663,89.01186191500165,None,89.0119752640021,89.01201595600287,None,,,,,,,,,,,,,,,,,,,74,001,15,,2024-04-22_16h55.59.573,replicate_nsd,2023.2.3,59.95287979310988,2024-04-22 16h56.21.613395 -0400,
blank.jpg,68,1,0,0,0,"[9, 19, 29, 39, 49, 59, 68, 69, 70, 71]",,,,,0,68,68,68,102.08860596200248,,,,,,,,,,,,,,,,,,,,,,,,,,,,,,,,,,,,,,,,,,,,89.01238290999754,89.0124844719976,89.01249680299952,89.01609522700164,None,0,None,89.0163758560011,89.01641444899724,None,89.0165037370025,89.0165502710006,None,89.01663908099727,89.01667215800262,None,,,,,,,,,,,,,,,,,,,74,001,15,,2024-04-22_16h55.59.573,replicate_nsd,2023.2.3,59.95287979310988,2024-04-22 16h56.21.613395 -0400,
blank.jpg,69,1,0,0,0,"[9, 19, 29, 39, 49, 59, 68, 69, 70, 71]",,,,,0,69,69,69,102.08860596200248,,,,,,,,,,,,,,,,,,,,,,,,,,,,,,,,,,,,,,,,,,,,89.01696289899701,89.01704478600004,89.01705485300045,89.01944932300103,None,0,None,89.01973159499903,89.01976881000155,None,89.01985899599822,89.0199052129974,None,89.01999451399752,89.0200270589994,None,,,,,,,,,,,,,,,,,,,74,001,15,,2024-04-22_16h55.59.573,replicate_nsd,2023.2.3,59.95287979310988,2024-04-22 16h56.21.613395 -0400,
blank.jpg,70,1,0,0,0,"[9, 19, 29, 39, 49, 59, 68, 69, 70, 71]",,,,,0,70,70,70,102.08860596200248,,,,,,,,,,,,,,,,,,,,,,,,,,,,,,,,,,,,,,,,,,,,89.02031824200094,89.02040034499805,89.02041026799998,89.02242810399912,None,0,None,89.0226528810017,89.02268403799826,None,89.02275536199886,89.02279249599815,None,89.02286395800184,89.02289046799706,None,,,,,,,,,,,,,,,,,,,74,001,15,,2024-04-22_16h55.59.573,replicate_nsd,2023.2.3,59.95287979310988,2024-04-22 16h56.21.613395 -0400,
blank.jpg,71,1,0,1,0,"[9, 19, 29, 39, 49, 59, 68, 69, 70, 71]",,,,,0,71,71,71,102.08860596200248,,,,,,,,,,,,,,,,,,,,,,,,,,,,,,,,,,,,,,,,,,,,89.0231222500006,89.02318826600094,89.02319631299906,89.0250732659988,None,0,None,89.02529740300088,89.02532780099864,None,89.0253993410006,89.0254359449973,None,89.02551074099756,89.02553682200232,None,,,,,,,,,,,,,,,,,,,74,001,15,,2024-04-22_16h55.59.573,replicate_nsd,2023.2.3,59.95287979310988,2024-04-22 16h56.21.613395 -0400,
images/image_686_seed_1.png,0,0,0,0,1,"[9, 19, 31, 42, 56, 68, 69, 70, 71]",,,,,0,72,72,72,102.08860596200248,,,,,,,,,,,,,,,,,,,,,,,,,,,,,,,,,,,,,,,,,,,,89.02577120299975,89.02583746000164,89.02584565299912,89.04185095200228,None,0,None,89.0420787960029,89.04210979799973,None,89.04218089499773,89.04221871100162,None,89.04229045000102,89.04231693800102,None,,,,,,,,,,,,,,,,,,,74,001,15,,2024-04-22_16h55.59.573,replicate_nsd,2023.2.3,59.95287979310988,2024-04-22 16h56.21.613395 -0400,
images/image_595_seed_1.png,1,0,0,0,1,"[9, 19, 31, 42, 56, 68, 69, 70, 71]",,,,,0,73,73,73,102.08860596200248,,,,,,,,,,,,,,,,,,,,,,,,,,,,,,,,,,,,,,,,,,,,89.04255135499989,89.04261730799772,89.04262533700239,89.05859969699668,None,0,None,89.05882515799749,89.05885559099988,None,89.05892713699723,89.05896479199873,None,89.05903692200081,89.05906309199781,None,,,,,,,,,,,,,,,,,,,74,001,15,,2024-04-22_16h55.59.573,replicate_nsd,2023.2.3,59.95287979310988,2024-04-22 16h56.21.613395 -0400,
images/image_589_seed_1.png,2,0,0,0,1,"[9, 19, 31, 42, 56, 68, 69, 70, 71]",,,,,0,74,74,74,102.08860596200248,,,,,,,,,,,,,,,,,,,,,,,,,,,,,,,,,,,,,,,,,,,,89.0592972939994,89.05936371599819,89.05937165600335,89.07497945400246,None,0,None,89.07526118100213,89.07529927900032,None,89.07538839500194,89.07543514999998,None,89.07554042500124,89.07557462499972,None,,,,,,,,,,,,,,,,,,,74,001,15,,2024-04-22_16h55.59.573,replicate_nsd,2023.2.3,59.95287979310988,2024-04-22 16h56.21.613395 -0400,
images/image_590_seed_1.png,3,0,0,0,1,"[9, 19, 31, 42, 56, 68, 69, 70, 71]",,,,,0,75,75,75,102.08860596200248,,,,,,,,,,,,,,,,,,,,,,,,,,,,,,,,,,,,,,,,,,,,89.07586899300077,89.07595100899925,89.07596139200177,89.09196230499947,None,0,None,89.09225122399948,89.09228951099794,None,89.09237801800191,89.09242438300134,None,89.09251850799774,89.09255158100132,None,,,,,,,,,,,,,,,,,,,74,001,15,,2024-04-22_16h55.59.573,replicate_nsd,2023.2.3,59.95287979310988,2024-04-22 16h56.21.613395 -0400,
images/image_325_seed_1.png,4,0,0,0,1,"[9, 19, 31, 42, 56, 68, 69, 70, 71]",,,,,0,76,76,76,102.08860596200248,,,,,,,,,,,,,,,,,,,,,,,,,,,,,,,,,,,,,,,,,,,,89.09284867099632,89.0929315589965,89.09294167200278,89.10994144900178,None,0,None,89.11016849400039,89.11019957299868,None,89.11027080300119,89.11030855699937,None,89.11037964600109,89.11040598699765,None,,,,,,,,,,,,,,,,,,,74,001,15,,2024-04-22_16h55.59.573,replicate_nsd,2023.2.3,59.95287979310988,2024-04-22 16h56.21.613395 -0400,
images/image_489_seed_1.png,5,0,0,0,1,"[9, 19, 31, 42, 56, 68, 69, 70, 71]",,,,,0,77,77,77,102.08860596200248,,,,,,,,,,,,,,,,,,,,,,,,,,,,,,,,,,,,,,,,,,,,89.11064138099755,89.11070873599965,89.11071685599745,89.12481448399922,None,0,None,89.12504218099639,89.12507258199912,None,89.1251445079979,89.12518142200133,None,89.12525334300153,89.12527934800164,None,,,,,,,,,,,,,,,,,,,74,001,15,,2024-04-22_16h55.59.573,replicate_nsd,2023.2.3,59.95287979310988,2024-04-22 16h56.21.613395 -0400,
images/image_181_seed_1.png,6,0,0,0,1,"[9, 19, 31, 42, 56, 68, 69, 70, 71]",,,,,0,78,78,78,102.08860596200248,,,,,,,,,,,,,,,,,,,,,,,,,,,,,,,,,,,,,,,,,,,,89.12551714399888,89.12558407300094,89.1255921310003,89.14027953900222,None,0,None,89.14050808199681,89.14053926800261,None,89.14061119699909,89.14065626900265,None,89.14072961799684,89.14075586800027,None,,,,,,,,,,,,,,,,,,,74,001,15,,2024-04-22_16h55.59.573,replicate_nsd,2023.2.3,59.95287979310988,2024-04-22 16h56.21.613395 -0400,
images/image_473_seed_1.png,7,0,0,0,1,"[9, 19, 31, 42, 56, 68, 69, 70, 71]",,,,,0,79,79,79,102.08860596200248,,,,,,,,,,,,,,,,,,,,,,,,,,,,,,,,,,,,,,,,,,,,89.1410068289988,89.14107377699838,89.14108185499936,89.15690496499883,None,0,None,89.15738645799865,89.1574356869969,None,89.15756288899865,89.15762117099803,None,89.15773443799844,89.15787304099649,None,,,,,,,,,,,,,,,,,,,74,001,15,,2024-04-22_16h55.59.573,replicate_nsd,2023.2.3,59.95287979310988,2024-04-22 16h56.21.613395 -0400,
images/image_696_seed_1.png,8,0,0,0,1,"[9, 19, 31, 42, 56, 68, 69, 70, 71]",,,,,0,80,80,80,102.08860596200248,,,,,,,,,,,,,,,,,,,,,,,,,,,,,,,,,,,,,,,,,,,,89.15831312000228,89.15844840199861,89.1584589769991,89.1753432589976,None,0,None,89.17570700599754,89.17575831100112,None,89.17584678000276,89.17590109899902,None,89.17599683500157,89.17603822099773,None,,,,,,,,,,,,,,,,,,,74,001,15,,2024-04-22_16h55.59.573,replicate_nsd,2023.2.3,59.95287979310988,2024-04-22 16h56.21.613395 -0400,
blank.jpg,9,1,0,0,1,"[9, 19, 31, 42, 56, 68, 69, 70, 71]",,,,,0,81,81,81,102.08860596200248,,,,,,,,,,,,,,,,,,,,,,,,,,,,,,,,,,,,,,,,,,,,89.17643845100247,89.17655379699863,89.17656661700312,89.17926433499815,None,0,None,89.17947430899949,89.17950172499695,None,89.17956350400345,89.17959732199961,None,89.17965857499803,89.17968169500091,None,,,,,,,,,,,,,,,,,,,74,001,15,,2024-04-22_16h55.59.573,replicate_nsd,2023.2.3,59.95287979310988,2024-04-22 16h56.21.613395 -0400,
images/image_321_seed_1.png,10,0,0,0,1,"[9, 19, 31, 42, 56, 68, 69, 70, 71]",,,,,0,82,82,82,102.08860596200248,,,,,,,,,,,,,,,,,,,,,,,,,,,,,,,,,,,,,,,,,,,,89.17992063100246,89.17998673099646,89.1799937140022,89.19267801500246,None,0,None,89.19289577799645,89.19292374399811,None,89.19298494599934,89.19301854399964,None,89.19307995800045,89.19310280799982,None,,,,,,,,,,,,,,,,,,,74,001,15,,2024-04-22_16h55.59.573,replicate_nsd,2023.2.3,59.95287979310988,2024-04-22 16h56.21.613395 -0400,
images/image_328_seed_1.png,11,0,0,0,1,"[9, 19, 31, 42, 56, 68, 69, 70, 71]",,,,,0,83,83,83,102.08860596200248,,,,,,,,,,,,,,,,,,,,,,,,,,,,,,,,,,,,,,,,,,,,89.19331270900148,89.19337952700153,89.1933864110033,89.20736689100158,None,0,None,89.20760140500352,89.20763059599994,None,89.20769262399699,89.20772631600266,None,89.20778792400233,89.20781099099986,None,,,,,,,,,,,,,,,,,,,74,001,15,,2024-04-22_16h55.59.573,replicate_nsd,2023.2.3,59.95287979310988,2024-04-22 16h56.21.613395 -0400,
images/image_118_seed_1.png,12,0,0,0,1,"[9, 19, 31, 42, 56, 68, 69, 70, 71]",,,,,0,84,84,84,102.08860596200248,,,,,,,,,,,,,,,,,,,,,,,,,,,,,,,,,,,,,,,,,,,,89.2080264230026,89.20809512300184,89.20810218800034,89.22317078500055,None,0,None,89.22338390399818,89.22341046200017,None,89.22347053200065,89.22350381500291,None,89.22356367100292,89.22358569600328,None,,,,,,,,,,,,,,,,,,,74,001,15,,2024-04-22_16h55.59.573,replicate_nsd,2023.2.3,59.95287979310988,2024-04-22 16h56.21.613395 -0400,
images/image_76_seed_1.png,13,0,0,0,1,"[9, 19, 31, 42, 56, 68, 69, 70, 71]",,,,,0,85,85,85,102.08860596200248,,,,,,,,,,,,,,,,,,,,,,,,,,,,,,,,,,,,,,,,,,,,89.22379887200077,89.22386488800112,89.22387197000353,89.23901905400271,None,0,None,89.23922714200307,89.23925398100255,None,89.23931481000182,89.23934733100032,None,89.23940752600174,89.23943027800124,None,,,,,,,,,,,,,,,,,,,74,001,15,,2024-04-22_16h55.59.573,replicate_nsd,2023.2.3,59.95287979310988,2024-04-22 16h56.21.613395 -0400,
images/image_562_seed_1.png,14,0,0,0,1,"[9, 19, 31, 42, 56, 68, 69, 70, 71]",,,,,0,86,86,86,102.08860596200248,,,,,,,,,,,,,,,,,,,,,,,,,,,,,,,,,,,,,,,,,,,,89.2396373349984,89.23970590299723,89.23971268800233,89.25504540700058,None,0,None,89.25525263899908,89.25528033499722,None,89.25534135600174,89.25537503699888,None,89.25543639600073,89.25545967600192,None,,,,,,,,,,,,,,,,,,,74,001,15,,2024-04-22_16h55.59.573,replicate_nsd,2023.2.3,59.95287979310988,2024-04-22 16h56.21.613395 -0400,
images/image_540_seed_1.png,15,0,0,0,1,"[9, 19, 31, 42, 56, 68, 69, 70, 71]",,,,,0,87,87,87,102.08860596200248,,,,,,,,,,,,,,,,,,,,,,,,,,,,,,,,,,,,,,,,,,,,89.25567227599822,89.25573864299804,89.25574532299652,89.27084153600299,None,0,None,89.27106127700245,89.27108845899784,None,89.27114927899675,89.2711831869965,None,89.27124514400202,89.27126793799835,None,,,,,,,,,,,,,,,,,,,74,001,15,,2024-04-22_16h55.59.573,replicate_nsd,2023.2.3,59.95287979310988,2024-04-22 16h56.21.613395 -0400,
images/image_674_seed_1.png,16,0,0,0,1,"[9, 19, 31, 42, 56, 68, 69, 70, 71]",,,,,0,88,88,88,102.08860596200248,,,,,,,,,,,,,,,,,,,,,,,,,,,,,,,,,,,,,,,,,,,,89.27148326300085,89.27155156400113,89.27155838099861,89.28663481499825,None,0,None,89.28691244799847,89.28694628299854,None,89.28702565599815,89.28706236599828,None,89.28713156100275,89.28715557100077,None,,,,,,,,,,,,,,,,,,,74,001,15,,2024-04-22_16h55.59.573,replicate_nsd,2023.2.3,59.95287979310988,2024-04-22 16h56.21.613395 -0400,
images/image_158_seed_1.png,17,0,0,0,1,"[9, 19, 31, 42, 56, 68, 69, 70, 71]",,,,,0,89,89,89,102.08860596200248,,,,,,,,,,,,,,,,,,,,,,,,,,,,,,,,,,,,,,,,,,,,89.28737428999739,89.28744130799896,89.28744810300122,89.30104583199864,None,0,None,89.30126951599959,89.30129698100063,None,89.30136384700018,89.30139851399872,None,89.30146175999835,89.30148521700175,None,,,,,,,,,,,,,,,,,,,74,001,15,,2024-04-22_16h55.59.573,replicate_nsd,2023.2.3,59.95287979310988,2024-04-22 16h56.21.613395 -0400,
images/image_135_seed_1.png,18,0,0,0,1,"[9, 19, 31, 42, 56, 68, 69, 70, 71]",,,,,0,90,90,90,102.08860596200248,,,,,,,,,,,,,,,,,,,,,,,,,,,,,,,,,,,,,,,,,,,,89.30169790799846,89.30176618500263,89.30177311199805,89.31737054899713,None,0,None,89.31758692100266,89.31761422999989,None,89.31767624500208,89.31771012800164,None,89.3177721519969,89.31779572399682,None,,,,,,,,,,,,,,,,,,,74,001,15,,2024-04-22_16h55.59.573,replicate_nsd,2023.2.3,59.95287979310988,2024-04-22 16h56.21.613395 -0400,
blank.jpg,19,1,0,0,1,"[9, 19, 31, 42, 56, 68, 69, 70, 71]",,,,,0,91,91,91,102.08860596200248,,,,,,,,,,,,,,,,,,,,,,,,,,,,,,,,,,,,,,,,,,,,89.3180094950003,89.3180764389981,89.31808347899641,89.32086124699708,None,0,None,89.32105460500316,89.32108116799645,None,89.32114215900219,89.32117448899953,None,89.32123514800332,89.32125821299996,None,,,,,,,,,,,,,,,,,,,74,001,15,,2024-04-22_16h55.59.573,replicate_nsd,2023.2.3,59.95287979310988,2024-04-22 16h56.21.613395 -0400,
images/image_132_seed_1.png,20,0,0,0,1,"[9, 19, 31, 42, 56, 68, 69, 70, 71]",,,,,0,92,92,92,102.08860596200248,,,,,,,,,,,,,,,,,,,,,,,,,,,,,,,,,,,,,,,,,,,,89.32146311499673,89.32152580899856,89.32153272700089,89.33545609899738,None,0,None,89.33565629200166,89.33568275599828,None,89.33574331099953,89.3357756789992,None,89.33583714599808,89.3358597960032,None,,,,,,,,,,,,,,,,,,,74,001,15,,2024-04-22_16h55.59.573,replicate_nsd,2023.2.3,59.95287979310988,2024-04-22 16h56.21.613395 -0400,
images/image_461_seed_1.png,21,0,0,0,1,"[9, 19, 31, 42, 56, 68, 69, 70, 71]",,,,,0,93,93,93,102.08860596200248,,,,,,,,,,,,,,,,,,,,,,,,,,,,,,,,,,,,,,,,,,,,89.336065427,89.33612680400256,89.33613352500106,89.35087750599632,None,0,None,89.35111450299883,89.35114596899803,None,89.35121834900201,89.35125653599971,None,89.35133624399896,89.35136464099924,None,,,,,,,,,,,,,,,,,,,74,001,15,,2024-04-22_16h55.59.573,replicate_nsd,2023.2.3,59.95287979310988,2024-04-22 16h56.21.613395 -0400,
images/image_119_seed_1.png,22,0,0,0,1,"[9, 19, 31, 42, 56, 68, 69, 70, 71]",,,,,0,94,94,94,102.08860596200248,,,,,,,,,,,,,,,,,,,,,,,,,,,,,,,,,,,,,,,,,,,,89.35160171100142,89.35166893000132,89.35167706899665,89.36847519999719,None,0,None,89.36870149400056,89.36873247799667,None,89.36880332299916,89.36884029000066,None,89.36891089600249,89.36893695600156,None,,,,,,,,,,,,,,,,,,,74,001,15,,2024-04-22_16h55.59.573,replicate_nsd,2023.2.3,59.95287979310988,2024-04-22 16h56.21.613395 -0400,
images/image_747_seed_1.png,23,0,0,0,1,"[9, 19, 31, 42, 56, 68, 69, 70, 71]",,,,,0,95,95,95,102.08860596200248,,,,,,,,,,,,,,,,,,,,,,,,,,,,,,,,,,,,,,,,,,,,89.3691700490017,89.36923727700196,89.3692452480027,89.38454157300293,None,0,None,89.38476686699869,89.38479726899823,None,89.38486936900154,89.38490589799767,None,89.38497790799738,89.38500431500142,None,,,,,,,,,,,,,,,,,,,74,001,15,,2024-04-22_16h55.59.573,replicate_nsd,2023.2.3,59.95287979310988,2024-04-22 16h56.21.613395 -0400,
images/image_50_seed_1.png,24,0,0,0,1,"[9, 19, 31, 42, 56, 68, 69, 70, 71]",,,,,0,96,96,96,102.08860596200248,,,,,,,,,,,,,,,,,,,,,,,,,,,,,,,,,,,,,,,,,,,,89.38523905700276,89.38530595500197,89.38531399099884,89.39985603099922,None,0,None,89.40008288399986,89.4001128930031,None,89.40018227700057,89.40021858899854,None,89.40028832400276,89.40031540799828,None,,,,,,,,,,,,,,,,,,,74,001,15,,2024-04-22_16h55.59.573,replicate_nsd,2023.2.3,59.95287979310988,2024-04-22 16h56.21.613395 -0400,
images/image_204_seed_1.png,25,0,0,0,1,"[9, 19, 31, 42, 56, 68, 69, 70, 71]",,,,,0,97,97,97,102.08860596200248,,,,,,,,,,,,,,,,,,,,,,,,,,,,,,,,,,,,,,,,,,,,89.40054825499828,89.40061528299702,89.4006234030021,89.41787954799656,None,0,None,89.41823442500026,89.41828175500268,None,89.4183935359979,89.4184521779971,None,89.41856464600278,89.41860600200016,None,,,,,,,,,,,,,,,,,,,74,001,15,,2024-04-22_16h55.59.573,replicate_nsd,2023.2.3,59.95287979310988,2024-04-22 16h56.21.613395 -0400,
images/image_697_seed_1.png,26,0,0,0,1,"[9, 19, 31, 42, 56, 68, 69, 70, 71]",,,,,0,98,98,98,102.08860596200248,,,,,,,,,,,,,,,,,,,,,,,,,,,,,,,,,,,,,,,,,,,,89.418975736,89.41908188199886,89.4190947629977,89.43903066700295,None,0,None,89.439523670997,89.43957213599788,None,89.43969279000157,89.43975732800027,None,89.43987222400028,89.4399130439997,None,,,,,,,,,,,,,,,,,,,74,001,15,,2024-04-22_16h55.59.573,replicate_nsd,2023.2.3,59.95287979310988,2024-04-22 16h56.21.613395 -0400,
images/image_480_seed_1.png,27,0,0,0,1,"[9, 19, 31, 42, 56, 68, 69, 70, 71]",,,,,0,99,99,99,102.08860596200248,,,,,,,,,,,,,,,,,,,,,,,,,,,,,,,,,,,,,,,,,,,,89.44028956499824,89.44040514499648,89.4404194939998,89.45826047500304,None,0,None,89.45854327899724,89.45858139100164,None,89.45867122599884,89.45871787500073,None,89.45880768400093,89.45884004999971,None,,,,,,,,,,,,,,,,,,,74,001,15,,2024-04-22_16h55.59.573,replicate_nsd,2023.2.3,59.95287979310988,2024-04-22 16h56.21.613395 -0400,
images/image_624_seed_1.png,28,0,0,0,1,"[9, 19, 31, 42, 56, 68, 69, 70, 71]",,,,,0,100,100,100,102.08860596200248,,,,,,,,,,,,,,,,,,,,,,,,,,,,,,,,,,,,,,,,,,,,89.45913434999966,89.45921846699639,89.4592285530016,89.47480455799814,None,0,None,89.4750484210017,89.47508077700331,None,89.47515308300353,89.4751919870032,None,89.47528634100308,89.47532999100076,None,,,,,,,,,,,,,,,,,,,74,001,15,,2024-04-22_16h55.59.573,replicate_nsd,2023.2.3,59.95287979310988,2024-04-22 16h56.21.613395 -0400,
images/image_575_seed_1.png,29,0,0,0,1,"[9, 19, 31, 42, 56, 68, 69, 70, 71]",,,,,0,101,101,101,102.08860596200248,,,,,,,,,,,,,,,,,,,,,,,,,,,,,,,,,,,,,,,,,,,,89.47561817099631,89.47569319300237,89.47570142799668,89.4890515060033,None,0,None,89.48924845099828,89.4892744280005,None,89.48933513899829,89.48936674700235,None,89.48942779599747,89.489450193003,None,,,,,,,,,,,,,,,,,,,74,001,15,,2024-04-22_16h55.59.573,replicate_nsd,2023.2.3,59.95287979310988,2024-04-22 16h56.21.613395 -0400,
images/image_97_seed_1.png,30,0,0,0,1,"[9, 19, 31, 42, 56, 68, 69, 70, 71]",,,,,0,102,102,102,102.08860596200248,,,,,,,,,,,,,,,,,,,,,,,,,,,,,,,,,,,,,,,,,,,,89.48966437199851,89.48972604199662,89.48973294100142,89.50434585499897,None,0,None,89.504576997002,89.5046073850026,None,89.50551053899835,89.50555255600193,None,89.50563048200274,89.50565737300349,None,,,,,,,,,,,,,,,,,,,74,001,15,,2024-04-22_16h55.59.573,replicate_nsd,2023.2.3,59.95287979310988,2024-04-22 16h56.21.613395 -0400,
blank.jpg,31,1,0,0,1,"[9, 19, 31, 42, 56, 68, 69, 70, 71]",,,,,0,103,103,103,102.08860596200248,,,,,,,,,,,,,,,,,,,,,,,,,,,,,,,,,,,,,,,,,,,,89.50589676499658,89.50596533800126,89.50597362499684,89.5087064870022,None,0,None,89.5088998909996,89.508926540002,None,89.50898810399667,89.50901981999777,None,89.5090814139985,89.50910406599724,None,,,,,,,,,,,,,,,,,,,74,001,15,,2024-04-22_16h55.59.573,replicate_nsd,2023.2.3,59.95287979310988,2024-04-22 16h56.21.613395 -0400,
images/image_467_seed_1.png,32,0,0,0,1,"[9, 19, 31, 42, 56, 68, 69, 70, 71]",,,,,0,104,104,104,102.08860596200248,,,,,,,,,,,,,,,,,,,,,,,,,,,,,,,,,,,,,,,,,,,,89.50930925599823,89.50936595800158,89.50937295699987,89.52903945100115,None,0,None,89.52932086899818,89.52935885699844,None,89.52944714100158,89.52949319800246,None,89.52958298000158,89.52961516899813,None,,,,,,,,,,,,,,,,,,,74,001,15,,2024-04-22_16h55.59.573,replicate_nsd,2023.2.3,59.95287979310988,2024-04-22 16h56.21.613395 -0400,
images/image_112_seed_1.png,33,0,0,0,1,"[9, 19, 31, 42, 56, 68, 69, 70, 71]",,,,,0,105,105,105,102.08860596200248,,,,,,,,,,,,,,,,,,,,,,,,,,,,,,,,,,,,,,,,,,,,89.52990666899859,89.52998969500186,89.52999972600082,89.54798019699956,None,0,None,89.54820341600134,89.5482339049995,None,89.54830567000317,89.54834256100003,None,89.54841503399803,89.5484413209997,None,,,,,,,,,,,,,,,,,,,74,001,15,,2024-04-22_16h55.59.573,replicate_nsd,2023.2.3,59.95287979310988,2024-04-22 16h56.21.613395 -0400,
images/image_431_seed_1.png,34,0,0,0,1,"[9, 19, 31, 42, 56, 68, 69, 70, 71]",,,,,0,106,106,106,102.08860596200248,,,,,,,,,,,,,,,,,,,,,,,,,,,,,,,,,,,,,,,,,,,,89.54867687200021,89.54874340900278,89.54875160499796,89.5635439559992,None,0,None,89.563824208999,89.56386245400063,None,89.56395214499935,89.56399827999849,None,89.56408822999947,89.56412144700153,None,,,,,,,,,,,,,,,,,,,74,001,15,,2024-04-22_16h55.59.573,replicate_nsd,2023.2.3,59.95287979310988,2024-04-22 16h56.21.613395 -0400,
images/image_282_seed_1.png,35,0,0,0,1,"[9, 19, 31, 42, 56, 68, 69, 70, 71]",,,,,0,107,107,107,102.08860596200248,,,,,,,,,,,,,,,,,,,,,,,,,,,,,,,,,,,,,,,,,,,,89.56441517100029,89.56449744100246,89.56450696899992,89.57979340200109,None,0,None,89.58001666700147,89.5800476220029,None,89.58011819700187,89.58015455699933,None,89.58022550799797,89.58025199200347,None,,,,,,,,,,,,,,,,,,,74,001,15,,2024-04-22_16h55.59.573,replicate_nsd,2023.2.3,59.95287979310988,2024-04-22 16h56.21.613395 -0400,
images/image_180_seed_1.png,36,0,0,0,1,"[9, 19, 31, 42, 56, 68, 69, 70, 71]",,,,,0,108,108,108,102.08860596200248,,,,,,,,,,,,,,,,,,,,,,,,,,,,,,,,,,,,,,,,,,,,89.58048484200117,89.58055092400173,89.58055876300205,89.59616220000316,None,0,None,89.59638611599803,89.59641649499827,None,89.59648699399986,89.59652386700327,None,89.59659541900328,89.59662136800034,None,,,,,,,,,,,,,,,,,,,74,001,15,,2024-04-22_16h55.59.573,replicate_nsd,2023.2.3,59.95287979310988,2024-04-22 16h56.21.613395 -0400,
images/image_425_seed_1.png,37,0,0,0,1,"[9, 19, 31, 42, 56, 68, 69, 70, 71]",,,,,0,109,109,109,102.08860596200248,,,,,,,,,,,,,,,,,,,,,,,,,,,,,,,,,,,,,,,,,,,,89.59685623700352,89.59692236700357,89.59693039499689,89.61340711900266,None,0,None,89.61368535499787,89.61372298700007,None,89.61381136900309,89.61385707299632,None,89.61394811300124,89.61398093200114,None,,,,,,,,,,,,,,,,,,,74,001,15,,2024-04-22_16h55.59.573,replicate_nsd,2023.2.3,59.95287979310988,2024-04-22 16h56.21.613395 -0400,
images/image_133_seed_1.png,38,0,1,0,1,"[9, 19, 31, 42, 56, 68, 69, 70, 71]",,,,,0,110,110,110,102.08860596200248,,,,,,,,,,,,,,,,,,,,,,,,,,,,,,,,,,,,,,,,,,,,89.6142712150031,89.61435326799983,89.61436307900294,89.62801155899797,None,0,None,89.62823504699918,89.6282653590024,None,89.62833664299978,89.62837315999786,None,89.62844505399698,89.62847106799745,None,,,,,,,,,,,,,,,,,,,74,001,15,,2024-04-22_16h55.59.573,replicate_nsd,2023.2.3,59.95287979310988,2024-04-22 16h56.21.613395 -0400,
images/image_398_seed_1.png,39,0,0,0,1,"[9, 19, 31, 42, 56, 68, 69, 70, 71]",,,,,0,111,111,111,102.08860596200248,,,,,,,,,,,,,,,,,,,,,,,,,,,,,,,,,,,,,,,,,,,,89.62870312100131,89.62876976100233,89.62877789600316,89.64303415799804,None,0,None,89.64326020199951,89.6432909849973,None,89.64336315800028,89.6434001230009,None,89.64347199400072,89.64349844800017,None,,,,,,,,,,,,,,,,,,,74,001,15,,2024-04-22_16h55.59.573,replicate_nsd,2023.2.3,59.95287979310988,2024-04-22 16h56.21.613395 -0400,
images/image_259_seed_1.png,40,0,0,0,1,"[9, 19, 31, 42, 56, 68, 69, 70, 71]",,,,,0,112,112,112,102.08860596200248,,,,,,,,,,,,,,,,,,,,,,,,,,,,,,,,,,,,,,,,,,,,89.64373191600316,89.64379822900082,89.64380622300087,89.661386243999,None,0,None,89.66172058100346,89.66175979700347,None,89.66185014900111,89.66189679699892,None,89.66198680699745,89.66201977599849,None,,,,,,,,,,,,,,,,,,,74,001,15,,2024-04-22_16h55.59.573,replicate_nsd,2023.2.3,59.95287979310988,2024-04-22 16h56.21.613395 -0400,
images/14_89.png,41,0,0,0,1,"[9, 19, 31, 42, 56, 68, 69, 70, 71]",,,,,0,113,113,113,102.08860596200248,,,,,,,,,,,,,,,,,,,,,,,,,,,,,,,,,,,,,,,,,,,,89.66231218600296,89.66239537500223,89.66240541900333,89.67002581599809,None,0,None,89.6702496939979,89.67028009200294,None,89.67035143399698,89.6703884410017,None,89.67046034600207,89.67048635199899,None,,,,,,,,,,,,,,,,,,,74,001,15,,2024-04-22_16h55.59.573,replicate_nsd,2023.2.3,59.95287979310988,2024-04-22 16h56.21.613395 -0400,
blank.jpg,42,1,0,0,1,"[9, 19, 31, 42, 56, 68, 69, 70, 71]",,,,,0,114,114,114,102.08860596200248,,,,,,,,,,,,,,,,,,,,,,,,,,,,,,,,,,,,,,,,,,,,89.67072096800257,89.67078796400165,89.67079610699875,89.67291860299883,None,0,None,89.67314166999859,89.67317175900098,None,89.67324287600059,89.67327958600072,None,89.67335126300168,89.67337766900164,None,,,,,,,,,,,,,,,,,,,74,001,15,,2024-04-22_16h55.59.573,replicate_nsd,2023.2.3,59.95287979310988,2024-04-22 16h56.21.613395 -0400,
images/image_188_seed_1.png,43,0,0,0,1,"[9, 19, 31, 42, 56, 68, 69, 70, 71]",,,,,0,115,115,115,102.08860596200248,,,,,,,,,,,,,,,,,,,,,,,,,,,,,,,,,,,,,,,,,,,,89.6736082339994,89.67367351800203,89.67368153700227,89.69030659599957,None,0,None,89.6905308849964,89.69056134900165,None,89.69063148099667,89.69067701300082,None,89.69074944699969,89.69078422400344,None,,,,,,,,,,,,,,,,,,,74,001,15,,2024-04-22_16h55.59.573,replicate_nsd,2023.2.3,59.95287979310988,2024-04-22 16h56.21.613395 -0400,
images/image_442_seed_1.png,44,0,1,0,1,"[9, 19, 31, 42, 56, 68, 69, 70, 71]",,,,,0,116,116,116,102.08860596200248,,,,,,,,,,,,,,,,,,,,,,,,,,,,,,,,,,,,,,,,,,,,89.6910197899997,89.69108678300108,89.69109474900324,89.70454150199657,None,0,None,89.7047607170025,89.70479111200257,None,89.70486161099689,89.70489857700159,None,89.70496941100282,89.70499594500143,None,,,,,,,,,,,,,,,,,,,74,001,15,,2024-04-22_16h55.59.573,replicate_nsd,2023.2.3,59.95287979310988,2024-04-22 16h56.21.613395 -0400,
images/9_56.png,45,0,0,0,1,"[9, 19, 31, 42, 56, 68, 69, 70, 71]",,,,,0,117,117,117,102.08860596200248,,,,,,,,,,,,,,,,,,,,,,,,,,,,,,,,,,,,,,,,,,,,89.70522556400101,89.70529126300244,89.7052992109966,89.71248367900262,None,0,None,89.71267392799928,89.71270026999991,None,89.71276089800085,89.7127931119976,None,89.71285382699716,89.71287643999676,None,,,,,,,,,,,,,,,,,,,74,001,15,,2024-04-22_16h55.59.573,replicate_nsd,2023.2.3,59.95287979310988,2024-04-22 16h56.21.613395 -0400,
images/w_roller_coaster2.jpg,46,0,0,0,1,"[9, 19, 31, 42, 56, 68, 69, 70, 71]",,,,,0,118,118,118,102.08860596200248,,,,,,,,,,,,,,,,,,,,,,,,,,,,,,,,,,,,,,,,,,,,89.71307511399937,89.71313190799992,89.71313869099686,89.71851355399849,None,0,None,89.71870841299824,89.71873494300235,None,89.71879534699838,89.71882761199959,None,89.71888866300287,89.71891121299996,None,,,,,,,,,,,,,,,,,,,74,001,15,,2024-04-22_16h55.59.573,replicate_nsd,2023.2.3,59.95287979310988,2024-04-22 16h56.21.613395 -0400,
images/image_479_seed_1.png,47,0,0,0,1,"[9, 19, 31, 42, 56, 68, 69, 70, 71]",,,,,0,119,119,119,102.08860596200248,,,,,,,,,,,,,,,,,,,,,,,,,,,,,,,,,,,,,,,,,,,,89.71911194099812,89.71917083900189,89.7191776949985,89.73613165799907,None,0,None,89.7363216800004,89.7363484890011,None,89.73640876699938,89.73644092999893,None,89.73650121399987,89.73652392099757,None,,,,,,,,,,,,,,,,,,,74,001,15,,2024-04-22_16h55.59.573,replicate_nsd,2023.2.3,59.95287979310988,2024-04-22 16h56.21.613395 -0400,
images/image_593_seed_1.png,48,0,0,0,1,"[9, 19, 31, 42, 56, 68, 69, 70, 71]",,,,,0,120,120,120,102.08860596200248,,,,,,,,,,,,,,,,,,,,,,,,,,,,,,,,,,,,,,,,,,,,89.73672549099865,89.73678323700005,89.73679034200177,89.7511529159965,None,0,None,89.75137391000317,89.75140451700281,None,89.7514752069983,89.7515115990027,None,89.75158323699725,89.75160910299746,None,,,,,,,,,,,,,,,,,,,74,001,15,,2024-04-22_16h55.59.573,replicate_nsd,2023.2.3,59.95287979310988,2024-04-22 16h56.21.613395 -0400,
images/image_218_seed_1.png,49,0,1,0,1,"[9, 19, 31, 42, 56, 68, 69, 70, 71]",,,,,0,121,121,121,102.08860596200248,,,,,,,,,,,,,,,,,,,,,,,,,,,,,,,,,,,,,,,,,,,,89.75184222400276,89.7519091580034,89.75191726699995,89.76557108599809,None,0,None,89.76579445200332,89.76582426299865,None,89.76589432600304,89.7659314900011,None,89.76600275599776,89.76602906899643,None,,,,,,,,,,,,,,,,,,,74,001,15,,2024-04-22_16h55.59.573,replicate_nsd,2023.2.3,59.95287979310988,2024-04-22 16h56.21.613395 -0400,
images/image_486_seed_1.png,50,0,0,0,1,"[9, 19, 31, 42, 56, 68, 69, 70, 71]",,,,,0,122,122,122,102.08860596200248,,,,,,,,,,,,,,,,,,,,,,,,,,,,,,,,,,,,,,,,,,,,89.7662608440005,89.76637044100062,89.76637926299736,89.78238124599739,None,0,None,89.78260555100132,89.78263563800283,None,89.78270578999945,89.78274268400128,None,89.7828139780031,89.78283998199913,None,,,,,,,,,,,,,,,,,,,74,001,15,,2024-04-22_16h55.59.573,replicate_nsd,2023.2.3,59.95287979310988,2024-04-22 16h56.21.613395 -0400,
images/image_48_seed_1.png,51,0,0,0,1,"[9, 19, 31, 42, 56, 68, 69, 70, 71]",,,,,0,123,123,123,102.08860596200248,,,,,,,,,,,,,,,,,,,,,,,,,,,,,,,,,,,,,,,,,,,,89.7830725859967,89.78313995400094,89.78314797899657,89.79890686600265,None,0,None,89.79912949699792,89.79916029699962,None,89.79923167800007,89.79926864599838,None,89.79934038200008,89.79936598600034,None,,,,,,,,,,,,,,,,,,,74,001,15,,2024-04-22_16h55.59.573,replicate_nsd,2023.2.3,59.95287979310988,2024-04-22 16h56.21.613395 -0400,
images/image_318_seed_1.png,52,0,0,0,1,"[9, 19, 31, 42, 56, 68, 69, 70, 71]",,,,,0,124,124,124,102.08860596200248,,,,,,,,,,,,,,,,,,,,,,,,,,,,,,,,,,,,,,,,,,,,89.79959733600117,89.79966386900196,89.79967189799936,89.81505780299631,None,0,None,89.81527856100001,89.8153093860019,None,89.81537959999696,89.81541831699724,None,89.81548915500025,89.8155150859966,None,,,,,,,,,,,,,,,,,,,74,001,15,,2024-04-22_16h55.59.573,replicate_nsd,2023.2.3,59.95287979310988,2024-04-22 16h56.21.613395 -0400,
images/image_76_seed_1.png,53,0,1,0,1,"[9, 19, 31, 42, 56, 68, 69, 70, 71]",,,,,0,125,125,125,102.08860596200248,,,,,,,,,,,,,,,,,,,,,,,,,,,,,,,,,,,,,,,,,,,,89.81574632500269,89.81581319699762,89.81582125300338,89.82945713200024,None,0,None,89.82967724699847,89.82970775000285,None,89.82977753999876,89.82981492699764,None,89.82988493500307,89.8299108220017,None,,,,,,,,,,,,,,,,,,,74,001,15,,2024-04-22_16h55.59.573,replicate_nsd,2023.2.3,59.95287979310988,2024-04-22 16h56.21.613395 -0400,
images/image_197_seed_1.png,54,0,0,0,1,"[9, 19, 31, 42, 56, 68, 69, 70, 71]",,,,,0,126,126,126,102.08860596200248,,,,,,,,,,,,,,,,,,,,,,,,,,,,,,,,,,,,,,,,,,,,89.83014358599758,89.8302099529974,89.83021793600346,89.84598025099694,None,0,None,89.84620092599653,89.84623130899854,None,89.84630206599832,89.8463388780001,None,89.84640840900101,89.84643439499632,None,,,,,,,,,,,,,,,,,,,74,001,15,,2024-04-22_16h55.59.573,replicate_nsd,2023.2.3,59.95287979310988,2024-04-22 16h56.21.613395 -0400,
images/image_493_seed_1.png,55,0,0,0,1,"[9, 19, 31, 42, 56, 68, 69, 70, 71]",,,,,0,127,127,127,102.08860596200248,,,,,,,,,,,,,,,,,,,,,,,,,,,,,,,,,,,,,,,,,,,,89.846666327001,89.84673214799841,89.84674006600108,89.86318871899857,None,0,None,89.86337974599883,89.863406055003,None,89.86346732499806,89.86349882999639,None,89.86355898300098,89.86360788599995,None,,,,,,,,,,,,,,,,,,,74,001,15,,2024-04-22_16h55.59.573,replicate_nsd,2023.2.3,59.95287979310988,2024-04-22 16h56.21.613395 -0400,
blank.jpg,56,1,0,0,1,"[9, 19, 31, 42, 56, 68, 69, 70, 71]",,,,,0,128,128,128,102.08860596200248,,,,,,,,,,,,,,,,,,,,,,,,,,,,,,,,,,,,,,,,,,,,89.86382810500072,89.86388630000147,89.86389331599639,89.86657842899876,None,0,None,89.86676868700306,89.86679597199691,None,89.8668569750007,89.86688919900189,None,89.86694995399739,89.86697294800251,None,,,,,,,,,,,,,,,,,,,74,001,15,,2024-04-22_16h55.59.573,replicate_nsd,2023.2.3,59.95287979310988,2024-04-22 16h56.21.613395 -0400,
images/image_515_seed_1.png,57,0,0,0,1,"[9, 19, 31, 42, 56, 68, 69, 70, 71]",,,,,0,129,129,129,102.08860596200248,,,,,,,,,,,,,,,,,,,,,,,,,,,,,,,,,,,,,,,,,,,,89.8671751189977,89.86723339599848,89.86724050500197,89.88193369899818,None,0,None,89.88214757900278,89.88217413699749,None,89.88223124600336,89.88226350700279,None,89.88232194000011,89.8823431799974,None,,,,,,,,,,,,,,,,,,,74,001,15,,2024-04-22_16h55.59.573,replicate_nsd,2023.2.3,59.95287979310988,2024-04-22 16h56.21.613395 -0400,
images/image_246_seed_1.png,58,0,0,0,1,"[9, 19, 31, 42, 56, 68, 69, 70, 71]",,,,,0,130,130,130,102.08860596200248,,,,,,,,,,,,,,,,,,,,,,,,,,,,,,,,,,,,,,,,,,,,89.8825580210032,89.88262376900093,89.88263020000159,89.89603822299978,None,0,None,89.89624278699921,89.89626862000296,None,89.89632129300298,89.8963514049974,None,89.89642245700088,89.89644277699699,None,,,,,,,,,,,,,,,,,,,74,001,15,,2024-04-22_16h55.59.573,replicate_nsd,2023.2.3,59.95287979310988,2024-04-22 16h56.21.613395 -0400,
images/image_412_seed_1.png,59,0,0,0,1,"[9, 19, 31, 42, 56, 68, 69, 70, 71]",,,,,0,131,131,131,102.08860596200248,,,,,,,,,,,,,,,,,,,,,,,,,,,,,,,,,,,,,,,,,,,,89.89663162500074,89.89669316999789,89.89669936699647,89.91182267099794,None,0,None,89.9120324989999,89.91205977500067,None,89.91211756499979,89.91215050000028,None,89.9122083819966,89.9122302379983,None,,,,,,,,,,,,,,,,,,,74,001,15,,2024-04-22_16h55.59.573,replicate_nsd,2023.2.3,59.95287979310988,2024-04-22 16h56.21.613395 -0400,
images/image_327_seed_1.png,60,0,0,0,1,"[9, 19, 31, 42, 56, 68, 69, 70, 71]",,,,,0,132,132,132,102.08860596200248,,,,,,,,,,,,,,,,,,,,,,,,,,,,,,,,,,,,,,,,,,,,89.91245194699877,89.9125205570017,89.91252723799698,89.92710857999919,None,0,None,89.92733824100287,89.92736559599871,None,89.9274411419974,89.92747434599733,None,89.92753452099714,89.92755672799831,None,,,,,,,,,,,,,,,,,,,74,001,15,,2024-04-22_16h55.59.573,replicate_nsd,2023.2.3,59.95287979310988,2024-04-22 16h56.21.613395 -0400,
images/image_324_seed_1.png,61,0,0,0,1,"[9, 19, 31, 42, 56, 68, 69, 70, 71]",,,,,0,133,133,133,102.08860596200248,,,,,,,,,,,,,,,,,,,,,,,,,,,,,,,,,,,,,,,,,,,,89.92777035600011,89.92783894299646,89.92784586599737,89.94187824300025,None,0,None,89.94210115999886,89.94212787300057,None,89.94218535500113,89.9422176099979,None,89.94227507399773,89.94229713599634,None,,,,,,,,,,,,,,,,,,,74,001,15,,2024-04-22_16h55.59.573,replicate_nsd,2023.2.3,59.95287979310988,2024-04-22 16h56.21.613395 -0400,
images/image_79_seed_1.png,62,0,0,0,1,"[9, 19, 31, 42, 56, 68, 69, 70, 71]",,,,,0,134,134,134,102.08860596200248,,,,,,,,,,,,,,,,,,,,,,,,,,,,,,,,,,,,,,,,,,,,89.94252451999637,89.94259248000162,89.9425994350022,89.95340691100137,None,0,None,89.95356084800005,89.95358216000022,None,89.95363030800218,89.95365636399947,None,89.95370409099996,89.95372227599728,None,,,,,,,,,,,,,,,,,,,74,001,15,,2024-04-22_16h55.59.573,replicate_nsd,2023.2.3,59.95287979310988,2024-04-22 16h56.21.613395 -0400,
images/image_570_seed_1.png,63,0,0,0,1,"[9, 19, 31, 42, 56, 68, 69, 70, 71]",,,,,0,135,135,135,102.08860596200248,,,,,,,,,,,,,,,,,,,,,,,,,,,,,,,,,,,,,,,,,,,,89.9538865880022,89.95393680599955,89.9539423189999,89.967941693998,None,0,None,89.96812215200043,89.96814433099644,None,89.96819197599689,89.96821938500216,None,89.96826786999736,89.96828637400176,None,,,,,,,,,,,,,,,,,,,74,001,15,,2024-04-22_16h55.59.573,replicate_nsd,2023.2.3,59.95287979310988,2024-04-22 16h56.21.613395 -0400,
images/image_621_seed_1.png,64,0,0,0,1,"[9, 19, 31, 42, 56, 68, 69, 70, 71]",,,,,0,136,136,136,102.08860596200248,,,,,,,,,,,,,,,,,,,,,,,,,,,,,,,,,,,,,,,,,,,,89.96845615100028,89.96851287499885,89.96851852200052,89.97963180200168,None,0,None,89.97979746700003,89.97981945599895,None,89.97986831200251,89.9798950359982,None,89.97994423699856,89.97996296999918,None,,,,,,,,,,,,,,,,,,,74,001,15,,2024-04-22_16h55.59.573,replicate_nsd,2023.2.3,59.95287979310988,2024-04-22 16h56.21.613395 -0400,
images/image_636_seed_1.png,65,0,0,0,1,"[9, 19, 31, 42, 56, 68, 69, 70, 71]",,,,,0,137,137,137,102.08860596200248,,,,,,,,,,,,,,,,,,,,,,,,,,,,,,,,,,,,,,,,,,,,89.98013674400136,89.98019245600153,89.98019799799658,89.99408252500143,None,0,None,89.99424577500031,89.9942669910015,None,89.9943157939997,89.99434302000009,None,89.99439116400026,89.99440924300143,None,,,,,,,,,,,,,,,,,,,74,001,15,,2024-04-22_16h55.59.573,replicate_nsd,2023.2.3,59.95287979310988,2024-04-22 16h56.21.613395 -0400,
images/image_506_seed_1.png,66,0,0,0,1,"[9, 19, 31, 42, 56, 68, 69, 70, 71]",,,,,0,138,138,138,102.08860596200248,,,,,,,,,,,,,,,,,,,,,,,,,,,,,,,,,,,,,,,,,,,,89.99457670900301,89.994629255998,89.99463493700023,90.0056892499997,None,0,None,90.00586267100152,90.0058844669984,None,90.00593329399999,90.0059610190001,None,90.0060091560008,90.00602696600254,None,,,,,,,,,,,,,,,,,,,74,001,15,,2024-04-22_16h55.59.573,replicate_nsd,2023.2.3,59.95287979310988,2024-04-22 16h56.21.613395 -0400,
images/image_745_seed_1.png,67,0,0,0,1,"[9, 19, 31, 42, 56, 68, 69, 70, 71]",,,,,0,139,139,139,102.08860596200248,,,,,,,,,,,,,,,,,,,,,,,,,,,,,,,,,,,,,,,,,,,,90.00619483600167,90.00624830299785,90.00625396399846,90.01704849799717,None,0,None,90.01721757499763,90.01723985200078,None,90.01728909600206,90.01731646499684,None,90.01736611399974,90.01738439699693,None,,,,,,,,,,,,,,,,,,,74,001,15,,2024-04-22_16h55.59.573,replicate_nsd,2023.2.3,59.95287979310988,2024-04-22 16h56.21.613395 -0400,
blank.jpg,68,1,0,0,1,"[9, 19, 31, 42, 56, 68, 69, 70, 71]",,,,,0,140,140,140,102.08860596200248,,,,,,,,,,,,,,,,,,,,,,,,,,,,,,,,,,,,,,,,,,,,90.0175542950019,90.01760955699865,90.01761531300144,90.0200429539982,None,0,None,90.0201968170004,90.02021844599949,None,90.02026735099935,90.02029344900075,None,90.0203424930005,90.02036087500164,None,,,,,,,,,,,,,,,,,,,74,001,15,,2024-04-22_16h55.59.573,replicate_nsd,2023.2.3,59.95287979310988,2024-04-22 16h56.21.613395 -0400,
blank.jpg,69,1,0,0,1,"[9, 19, 31, 42, 56, 68, 69, 70, 71]",,,,,0,141,141,141,102.08860596200248,,,,,,,,,,,,,,,,,,,,,,,,,,,,,,,,,,,,,,,,,,,,90.02056098700268,90.0206121759984,90.02061795500049,90.02222698299738,None,0,None,90.02237835800042,90.02239953500248,None,90.02244791299745,90.02247275399714,None,90.0225216760009,90.02253972399922,None,,,,,,,,,,,,,,,,,,,74,001,15,,2024-04-22_16h55.59.573,replicate_nsd,2023.2.3,59.95287979310988,2024-04-22 16h56.21.613395 -0400,
blank.jpg,70,1,0,0,1,"[9, 19, 31, 42, 56, 68, 69, 70, 71]",,,,,0,142,142,142,102.08860596200248,,,,,,,,,,,,,,,,,,,,,,,,,,,,,,,,,,,,,,,,,,,,90.02269795600296,90.02274398299778,90.02274981600203,90.02424599399819,None,0,None,90.02439715799846,90.02441763300158,None,90.02446551700268,90.02449100300146,None,90.02453914299986,90.02455688099872,None,,,,,,,,,,,,,,,,,,,74,001,15,,2024-04-22_16h55.59.573,replicate_nsd,2023.2.3,59.95287979310988,2024-04-22 16h56.21.613395 -0400,
blank.jpg,71,1,0,1,1,"[9, 19, 31, 42, 56, 68, 69, 70, 71]",,,,,0,143,143,143,102.08860596200248,,,,,,,,,,,,,,,,,,,,,,,,,,,,,,,,,,,,,,,,,,,,90.02471571000206,90.02476197799842,90.02476756599935,90.02630593800131,None,0,None,90.02645634899818,90.02647730900208,None,90.02652527300233,90.02655092899658,None,90.02659976900031,90.0266175450015,None,,,,,,,,,,,,,,,,,,,74,001,15,,2024-04-22_16h55.59.573,replicate_nsd,2023.2.3,59.95287979310988,2024-04-22 16h56.21.613395 -0400,
images/image_17_seed_1.png,0,0,0,0,2,"[9, 19, 29, 39, 49, 59, 68, 69, 70, 71]",,,,,0,144,144,144,102.08860596200248,,,,,,,,,,,,,,,,,,,,,,,,,,,,,,,,,,,,,,,,,,,,90.02677767800196,90.0268243419996,90.02682984399871,90.04102527000214,None,0,None,90.04121278599632,90.04123624200292,None,90.04128541400132,90.04131385499932,None,90.04136376800307,90.04138279399922,None,,,,,,,,,,,,,,,,,,,74,001,15,,2024-04-22_16h55.59.573,replicate_nsd,2023.2.3,59.95287979310988,2024-04-22 16h56.21.613395 -0400,
images/image_552_seed_1.png,1,0,0,0,2,"[9, 19, 29, 39, 49, 59, 68, 69, 70, 71]",,,,,0,145,145,145,102.08860596200248,,,,,,,,,,,,,,,,,,,,,,,,,,,,,,,,,,,,,,,,,,,,90.0415582429996,90.04161555199971,90.0416211519987,90.05520960599824,None,0,None,90.0553717570001,90.05539328599843,None,90.05544228100189,90.05547308499808,None,90.05552350299695,90.05554215099983,None,,,,,,,,,,,,,,,,,,,74,001,15,,2024-04-22_16h55.59.573,replicate_nsd,2023.2.3,59.95287979310988,2024-04-22 16h56.21.613395 -0400,
images/image_264_seed_1.png,2,0,0,0,2,"[9, 19, 29, 39, 49, 59, 68, 69, 70, 71]",,,,,0,146,146,146,102.08860596200248,,,,,,,,,,,,,,,,,,,,,,,,,,,,,,,,,,,,,,,,,,,,90.05571009500272,90.05576207499689,90.05576782400021,90.06495726799767,None,0,None,90.06512012500025,90.06514147599955,None,90.06518987200252,90.06521695700212,None,90.06526622099773,90.06528478400287,None,,,,,,,,,,,,,,,,,,,74,001,15,,2024-04-22_16h55.59.573,replicate_nsd,2023.2.3,59.95287979310988,2024-04-22 16h56.21.613395 -0400,
images/image_175_seed_1.png,3,0,0,0,2,"[9, 19, 29, 39, 49, 59, 68, 69, 70, 71]",,,,,0,147,147,147,102.08860596200248,,,,,,,,,,,,,,,,,,,,,,,,,,,,,,,,,,,,,,,,,,,,90.06545107199781,90.06550456600235,90.06551032500283,90.07661145999737,None,0,None,90.07677409100143,90.0767963929975,None,90.07684509400133,90.07687165799871,None,90.07692095499806,90.07693930099776,None,,,,,,,,,,,,,,,,,,,74,001,15,,2024-04-22_16h55.59.573,replicate_nsd,2023.2.3,59.95287979310988,2024-04-22 16h56.21.613395 -0400,
images/image_212_seed_1.png,4,0,0,0,2,"[9, 19, 29, 39, 49, 59, 68, 69, 70, 71]",,,,,0,148,148,148,102.08860596200248,,,,,,,,,,,,,,,,,,,,,,,,,,,,,,,,,,,,,,,,,,,,90.07711425999878,90.07716658100253,90.07717231199786,90.08609211599833,None,0,None,90.08626124099828,90.0862833420033,None,90.08633234699664,90.08635961200343,None,90.08641394600272,90.08643306400336,None,,,,,,,,,,,,,,,,,,,74,001,15,,2024-04-22_16h55.59.573,replicate_nsd,2023.2.3,59.95287979310988,2024-04-22 16h56.21.613395 -0400,
images/image_623_seed_1.png,5,0,0,0,2,"[9, 19, 29, 39, 49, 59, 68, 69, 70, 71]",,,,,0,149,149,149,102.08860596200248,,,,,,,,,,,,,,,,,,,,,,,,,,,,,,,,,,,,,,,,,,,,90.08660209499794,90.0866541630021,90.08665988199937,90.09782035600074,None,0,None,90.09798986199894,90.09801185299875,None,90.09806110800127,90.09808819000318,None,90.09813783100253,90.09815660399909,None,,,,,,,,,,,,,,,,,,,74,001,15,,2024-04-22_16h55.59.573,replicate_nsd,2023.2.3,59.95287979310988,2024-04-22 16h56.21.613395 -0400,
images/paired_image_949_2.png,6,0,0,0,2,"[9, 19, 29, 39, 49, 59, 68, 69, 70, 71]",,,,,0,150,150,150,102.08860596200248,,,,,,,,,,,,,,,,,,,,,,,,,,,,,,,,,,,,,,,,,,,,90.09832504700171,90.09837718399649,90.09838304499863,90.11277926999901,None,0,None,90.11297401299817,90.11299739300011,None,90.11304630400264,90.11307436099742,None,90.113123627998,90.11314233399753,None,,,,,,,,,,,,,,,,,,,74,001,15,,2024-04-22_16h55.59.573,replicate_nsd,2023.2.3,59.95287979310988,2024-04-22 16h56.21.613395 -0400,
images/image_555_seed_1.png,7,0,0,0,2,"[9, 19, 29, 39, 49, 59, 68, 69, 70, 71]",,,,,0,151,151,151,102.08860596200248,,,,,,,,,,,,,,,,,,,,,,,,,,,,,,,,,,,,,,,,,,,,90.1133202380006,90.11337907199777,90.1133847730016,90.12386988700018,None,0,None,90.12403977500071,90.12406176300283,None,90.12411877099657,90.12414634200104,None,90.12419692800177,90.1242157500019,None,,,,,,,,,,,,,,,,,,,74,001,15,,2024-04-22_16h55.59.573,replicate_nsd,2023.2.3,59.95287979310988,2024-04-22 16h56.21.613395 -0400,
images/image_74_seed_1.png,8,0,0,0,2,"[9, 19, 29, 39, 49, 59, 68, 69, 70, 71]",,,,,0,152,152,152,102.08860596200248,,,,,,,,,,,,,,,,,,,,,,,,,,,,,,,,,,,,,,,,,,,,90.12438493299851,90.1244403439996,90.12444615799905,90.13555836299929,None,0,None,90.1357239229983,90.13574540099944,None,90.13579470400146,90.13582128899725,None,90.13587098699645,90.13588951800193,None,,,,,,,,,,,,,,,,,,,74,001,15,,2024-04-22_16h55.59.573,replicate_nsd,2023.2.3,59.95287979310988,2024-04-22 16h56.21.613395 -0400,
blank.jpg,9,1,0,0,2,"[9, 19, 29, 39, 49, 59, 68, 69, 70, 71]",,,,,0,153,153,153,102.08860596200248,,,,,,,,,,,,,,,,,,,,,,,,,,,,,,,,,,,,,,,,,,,,90.13606222700037,90.13611430199671,90.13612014499813,90.13860129599925,None,0,None,90.1387570980005,90.13877889300056,None,90.13882789500349,90.13885454199772,None,90.1389032119987,90.13892163999844,None,,,,,,,,,,,,,,,,,,,74,001,15,,2024-04-22_16h55.59.573,replicate_nsd,2023.2.3,59.95287979310988,2024-04-22 16h56.21.613395 -0400,
images/image_385_seed_1.png,10,0,0,0,2,"[9, 19, 29, 39, 49, 59, 68, 69, 70, 71]",,,,,0,154,154,154,102.08860596200248,,,,,,,,,,,,,,,,,,,,,,,,,,,,,,,,,,,,,,,,,,,,90.13912696899934,90.13917731800029,90.13918305400148,90.1532251039971,None,0,None,90.15339921599661,90.15342179599975,None,90.1534713880028,90.15349928299838,None,90.15354946900334,90.15356848800002,None,,,,,,,,,,,,,,,,,,,74,001,15,,2024-04-22_16h55.59.573,replicate_nsd,2023.2.3,59.95287979310988,2024-04-22 16h56.21.613395 -0400,
images/paired_image_48_2.png,11,0,0,0,2,"[9, 19, 29, 39, 49, 59, 68, 69, 70, 71]",,,,,0,155,155,155,102.08860596200248,,,,,,,,,,,,,,,,,,,,,,,,,,,,,,,,,,,,,,,,,,,,90.15375279600266,90.15380790500058,90.15381358499872,90.16766694800026,None,0,None,90.16783868399943,90.16786109699751,None,90.16791047400329,90.16793796000275,None,90.16798807199666,90.1680069560025,None,,,,,,,,,,,,,,,,,,,74,001,15,,2024-04-22_16h55.59.573,replicate_nsd,2023.2.3,59.95287979310988,2024-04-22 16h56.21.613395 -0400,
images/image_377_seed_1.png,12,0,0,0,2,"[9, 19, 29, 39, 49, 59, 68, 69, 70, 71]",,,,,0,156,156,156,102.08860596200248,,,,,,,,,,,,,,,,,,,,,,,,,,,,,,,,,,,,,,,,,,,,90.16817741400155,90.16823011799715,90.16823577899777,90.17934758499905,None,0,None,90.17950874799863,90.17953016600222,None,90.17957944200316,90.17960586400295,None,90.17965482499858,90.17967317099829,None,,,,,,,,,,,,,,,,,,,74,001,15,,2024-04-22_16h55.59.573,replicate_nsd,2023.2.3,59.95287979310988,2024-04-22 16h56.21.613395 -0400,
images/image_271_seed_1.png,13,0,0,0,2,"[9, 19, 29, 39, 49, 59, 68, 69, 70, 71]",,,,,0,157,157,157,102.08860596200248,,,,,,,,,,,,,,,,,,,,,,,,,,,,,,,,,,,,,,,,,,,,90.17983969899797,90.17989111199859,90.17989677099831,90.19015703100013,None,0,None,90.19031990900112,90.19034138500137,None,90.19039027499821,90.19041615600145,None,90.19046537100076,90.19048386799841,None,,,,,,,,,,,,,,,,,,,74,001,15,,2024-04-22_16h55.59.573,replicate_nsd,2023.2.3,59.95287979310988,2024-04-22 16h56.21.613395 -0400,
images/image_497_seed_1.png,14,0,0,0,2,"[9, 19, 29, 39, 49, 59, 68, 69, 70, 71]",,,,,0,158,158,158,102.08860596200248,,,,,,,,,,,,,,,,,,,,,,,,,,,,,,,,,,,,,,,,,,,,90.1906577789996,90.1907088040025,90.1907145849982,90.204587248998,None,0,None,90.20475492699916,90.20477692499844,None,90.20482578600058,90.20485300300061,None,90.20490247999987,90.20492643499892,None,,,,,,,,,,,,,,,,,,,74,001,15,,2024-04-22_16h55.59.573,replicate_nsd,2023.2.3,59.95287979310988,2024-04-22 16h56.21.613395 -0400,
images/image_709_seed_1.png,15,0,0,0,2,"[9, 19, 29, 39, 49, 59, 68, 69, 70, 71]",,,,,0,159,159,159,102.08860596200248,,,,,,,,,,,,,,,,,,,,,,,,,,,,,,,,,,,,,,,,,,,,90.20510048700089,90.20515404299658,90.20515973700094,90.21952568100096,None,0,None,90.21970785900339,90.21972980599821,None,90.21977907400287,90.21980675699888,None,90.21985655799654,90.21987618399726,None,,,,,,,,,,,,,,,,,,,74,001,15,,2024-04-22_16h55.59.573,replicate_nsd,2023.2.3,59.95287979310988,2024-04-22 16h56.21.613395 -0400,
images/image_713_seed_1.png,16,0,0,0,2,"[9, 19, 29, 39, 49, 59, 68, 69, 70, 71]",,,,,0,160,160,160,102.08860596200248,,,,,,,,,,,,,,,,,,,,,,,,,,,,,,,,,,,,,,,,,,,,90.22009005099972,90.2201738349977,90.22018019599636,90.2339705350023,None,0,None,90.23414473699813,90.23416746099974,None,90.23421664399939,90.23424404000252,None,90.23429330300132,90.2343121629965,None,,,,,,,,,,,,,,,,,,,74,001,15,,2024-04-22_16h55.59.573,replicate_nsd,2023.2.3,59.95287979310988,2024-04-22 16h56.21.613395 -0400,
images/image_401_seed_1.png,17,0,0,0,2,"[9, 19, 29, 39, 49, 59, 68, 69, 70, 71]",,,,,0,161,161,161,102.08860596200248,,,,,,,,,,,,,,,,,,,,,,,,,,,,,,,,,,,,,,,,,,,,90.23448365100194,90.23453869899822,90.23454427700199,90.24574939200102,None,0,None,90.24591305299691,90.2459348859993,None,90.2459840570009,90.24601066699688,None,90.24606022999797,90.2460792339989,None,,,,,,,,,,,,,,,,,,,74,001,15,,2024-04-22_16h55.59.573,replicate_nsd,2023.2.3,59.95287979310988,2024-04-22 16h56.21.613395 -0400,
images/image_321_seed_1.png,18,0,1,0,2,"[9, 19, 29, 39, 49, 59, 68, 69, 70, 71]",,,,,0,162,162,162,102.08860596200248,,,,,,,,,,,,,,,,,,,,,,,,,,,,,,,,,,,,,,,,,,,,90.24626154600264,90.246316003002,90.24632165700314,90.25500521899812,None,0,None,90.25516713999968,90.25518879399897,None,90.25523745999817,90.25526376700145,None,90.25531725300243,90.25533560199983,None,,,,,,,,,,,,,,,,,,,74,001,15,,2024-04-22_16h55.59.573,replicate_nsd,2023.2.3,59.95287979310988,2024-04-22 16h56.21.613395 -0400,
blank.jpg,19,1,0,0,2,"[9, 19, 29, 39, 49, 59, 68, 69, 70, 71]",,,,,0,163,163,163,102.08860596200248,,,,,,,,,,,,,,,,,,,,,,,,,,,,,,,,,,,,,,,,,,,,90.25550019300135,90.25555295799859,90.25555864300259,90.25791864000348,None,0,None,90.25807385100052,90.25809530800325,None,90.25814484200237,90.25817046700104,None,90.25822014499863,90.25823893699999,None,,,,,,,,,,,,,,,,,,,74,001,15,,2024-04-22_16h55.59.573,replicate_nsd,2023.2.3,59.95287979310988,2024-04-22 16h56.21.613395 -0400,
images/1_78.png,20,0,0,0,2,"[9, 19, 29, 39, 49, 59, 68, 69, 70, 71]",,,,,0,164,164,164,102.08860596200248,,,,,,,,,,,,,,,,,,,,,,,,,,,,,,,,,,,,,,,,,,,,90.25840176999918,90.25845211200067,90.2584578390015,90.26335653300339,None,0,None,90.26351892799721,90.26354036900011,None,90.26358943199739,90.26361564700346,None,90.2636653849986,90.26368369400006,None,,,,,,,,,,,,,,,,,,,74,001,15,,2024-04-22_16h55.59.573,replicate_nsd,2023.2.3,59.95287979310988,2024-04-22 16h56.21.613395 -0400,
images/image_666_seed_1.png,21,0,0,0,2,"[9, 19, 29, 39, 49, 59, 68, 69, 70, 71]",,,,,0,165,165,165,102.08860596200248,,,,,,,,,,,,,,,,,,,,,,,,,,,,,,,,,,,,,,,,,,,,90.26384753500315,90.2638945400031,90.26390050799819,90.2787578360003,None,0,None,90.27895153199643,90.27897558899713,None,90.27902501999779,90.27905309399648,None,90.27910312199674,90.27912167600152,None,,,,,,,,,,,,,,,,,,,74,001,15,,2024-04-22_16h55.59.573,replicate_nsd,2023.2.3,59.95287979310988,2024-04-22 16h56.21.613395 -0400,
images/image_381_seed_1.png,22,0,0,0,2,"[9, 19, 29, 39, 49, 59, 68, 69, 70, 71]",,,,,0,166,166,166,102.08860596200248,,,,,,,,,,,,,,,,,,,,,,,,,,,,,,,,,,,,,,,,,,,,90.27929785499873,90.2793585679974,90.27936437600147,90.29341771000327,None,0,None,90.29360059899773,90.2936235140005,None,90.29367255100078,90.29370114299672,None,90.29375078500016,90.29377001299872,None,,,,,,,,,,,,,,,,,,,74,001,15,,2024-04-22_16h55.59.573,replicate_nsd,2023.2.3,59.95287979310988,2024-04-22 16h56.21.613395 -0400,
images/image_130_seed_1.png,23,0,0,0,2,"[9, 19, 29, 39, 49, 59, 68, 69, 70, 71]",,,,,0,167,167,167,102.08860596200248,,,,,,,,,,,,,,,,,,,,,,,,,,,,,,,,,,,,,,,,,,,,90.29394378900179,90.29402758299693,90.29403370500222,90.30480476200319,None,0,None,90.30496562900225,90.30498732800334,None,90.30503638299706,90.30506271000195,None,90.3051119160009,90.30513535499631,None,,,,,,,,,,,,,,,,,,,74,001,15,,2024-04-22_16h55.59.573,replicate_nsd,2023.2.3,59.95287979310988,2024-04-22 16h56.21.613395 -0400,
images/image_18_seed_1.png,24,0,0,0,2,"[9, 19, 29, 39, 49, 59, 68, 69, 70, 71]",,,,,0,168,168,168,102.08860596200248,,,,,,,,,,,,,,,,,,,,,,,,,,,,,,,,,,,,,,,,,,,,90.30531009600236,90.30536394700175,90.30536966899672,90.31923373400059,None,0,None,90.31941635700059,90.31943813800171,None,90.31948809300229,90.31951559700246,None,90.31956553600321,90.31958434300032,None,,,,,,,,,,,,,,,,,,,74,001,15,,2024-04-22_16h55.59.573,replicate_nsd,2023.2.3,59.95287979310988,2024-04-22 16h56.21.613395 -0400,
images/image_579_seed_1.png,25,0,0,0,2,"[9, 19, 29, 39, 49, 59, 68, 69, 70, 71]",,,,,0,169,169,169,102.08860596200248,,,,,,,,,,,,,,,,,,,,,,,,,,,,,,,,,,,,,,,,,,,,90.31983975700132,90.31995062100032,90.31995634800114,90.33361882500321,None,0,None,90.33379481299926,90.33381744100188,None,90.333866793997,90.33389495300071,None,90.33394487100304,90.33396380199702,None,,,,,,,,,,,,,,,,,,,74,001,15,,2024-04-22_16h55.59.573,replicate_nsd,2023.2.3,59.95287979310988,2024-04-22 16h56.21.613395 -0400,
images/image_607_seed_1.png,26,0,0,0,2,"[9, 19, 29, 39, 49, 59, 68, 69, 70, 71]",,,,,0,170,170,170,102.08860596200248,,,,,,,,,,,,,,,,,,,,,,,,,,,,,,,,,,,,,,,,,,,,90.33413796700188,90.33419530800165,90.33420101999945,90.34883612099657,None,0,None,90.34904062499845,90.34906585499994,None,90.34915164099948,90.34918056600145,None,90.34923057899869,90.34925013100292,None,,,,,,,,,,,,,,,,,,,74,001,15,,2024-04-22_16h55.59.573,replicate_nsd,2023.2.3,59.95287979310988,2024-04-22 16h56.21.613395 -0400,
images/image_44_seed_1.png,27,0,0,0,2,"[9, 19, 29, 39, 49, 59, 68, 69, 70, 71]",,,,,0,171,171,171,102.08860596200248,,,,,,,,,,,,,,,,,,,,,,,,,,,,,,,,,,,,,,,,,,,,90.34942613099702,90.34948615999747,90.34949185299774,90.36332771999878,None,0,None,90.36349643099675,90.36351836899848,None,90.36356734300352,90.36359456599894,None,90.363644750003,90.36366339500091,None,,,,,,,,,,,,,,,,,,,74,001,15,,2024-04-22_16h55.59.573,replicate_nsd,2023.2.3,59.95287979310988,2024-04-22 16h56.21.613395 -0400,
images/paired_image_206_2.png,28,0,0,0,2,"[9, 19, 29, 39, 49, 59, 68, 69, 70, 71]",,,,,0,172,172,172,102.08860596200248,,,,,,,,,,,,,,,,,,,,,,,,,,,,,,,,,,,,,,,,,,,,90.3638371470006,90.36389478800265,90.36390045600274,90.37779186399712,None,0,None,90.37801342499733,90.37803598299797,None,90.37808580799901,90.37811379799678,None,90.37816377599665,90.37818288300332,None,,,,,,,,,,,,,,,,,,,74,001,15,,2024-04-22_16h55.59.573,replicate_nsd,2023.2.3,59.95287979310988,2024-04-22 16h56.21.613395 -0400,
blank.jpg,29,1,0,0,2,"[9, 19, 29, 39, 49, 59, 68, 69, 70, 71]",,,,,0,173,173,173,102.08860596200248,,,,,,,,,,,,,,,,,,,,,,,,,,,,,,,,,,,,,,,,,,,,90.37835705799807,90.37841540599766,90.37842123000155,90.38092943499942,None,0,None,90.3810842439998,90.38110597000195,None,90.38115481400018,90.3811813680004,None,90.38123051999719,90.38124913399952,None,,,,,,,,,,,,,,,,,,,74,001,15,,2024-04-22_16h55.59.573,replicate_nsd,2023.2.3,59.95287979310988,2024-04-22 16h56.21.613395 -0400,
images/16_78.png,30,0,0,0,2,"[9, 19, 29, 39, 49, 59, 68, 69, 70, 71]",,,,,0,174,174,174,102.08860596200248,,,,,,,,,,,,,,,,,,,,,,,,,,,,,,,,,,,,,,,,,,,,90.38141353300307,90.38146536300337,90.38147100900096,90.38639562200115,None,0,None,90.38655465099873,90.38657618599973,None,90.386625318999,90.38665191399923,None,90.38670181499765,90.38672047400178,None,,,,,,,,,,,,,,,,,,,74,001,15,,2024-04-22_16h55.59.573,replicate_nsd,2023.2.3,59.95287979310988,2024-04-22 16h56.21.613395 -0400,
images/image_72_seed_1.png,31,0,0,0,2,"[9, 19, 29, 39, 49, 59, 68, 69, 70, 71]",,,,,0,175,175,175,102.08860596200248,,,,,,,,,,,,,,,,,,,,,,,,,,,,,,,,,,,,,,,,,,,,90.38688587400247,90.38693835600134,90.38694415299688,90.39765769500082,None,0,None,90.39782561200263,90.39784712599794,None,90.39789599300275,90.39792337400286,None,90.39797303300293,90.39799263400346,None,,,,,,,,,,,,,,,,,,,74,001,15,,2024-04-22_16h55.59.573,replicate_nsd,2023.2.3,59.95287979310988,2024-04-22 16h56.21.613395 -0400,
images/image_101_seed_1.png,32,0,0,0,2,"[9, 19, 29, 39, 49, 59, 68, 69, 70, 71]",,,,,0,176,176,176,102.08860596200248,,,,,,,,,,,,,,,,,,,,,,,,,,,,,,,,,,,,,,,,,,,,90.39816274499753,90.39821720300097,90.39822283799731,90.40559984200081,None,0,None,90.40576554099971,90.40578785399703,None,90.40583791399695,90.40586439800245,None,90.40591441599827,90.40593319499749,None,,,,,,,,,,,,,,,,,,,74,001,15,,2024-04-22_16h55.59.573,replicate_nsd,2023.2.3,59.95287979310988,2024-04-22 16h56.21.613395 -0400,
images/image_491_seed_1.png,33,0,0,0,2,"[9, 19, 29, 39, 49, 59, 68, 69, 70, 71]",,,,,0,177,177,177,102.08860596200248,,,,,,,,,,,,,,,,,,,,,,,,,,,,,,,,,,,,,,,,,,,,90.40610271500191,90.40615887600143,90.40616456000134,90.42228006899677,None,0,None,90.42248617100267,90.42250993399648,None,90.42255945299985,90.42258740800025,None,90.42267914699914,90.4226979360028,None,,,,,,,,,,,,,,,,,,,74,001,15,,2024-04-22_16h55.59.573,replicate_nsd,2023.2.3,59.95287979310988,2024-04-22 16h56.21.613395 -0400,
