current_image,trial_index,is_blank_trial,is_repeat,is_new_run,run_num,all_blanks_list,practice.thisRepN,practice.thisTrialN,practice.thisN,practice.thisIndex,loop_all_images.thisRepN,loop_all_images.thisTrialN,loop_all_images.thisN,loop_all_images.thisIndex,thisRow.t,notes,set_up.started,set_up.stopped,practice_continue.started,key_resp_6.started,text_6.started,practice_continue.stopped,key_resp_6.keys,key_resp_6.rt,key_resp_6.duration,set_skips_and_correct_key_2.started,set_skips_and_correct_key_2.stopped,practice_trial.started,polygon_3.started,all_keys_pressed_2.started,image_2.started,press_if_repeat_2.started,image_2.stopped,press_if_repeat_2.stopped,polygon_3.stopped,all_keys_pressed_2.stopped,practice_trial.stopped,press_if_repeat_2.keys,press_if_repeat_2.corr,all_keys_pressed_2.keys,blank_trial_2.started,blank_trial_2.stopped,press_if_repeat_2.rt,press_if_repeat_2.duration,all_keys_pressed_2.rt,all_keys_pressed_2.duration,polygon_4.started,polygon_4.stopped,testing_continue.started,key_resp_7.started,text_7.started,testing_continue.stopped,key_resp_7.keys,key_resp_7.rt,key_resp_7.duration,waiting_fmri.started,key_resp_2.started,text_3.started,waiting_fmri.stopped,key_resp_2.keys,key_resp_2.rt,key_resp_2.duration,set_skips_and_correct_key.started,set_skips_and_correct_key.stopped,trial.started,polygon.started,all_keys_pressed.started,image.started,press_if_repeat.started,image.stopped,press_if_repeat.stopped,polygon.stopped,all_keys_pressed.stopped,trial.stopped,press_if_repeat.keys,press_if_repeat.corr,press_if_repeat.rt,press_if_repeat.duration,all_keys_pressed.keys,blank_trial.started,blank_trial.stopped,blank_trial_testing_keys.keys,run_wait2_2.started,run_wait2_2.stopped,key_resp_5.keys,waiting_fmri_2.started,waiting_fmri_2.stopped,key_resp_4.keys,all_keys_pressed.rt,all_keys_pressed.duration,blank_trial_testing_keys.started,polygon_2.started,blank_trial_testing_keys.stopped,polygon_2.stopped,key_resp_5.started,text_5.started,key_resp_5.rt,key_resp_5.duration,key_resp_4.started,text_4.started,key_resp_4.rt,key_resp_4.duration,participant,session,starting_run,,date,expName,psychopyVersion,frameRate,expStart,
,,,,,,,,,,,,,,,,,0.02525529700142215,0.025529131999064703,0.025553161998686846,0.046182669000700116,0.046182669000700116,1.8778947140017408,4,1.826100623999082,None,,,,,,,,,,,,,,,,,,,,,,,,,,,,,,,,,,,,,,,,,,,,,,,,,,,,,,,,,,,,,,,,,,,,,,,,,,,,,,75,001,0,,2024-04-13_10h50.01.561,replicate_nsd,2023.2.3,59.92170605846319,2024-04-13 10h50.17.469229 -0400,
practice_images/paired_image_21_2.png,0,0,,,,,0,0,0,0,,,,,1.9114464439990115,,,,,,,,,,,1.8850666069993167,1.8851275439992605,1.8851357669991557,1.9114464439990115,1.9114464439990115,2.895171707001282,2.895171707001282,5.894272722998721,5.894272722998721,5.894272722998721,5.894272722998721,5.878632020998339,None,0,None,5.879330255000241,5.879376968998258,,,,,,,,,,,,,,,,,,,,,,,,,,,,,,,,,,,,,,,,,,,,,,,,,,,,,,,,,,,,,75,001,0,,2024-04-13_10h50.01.561,replicate_nsd,2023.2.3,59.92170605846319,2024-04-13 10h50.17.469229 -0400,
practice_images/paired_image_28_1.png,1,0,,,,,0,1,1,1,,,,,5.894272722998721,,,,,,,,,,,5.879669681999076,5.879763206001371,5.879775066998263,5.894272722998721,5.894272722998721,6.893983883001056,6.893983883001056,9.894166108999343,9.894166108999343,9.894166108999343,9.894166108999343,9.878539189001458,1,0,None,9.879295167000237,9.879339869999967,2.9222949809991405,None,,,,,,,,,,,,,,,,,,,,,,,,,,,,,,,,,,,,,,,,,,,,,,,,,,,,,,,,,,,75,001,0,,2024-04-13_10h50.01.561,replicate_nsd,2023.2.3,59.92170605846319,2024-04-13 10h50.17.469229 -0400,
practice_images/paired_image_18_1.png,2,0,,,,,0,2,2,2,,,,,9.894166108999343,,,,,,,,,,,9.879611754000507,9.879697365999164,9.879708944001322,9.894166108999343,9.894166108999343,10.895090617999813,10.895090617999813,13.894200703001843,13.894200703001843,13.894200703001843,13.894200703001843,13.87864808499944,2,0,"['1', '2', '1', '2']",13.879678765999415,13.87972517000162,2.957186528998136,None,"[0.14995966100104852, 0.4460741010007041, 0.690092551001726, 0.7460398790026375]","[None, None, None, None]",,,,,,,,,,,,,,,,,,,,,,,,,,,,,,,,,,,,,,,,,,,,,,,,,,,,,,,,,75,001,0,,2024-04-13_10h50.01.561,replicate_nsd,2023.2.3,59.92170605846319,2024-04-13 10h50.17.469229 -0400,
practice_images/paired_image_33_1.png,3,0,,,,,0,3,3,3,,,,,13.894200703001843,,,,,,,,,,,13.879999307999242,13.880086680001114,13.880098358000396,13.894200703001843,13.894200703001843,14.89515908699832,14.89515908699832,17.89416319999873,17.89416319999873,17.89416319999873,17.89416319999873,17.878637098998297,2,0,"['1', '1', '2', '1']",17.87944675399922,17.879491285999393,2.9650671830022475,None,"[0.10603175500000361, 0.5859420870001486, 0.6058549830013362, 0.8700847220025025]","[None, None, None, None]",,,,,,,,,,,,,,,,,,,,,,,,,,,,,,,,,,,,,,,,,,,,,,,,,,,,,,,,,75,001,0,,2024-04-13_10h50.01.561,replicate_nsd,2023.2.3,59.92170605846319,2024-04-13 10h50.17.469229 -0400,
practice_images/paired_image_6_2.png,4,0,,,,,0,4,4,4,,,,,17.89416319999873,,,,,,,,,,,17.87977862600019,17.87986545500098,17.879877367999143,17.89416319999873,17.89416319999873,18.89515986400147,18.89515986400147,21.894160381998518,21.894160381998518,21.894160381998518,21.894160381998518,21.878434857000684,1,0,"['1', '2', '1']",21.879001206001703,21.879031454998767,2.872924661001889,None,"[0.13794276699991315, 0.4901008870001533, 0.8421149589994457]","[None, None, None]",,,,,,,,,,,,,,,,,,,,,,,,,,,,,,,,,,,,,,,,,,,,,,,,,,,,,,,,,75,001,0,,2024-04-13_10h50.01.561,replicate_nsd,2023.2.3,59.92170605846319,2024-04-13 10h50.17.469229 -0400,
practice_images/paired_image_2_1.png,5,0,,,,,0,5,5,5,,,,,21.894160381998518,,,,,,,,,,,21.879220143000566,21.87928145299884,21.87928937199831,21.894160381998518,21.894160381998518,22.894746082001802,22.894746082001802,25.8949878659987,25.8949878659987,25.8949878659987,25.8949878659987,25.878350189999765,1,0,"['2', '1', '1', '2']",25.878990037999756,25.87902598599976,2.8615349259998766,None,"[0.3380951830004051, 0.41012809200037736, 0.6581202330016822, 0.6941160910027975]","[None, None, None, None]",,,,,,,,,,,,,,,,,,,,,,,,,,,,,,,,,,,,,,,,,,,,,,,,,,,,,,,,,75,001,0,,2024-04-13_10h50.01.561,replicate_nsd,2023.2.3,59.92170605846319,2024-04-13 10h50.17.469229 -0400,
practice_images/paired_image_12_1.png,6,0,,,,,0,6,6,6,,,,,25.8949878659987,,,,,,,,,,,25.879242843999236,25.879311879998568,25.879321462998632,25.8949878659987,25.8949878659987,26.89511619499899,26.89511619499899,29.894629710001027,29.894629710001027,29.894629710001027,29.894629710001027,29.878657648001536,2,0,"['1', '2', '1', '2', '1', '2']",29.879464155001187,29.879507785000897,2.733155482001166,None,"[0.12122972200086224, 0.2732746309993672, 0.48927141500098514, 0.6131466760016338, 0.7732339930007583, 0.8892633750001551]","[None, None, None, None, None, None]",,,,,,,,,,,,,,,,,,,,,,,,,,,,,,,,,,,,,,,,,,,,,,,,,,,,,,,,,75,001,0,,2024-04-13_10h50.01.561,replicate_nsd,2023.2.3,59.92170605846319,2024-04-13 10h50.17.469229 -0400,
practice_images/paired_image_36_1.png,7,0,,,,,0,7,7,7,,,,,29.894629710001027,,,,,,,,,,,29.879782559000887,29.879868408999755,29.87988038700132,29.894629710001027,29.894629710001027,30.895190971001284,30.895190971001284,33.89414310099892,33.89414310099892,33.89414310099892,33.89414310099892,33.8801328260015,2,0,"['1', '2', '1', '2']",33.88066111399894,33.88068248100171,2.792893174002529,None,"[0.3536974119997467, 0.489475432998006, 0.7456469689968799, 0.8456321279991244]","[None, None, None, None]",,,,,,,,,,,,,,,,,,,,,,,,,,,,,,,,,,,,,,,,,,,,,,,,,,,,,,,,,75,001,0,,2024-04-13_10h50.01.561,replicate_nsd,2023.2.3,59.92170605846319,2024-04-13 10h50.17.469229 -0400,
practice_images/paired_image_27_1.png,8,0,,,,,0,8,8,8,,,,,33.89414310099892,,,,,,,,,,,33.88081661099932,33.88085762500123,33.88086305999968,33.89414310099892,33.89414310099892,34.8942784489991,34.8942784489991,37.89427689199874,37.89427689199874,37.89427689199874,37.89427689199874,37.87896493199878,1,0,"['2', '1', '2', '1']",37.87976601400078,37.87981064300038,2.7779847820020223,None,"[0.25798377899991465, 0.3699590360010916, 0.5579612980000093, 0.7581303180013492]","[None, None, None, None]",,,,,,,,,,,,,,,,,,,,,,,,,,,,,,,,,,,,,,,,,,,,,,,,,,,,,,,,,75,001,0,,2024-04-13_10h50.01.561,replicate_nsd,2023.2.3,59.92170605846319,2024-04-13 10h50.17.469229 -0400,
practice_images/paired_image_4_2.png,9,0,,,,,0,9,9,9,,,,,37.89427689199874,,,,,,,,,,,37.88008298400018,37.88016838999829,37.88017997100178,37.89427689199874,37.89427689199874,38.89523896800165,38.89523896800165,41.94442686500042,41.94442686500042,41.94442686500042,41.94442686500042,41.929713685000024,1,0,"['1', '1', '1', '1']",41.93018220600061,41.93020285700186,0.045030437999230344,None,"[0.13398045299982186, 0.38998644999810494, 0.6219657359979465, 0.8499842489982257]","[None, None, None, None]",,,,,,,,,,,,,,,,,,,,,,,,,,,,,,,,,,,,,,,,,,,,,,,,,,,,,,,,,75,001,0,,2024-04-13_10h50.01.561,replicate_nsd,2023.2.3,59.92170605846319,2024-04-13 10h50.17.469229 -0400,
blank.jpg,10,1,,,,,0,10,10,10,,,,,41.94442686500042,,,,,,,,,,,41.93044690500028,41.93048862100113,41.93049424499986,,,,,,,,,41.93290008999975,None,0,None,41.933068877999176,45.92856649700116,,,,,41.94442686500042,45.944599128000846,,,,,,,,,,,,,,,,,,,,,,,,,,,,,,,,,,,,,,,,,,,,,,,,,,,,,,,75,001,0,,2024-04-13_10h50.01.561,replicate_nsd,2023.2.3,59.92170605846319,2024-04-13 10h50.17.469229 -0400,
practice_images/paired_image_30_1.png,11,0,,,,,0,11,11,11,,,,,45.944599128000846,,,,,,,,,,,45.928949511999235,45.92903706400102,45.929049326001405,45.944599128000846,45.944599128000846,46.94527062099951,46.94527062099951,49.944601367998985,49.944601367998985,49.944601367998985,49.944601367998985,49.928725976998976,None,0,None,49.929147432998434,49.92919248999897,,,,,,,,,,,,,,,,,,,,,,,,,,,,,,,,,,,,,,,,,,,,,,,,,,,,,,,,,,,,,75,001,0,,2024-04-13_10h50.01.561,replicate_nsd,2023.2.3,59.92170605846319,2024-04-13 10h50.17.469229 -0400,
practice_images/paired_image_15_1.png,12,0,,,,,0,12,12,12,,,,,49.944601367998985,,,,,,,,,,,49.92947460199866,49.929561567001656,49.92957359299908,49.944601367998985,49.944601367998985,50.94531765300053,50.94531765300053,53.94431706400064,53.94431706400064,53.94431706400064,53.94431706400064,53.92870337799832,None,0,None,53.92912523999985,53.92916831399998,,,,,,,,,,,,,,,,,,,,,,,,,,,,,,,,,,,,,,,,,,,,,,,,,,,,,,,,,,,,,75,001,0,,2024-04-13_10h50.01.561,replicate_nsd,2023.2.3,59.92170605846319,2024-04-13 10h50.17.469229 -0400,
practice_images/paired_image_19_1.png,13,0,,,,,0,13,13,13,,,,,53.94431706400064,,,,,,,,,,,53.929445788999146,53.929531385998416,53.929543051999644,53.94431706400064,53.94431706400064,54.94521192799948,54.94521192799948,57.94421702299951,57.94421702299951,57.94421702299951,57.94421702299951,57.92900177399861,None,0,None,57.92942552900058,57.929470536000736,,,,,,,,,,,,,,,,,,,,,,,,,,,,,,,,,,,,,,,,,,,,,,,,,,,,,,,,,,,,,75,001,0,,2024-04-13_10h50.01.561,replicate_nsd,2023.2.3,59.92170605846319,2024-04-13 10h50.17.469229 -0400,
practice_images/paired_image_24_1.png,14,0,,,,,0,14,14,14,,,,,57.94421702299951,,,,,,,,,,,57.92975176799882,57.92983875999926,57.92985080699873,57.94421702299951,57.94421702299951,58.945318092999514,58.945318092999514,61.94426124600068,61.94426124600068,61.94426124600068,61.94426124600068,61.92873843800044,None,0,None,61.929156022000825,61.929199539001274,,,,,,,,,,,,,,,,,,,,,,,,,,,,,,,,,,,,,,,,,,,,,,,,,,,,,,,,,,,,,75,001,0,,2024-04-13_10h50.01.561,replicate_nsd,2023.2.3,59.92170605846319,2024-04-13 10h50.17.469229 -0400,
practice_images/paired_image_20_2.png,15,0,,,,,0,15,15,15,,,,,61.94426124600068,,,,,,,,,,,61.92947905500114,61.92956548000075,61.929577085000346,61.94426124600068,61.94426124600068,62.944920424000884,62.944920424000884,65.94415042900073,65.94415042900073,65.94415042900073,65.94415042900073,65.92872559800162,None,0,None,65.92914866499996,65.92919207199884,,,,,,,,,,,,,,,,,,,,,,,,,,,,,,,,,,,,,,,,,,,,,,,,,,,,,,,,,,,,,75,001,0,,2024-04-13_10h50.01.561,replicate_nsd,2023.2.3,59.92170605846319,2024-04-13 10h50.17.469229 -0400,
practice_images/paired_image_15_2.png,16,0,,,,,0,16,16,16,,,,,65.94415042900073,,,,,,,,,,,65.929471681,65.92955784500009,65.92956963899996,65.94415042900073,65.94415042900073,66.94522158399923,66.94522158399923,69.9443265459995,69.9443265459995,69.9443265459995,69.9443265459995,69.92874595000103,None,0,None,69.92917245599892,69.92921619299887,,,,,,,,,,,,,,,,,,,,,,,,,,,,,,,,,,,,,,,,,,,,,,,,,,,,,,,,,,,,,75,001,0,,2024-04-13_10h50.01.561,replicate_nsd,2023.2.3,59.92170605846319,2024-04-13 10h50.17.469229 -0400,
practice_images/paired_image_29_1.png,17,0,,,,,0,17,17,17,,,,,69.9443265459995,,,,,,,,,,,69.9294982600004,69.92958572299904,69.92959743300162,69.9443265459995,69.9443265459995,70.94528194500162,70.94528194500162,73.94475003299885,73.94475003299885,73.94475003299885,73.94475003299885,73.92877864299953,None,0,None,73.92920210399825,73.92924672899971,,,,,,,,,,,,,,,,,,,,,,,,,,,,,,,,,,,,,,,,,,,,,,,,,,,,,,,,,,,,,75,001,0,,2024-04-13_10h50.01.561,replicate_nsd,2023.2.3,59.92170605846319,2024-04-13 10h50.17.469229 -0400,
practice_images/paired_image_22_2.png,18,0,,,,,0,18,18,18,,,,,73.94475003299885,,,,,,,,,,,73.92952669299848,73.92961287000071,73.92962433700086,73.94475003299885,73.94475003299885,74.94529260199852,74.94529260199852,77.9441499429995,77.9441499429995,77.9441499429995,77.9441499429995,77.92890848699972,None,0,None,77.92943638200086,77.92948106200129,,,,,,,,,,,,,,,,,,,,,,,,,,,,,,,,,,,,,,,,,,,,,,,,,,,,,,,,,,,,,75,001,0,,2024-04-13_10h50.01.561,replicate_nsd,2023.2.3,59.92170605846319,2024-04-13 10h50.17.469229 -0400,
practice_images/paired_image_25_2.png,19,0,,,,,0,19,19,19,,,,,77.9441499429995,,,,,,,,,,,77.92975925100109,77.92984558999888,77.92985729599968,77.9441499429995,77.9441499429995,78.94527521200143,78.94527521200143,81.94759408499885,81.94759408499885,81.94759408499885,81.94759408499885,81.92866707700159,None,0,None,81.92909156500173,81.92913516599947,,,,,,,,,,,,,,,,,,,,,,,,,,,,,,,,,,,,,,,,,,,,,,,,,,,,,,,,,,,,,75,001,0,,2024-04-13_10h50.01.561,replicate_nsd,2023.2.3,59.92170605846319,2024-04-13 10h50.17.469229 -0400,
,,,,,,,,,,,,,,,,,,,,,,,,,,,,,,,,,,,,,,,,,,,,,,,,,81.92919456500022,81.94759408499885,81.94759408499885,122.11175230200024,4,40.1605425380003,None,,,,,,,,,,,,,,,,,,,,,,,,,,,,,,,,,,,,,,,,,,,,,,,,75,001,0,,2024-04-13_10h50.01.561,replicate_nsd,2023.2.3,59.92170605846319,2024-04-13 10h50.17.469229 -0400,
,,,,,,,,,,,,,,,,,,,,,,,,,,,,,,,,,,,,,,,,,,,,,,,,,,,,,,,,122.11177863899866,122.12834420099898,122.12834420099898,124.56129217399939,equal,2.4317306550001376,None,,,,,,,,,,,,,,,,,,,,,,,,,,,,,,,,,,,,,,,,,75,001,0,,2024-04-13_10h50.01.561,replicate_nsd,2023.2.3,59.92170605846319,2024-04-13 10h50.17.469229 -0400,
images/image_378_seed_1.png,0,0,0,0,0,"[9, 19, 29, 39, 49, 59, 68, 69, 70, 71]",,,,,0,0,0,0,124.67465736099984,,,,,,,,,,,,,,,,,,,,,,,,,,,,,,,,,,,,,,,,,,,,,,,,124.63928927700181,124.63936856700093,124.63937556900055,124.67465736099984,124.67465736099984,125.66166717599845,125.66166717599845,128.66598177700143,128.66598177700143,128.66598177700143,128.66598177700143,128.64531477900164,1,1,2.878473144999589,None,None,128.64824215399858,128.6482846559993,None,128.6489762759993,128.64907345300162,None,128.6497653289989,128.64980334099891,None,,,,,,,,,,,,,,,75,001,0,,2024-04-13_10h50.01.561,replicate_nsd,2023.2.3,59.92170605846319,2024-04-13 10h50.17.469229 -0400,
images/image_554_seed_1.png,1,0,0,0,0,"[9, 19, 29, 39, 49, 59, 68, 69, 70, 71]",,,,,0,1,1,1,128.66598177700143,,,,,,,,,,,,,,,,,,,,,,,,,,,,,,,,,,,,,,,,,,,,,,,,128.65075343300123,128.65086186700137,128.65087038699858,128.66598177700143,128.66598177700143,129.66145564700128,129.66145564700128,132.66629421000107,132.66629421000107,132.66629421000107,132.66629421000107,132.64490664999903,None,0,,,"['1', '1']",132.64718833499865,132.6472298910012,None,132.64733747900027,132.65605501100072,None,132.65614123400155,132.65616399899955,None,"[0.0621780920009769, 0.39415511400147807]","[None, None]",,,,,,,,,,,,,75,001,0,,2024-04-13_10h50.01.561,replicate_nsd,2023.2.3,59.92170605846319,2024-04-13 10h50.17.469229 -0400,
images/image_335_seed_1.png,2,0,0,0,0,"[9, 19, 29, 39, 49, 59, 68, 69, 70, 71]",,,,,0,2,2,2,132.66629421000107,,,,,,,,,,,,,,,,,,,,,,,,,,,,,,,,,,,,,,,,,,,,,,,,132.65639452200048,132.65645778800172,132.656465439999,132.66629421000107,132.66629421000107,133.6613650520012,133.6613650520012,136.66499269300039,136.66499269300039,136.66499269300039,136.66499269300039,136.64480295799876,None,0,,,None,136.64529883000068,136.64534632999857,None,136.64546028800032,136.65304101899892,None,136.65313575799883,136.6531605199998,None,,,,,,,,,,,,,,,75,001,0,,2024-04-13_10h50.01.561,replicate_nsd,2023.2.3,59.92170605846319,2024-04-13 10h50.17.469229 -0400,
images/image_608_seed_1.png,3,0,0,0,0,"[9, 19, 29, 39, 49, 59, 68, 69, 70, 71]",,,,,0,3,3,3,136.66499269300039,,,,,,,,,,,,,,,,,,,,,,,,,,,,,,,,,,,,,,,,,,,,,,,,136.65341444300066,136.65348407900092,136.65349216100003,136.66499269300039,136.66499269300039,137.66141734999837,137.66141734999837,140.66506097299862,140.66506097299862,140.66506097299862,140.66506097299862,140.64480354099942,None,0,,,None,140.64530577800178,140.64535239199904,None,140.64546967099886,140.65424241000073,None,140.65433842999846,140.65436397400117,None,,,,,,,,,,,,,,,75,001,0,,2024-04-13_10h50.01.561,replicate_nsd,2023.2.3,59.92170605846319,2024-04-13 10h50.17.469229 -0400,
images/image_50_seed_1.png,4,0,0,0,0,"[9, 19, 29, 39, 49, 59, 68, 69, 70, 71]",,,,,0,4,4,4,140.66506097299862,,,,,,,,,,,,,,,,,,,,,,,,,,,,,,,,,,,,,,,,,,,,,,,,140.65461823200167,140.6546887500008,140.65469730699988,140.66506097299862,140.66506097299862,141.66145602599863,141.66145602599863,144.66487144499843,144.66487144499843,144.66487144499843,144.66487144499843,144.64497665900126,None,0,,,None,144.6456098330018,144.6456576419987,None,144.6457712400006,144.65365969200138,None,144.65375524200135,144.65378153200072,None,,,,,,,,,,,,,,,75,001,0,,2024-04-13_10h50.01.561,replicate_nsd,2023.2.3,59.92170605846319,2024-04-13 10h50.17.469229 -0400,
images/image_639_seed_1.png,5,0,0,0,0,"[9, 19, 29, 39, 49, 59, 68, 69, 70, 71]",,,,,0,5,5,5,144.66487144499843,,,,,,,,,,,,,,,,,,,,,,,,,,,,,,,,,,,,,,,,,,,,,,,,144.65403922800033,144.65411005699934,144.6541184330017,144.66487144499843,144.66487144499843,145.66141461799998,145.66141461799998,148.66546078100146,148.66546078100146,148.66546078100146,148.66546078100146,148.64478960799897,None,0,,,None,148.64527114800148,148.64531754400014,None,148.6454339789998,148.6520127920012,None,148.652106739999,148.65213263500118,None,,,,,,,,,,,,,,,75,001,0,,2024-04-13_10h50.01.561,replicate_nsd,2023.2.3,59.92170605846319,2024-04-13 10h50.17.469229 -0400,
images/image_447_seed_1.png,6,0,0,0,0,"[9, 19, 29, 39, 49, 59, 68, 69, 70, 71]",,,,,0,6,6,6,148.66546078100146,,,,,,,,,,,,,,,,,,,,,,,,,,,,,,,,,,,,,,,,,,,,,,,,148.6523874279992,148.65245762400082,148.65246646599917,148.66546078100146,148.66546078100146,149.6614044650014,149.6614044650014,152.66468409799927,152.66468409799927,152.66468409799927,152.66468409799927,152.64478133800003,None,0,,,None,152.64531403100045,152.64536222899915,None,152.64547914599825,152.65415644400127,None,152.6542570140009,152.65428270199845,None,,,,,,,,,,,,,,,75,001,0,,2024-04-13_10h50.01.561,replicate_nsd,2023.2.3,59.92170605846319,2024-04-13 10h50.17.469229 -0400,
images/image_176_seed_1.png,7,0,0,0,0,"[9, 19, 29, 39, 49, 59, 68, 69, 70, 71]",,,,,0,7,7,7,152.66468409799927,,,,,,,,,,,,,,,,,,,,,,,,,,,,,,,,,,,,,,,,,,,,,,,,152.65459587299847,152.65465875399968,152.65466635700068,152.66468409799927,152.66468409799927,153.66141366800002,153.66141366800002,156.66528772899983,156.66528772899983,156.66528772899983,156.66528772899983,156.64487188600106,None,0,,,None,156.64537488100177,156.6454216050006,None,156.64555212699997,156.65510351099874,None,156.6551871289994,156.6552095199986,None,,,,,,,,,,,,,,,75,001,0,,2024-04-13_10h50.01.561,replicate_nsd,2023.2.3,59.92170605846319,2024-04-13 10h50.17.469229 -0400,
images/image_329_seed_1.png,8,0,0,0,0,"[9, 19, 29, 39, 49, 59, 68, 69, 70, 71]",,,,,0,8,8,8,156.66528772899983,,,,,,,,,,,,,,,,,,,,,,,,,,,,,,,,,,,,,,,,,,,,,,,,156.65543434899882,156.65549475499938,156.65550188600173,156.66528772899983,156.66528772899983,157.66058182900088,157.66058182900088,160.66180222099865,160.66180222099865,160.66180222099865,160.66180222099865,160.64509791800083,None,0,,,None,160.64566781399844,160.64571717999934,None,160.64583155700166,160.6526536909987,None,160.6527513200017,160.6527774060014,None,,,,,,,,,,,,,,,75,001,0,,2024-04-13_10h50.01.561,replicate_nsd,2023.2.3,59.92170605846319,2024-04-13 10h50.17.469229 -0400,
blank.jpg,9,1,0,0,0,"[9, 19, 29, 39, 49, 59, 68, 69, 70, 71]",,,,,0,9,9,9,160.66180222099865,,,,,,,,,,,,,,,,,,,,,,,,,,,,,,,,,,,,,,,,,,,,,,,,160.65304068800106,160.65311315000145,160.6531216709991,,,,,,,,,160.65585859099883,None,0,,,None,160.65610234600172,164.64479858100094,None,164.6449867980009,164.65304927800025,None,164.65314839200073,164.65317395999955,None,,,160.66180222099865,160.66180222099865,164.66607872000168,164.66607872000168,,,,,,,,,75,001,0,,2024-04-13_10h50.01.561,replicate_nsd,2023.2.3,59.92170605846319,2024-04-13 10h50.17.469229 -0400,
images/image_681_seed_1.png,10,0,0,0,0,"[9, 19, 29, 39, 49, 59, 68, 69, 70, 71]",,,,,0,10,10,10,164.66607872000168,,,,,,,,,,,,,,,,,,,,,,,,,,,,,,,,,,,,,,,,,,,,,,,,164.65343042300083,164.65350076899995,164.6535092740014,164.66607872000168,164.66607872000168,165.6614614700011,165.6614614700011,168.6603413189987,168.6603413189987,168.6603413189987,168.6603413189987,168.64447442500023,None,0,,,None,168.64497536899944,168.64502360099868,None,168.6451389549984,168.64524118199915,None,168.64536097399832,168.64539814700038,None,,,,,,,,,,,,,,,75,001,0,,2024-04-13_10h50.01.561,replicate_nsd,2023.2.3,59.92170605846319,2024-04-13 10h50.17.469229 -0400,
images/image_594_seed_1.png,11,0,0,0,0,"[9, 19, 29, 39, 49, 59, 68, 69, 70, 71]",,,,,0,11,11,11,168.6603413189987,,,,,,,,,,,,,,,,,,,,,,,,,,,,,,,,,,,,,,,,,,,,,,,,168.64577933200053,168.64588649399957,168.645899733001,168.6603413189987,168.6603413189987,169.66089685300176,169.66089685300176,172.66516463099833,172.66516463099833,172.66516463099833,172.66516463099833,172.6448189420007,None,0,,,None,172.64531726199857,172.64536384099847,None,172.64547979800045,172.65194970100129,None,172.65204502000051,172.65207078100138,None,,,,,,,,,,,,,,,75,001,0,,2024-04-13_10h50.01.561,replicate_nsd,2023.2.3,59.92170605846319,2024-04-13 10h50.17.469229 -0400,
images/image_627_seed_1.png,12,0,0,0,0,"[9, 19, 29, 39, 49, 59, 68, 69, 70, 71]",,,,,0,12,12,12,172.66516463099833,,,,,,,,,,,,,,,,,,,,,,,,,,,,,,,,,,,,,,,,,,,,,,,,172.6523244980017,172.65239452400056,172.65240296000047,172.66516463099833,172.66516463099833,173.66135866400145,173.66135866400145,176.6652889020006,176.6652889020006,176.6652889020006,176.6652889020006,176.6446228829991,None,0,,,None,176.64512091900178,176.64516759400067,None,176.64528306600187,176.6533872200016,None,176.65348399800132,176.65350946499893,None,,,,,,,,,,,,,,,75,001,0,,2024-04-13_10h50.01.561,replicate_nsd,2023.2.3,59.92170605846319,2024-04-13 10h50.17.469229 -0400,
images/image_3_seed_1.png,13,0,0,0,0,"[9, 19, 29, 39, 49, 59, 68, 69, 70, 71]",,,,,0,13,13,13,176.6652889020006,,,,,,,,,,,,,,,,,,,,,,,,,,,,,,,,,,,,,,,,,,,,,,,,176.6537647410005,176.6538352690004,176.65384366099897,176.6652889020006,176.6652889020006,177.66137078300017,177.66137078300017,180.66487391600094,180.66487391600094,180.66487391600094,180.66487391600094,180.64487961600025,None,0,,,None,180.64538161300152,180.64542838999841,None,180.64554458099883,180.6528047009997,None,180.6528990959996,180.6529246309983,None,,,,,,,,,,,,,,,75,001,0,,2024-04-13_10h50.01.561,replicate_nsd,2023.2.3,59.92170605846319,2024-04-13 10h50.17.469229 -0400,
images/image_52_seed_1.png,14,0,0,0,0,"[9, 19, 29, 39, 49, 59, 68, 69, 70, 71]",,,,,0,14,14,14,180.66487391600094,,,,,,,,,,,,,,,,,,,,,,,,,,,,,,,,,,,,,,,,,,,,,,,,180.65318075100004,180.65325165299873,180.65325995400053,180.66487391600094,180.66487391600094,181.66151831800016,181.66151831800016,184.66260288500052,184.66260288500052,184.66260288500052,184.66260288500052,184.6441021290011,None,0,,,None,184.6444055790016,184.64443340700018,None,184.64449685200088,184.64995489599823,None,184.65003940599854,184.65006119900136,None,,,,,,,,,,,,,,,75,001,0,,2024-04-13_10h50.01.561,replicate_nsd,2023.2.3,59.92170605846319,2024-04-13 10h50.17.469229 -0400,
images/image_262_seed_1.png,15,0,0,0,0,"[9, 19, 29, 39, 49, 59, 68, 69, 70, 71]",,,,,0,15,15,15,184.66260288500052,,,,,,,,,,,,,,,,,,,,,,,,,,,,,,,,,,,,,,,,,,,,,,,,184.65028716899906,184.65035202799845,184.65035926700148,184.66260288500052,184.66260288500052,185.66139741400184,185.66139741400184,188.6651853600015,188.6651853600015,188.6651853600015,188.6651853600015,188.6466472079992,None,0,,,None,188.6471213440018,188.64716878900072,None,188.64729641500162,188.65434537200053,None,188.65443904999847,188.65446461100146,None,,,,,,,,,,,,,,,75,001,0,,2024-04-13_10h50.01.561,replicate_nsd,2023.2.3,59.92170605846319,2024-04-13 10h50.17.469229 -0400,
images/image_619_seed_1.png,16,0,0,0,0,"[9, 19, 29, 39, 49, 59, 68, 69, 70, 71]",,,,,0,16,16,16,188.6651853600015,,,,,,,,,,,,,,,,,,,,,,,,,,,,,,,,,,,,,,,,,,,,,,,,188.65471787999923,188.65479893500014,188.6548074070015,188.6651853600015,188.6651853600015,189.66175167899928,189.66175167899928,192.66192849000072,192.66192849000072,192.66192849000072,192.66192849000072,192.64659378500073,None,0,,,None,192.64684452100119,192.64686640400032,None,192.6469184439993,192.65218498399918,None,192.65225312099938,192.6522710069985,None,,,,,,,,,,,,,,,75,001,0,,2024-04-13_10h50.01.561,replicate_nsd,2023.2.3,59.92170605846319,2024-04-13 10h50.17.469229 -0400,
images/image_79_seed_1.png,17,0,0,0,0,"[9, 19, 29, 39, 49, 59, 68, 69, 70, 71]",,,,,0,17,17,17,192.66192849000072,,,,,,,,,,,,,,,,,,,,,,,,,,,,,,,,,,,,,,,,,,,,,,,,192.65245390600103,192.65250674599883,192.65251266199994,192.66192849000072,192.66192849000072,193.66160342500007,193.66160342500007,196.66438711799856,196.66438711799856,196.66438711799856,196.66438711799856,196.6449174240006,None,0,,,None,196.64542081000036,196.64546812700064,None,196.64558237099845,196.65228797899908,None,196.65238223100096,196.65240818999882,None,,,,,,,,,,,,,,,75,001,0,,2024-04-13_10h50.01.561,replicate_nsd,2023.2.3,59.92170605846319,2024-04-13 10h50.17.469229 -0400,
images/image_440_seed_1.png,18,0,0,0,0,"[9, 19, 29, 39, 49, 59, 68, 69, 70, 71]",,,,,0,18,18,18,196.66438711799856,,,,,,,,,,,,,,,,,,,,,,,,,,,,,,,,,,,,,,,,,,,,,,,,196.6526665800011,196.65273719000106,196.65274555499855,196.66438711799856,196.66438711799856,197.66147373399872,197.66147373399872,200.66252228200028,200.66252228200028,200.66252228200028,200.66252228200028,200.6449430879984,None,0,,,None,200.6454493989986,200.64549651299967,None,200.64561237399903,200.65353231100016,None,200.65362642900072,200.65365177200147,None,,,,,,,,,,,,,,,75,001,0,,2024-04-13_10h50.01.561,replicate_nsd,2023.2.3,59.92170605846319,2024-04-13 10h50.17.469229 -0400,
blank.jpg,19,1,0,0,0,"[9, 19, 29, 39, 49, 59, 68, 69, 70, 71]",,,,,0,19,19,19,200.66252228200028,,,,,,,,,,,,,,,,,,,,,,,,,,,,,,,,,,,,,,,,,,,,,,,,200.65390688299885,200.65397715500148,200.6539852269998,,,,,,,,,200.65691548000177,None,0,,,None,200.65727403900019,204.64483728100095,None,204.64502862399968,204.6525499390009,None,204.6526516470003,204.65267681499972,None,,,200.66252228200028,200.66252228200028,204.66585153699998,204.66585153699998,,,,,,,,,75,001,0,,2024-04-13_10h50.01.561,replicate_nsd,2023.2.3,59.92170605846319,2024-04-13 10h50.17.469229 -0400,
images/image_127_seed_1.png,20,0,0,0,0,"[9, 19, 29, 39, 49, 59, 68, 69, 70, 71]",,,,,0,20,20,20,204.66585153699998,,,,,,,,,,,,,,,,,,,,,,,,,,,,,,,,,,,,,,,,,,,,,,,,204.6529434360018,204.65301513500162,204.6530240409993,204.66585153699998,204.66585153699998,205.66157612700044,205.66157612700044,208.66128616599963,208.66128616599963,208.66128616599963,208.66128616599963,208.64455334599916,None,0,,,None,208.6450618150011,208.64511068000138,None,208.64522782100175,208.64533268000014,None,208.6454515689984,208.64548862200172,None,,,,,,,,,,,,,,,75,001,0,,2024-04-13_10h50.01.561,replicate_nsd,2023.2.3,59.92170605846319,2024-04-13 10h50.17.469229 -0400,
images/image_435_seed_1.png,21,0,0,0,0,"[9, 19, 29, 39, 49, 59, 68, 69, 70, 71]",,,,,0,21,21,21,208.66128616599963,,,,,,,,,,,,,,,,,,,,,,,,,,,,,,,,,,,,,,,,,,,,,,,,208.64587049699912,208.6459781679987,208.64599142299994,208.66128616599963,208.66128616599963,209.66130798800077,209.66130798800077,212.66475155499938,212.66475155499938,212.66475155499938,212.66475155499938,212.64482432599834,None,0,,,None,212.64530802599984,212.6453551420018,None,212.64549792600155,212.6528130250008,None,212.65290888199888,212.65293454900166,None,,,,,,,,,,,,,,,75,001,0,,2024-04-13_10h50.01.561,replicate_nsd,2023.2.3,59.92170605846319,2024-04-13 10h50.17.469229 -0400,
images/image_510_seed_1.png,22,0,0,0,0,"[9, 19, 29, 39, 49, 59, 68, 69, 70, 71]",,,,,0,22,22,22,212.66475155499938,,,,,,,,,,,,,,,,,,,,,,,,,,,,,,,,,,,,,,,,,,,,,,,,212.65322275400104,212.6532931030015,212.65330148299836,212.66475155499938,212.66475155499938,213.6612167810017,213.6612167810017,216.66620254200097,216.66620254200097,216.66620254200097,216.66620254200097,216.6444859410003,None,0,,,None,216.64498818300126,216.64503459000116,None,216.64515155100162,216.65170826800022,None,216.6518015340007,216.65182645200184,None,,,,,,,,,,,,,,,75,001,0,,2024-04-13_10h50.01.561,replicate_nsd,2023.2.3,59.92170605846319,2024-04-13 10h50.17.469229 -0400,
images/image_604_seed_1.png,23,0,0,0,0,"[9, 19, 29, 39, 49, 59, 68, 69, 70, 71]",,,,,0,23,23,23,216.66620254200097,,,,,,,,,,,,,,,,,,,,,,,,,,,,,,,,,,,,,,,,,,,,,,,,216.65208345200153,216.65215372999955,216.65216213000167,216.66620254200097,216.66620254200097,217.66151941299904,217.66151941299904,220.66589930400005,220.66589930400005,220.66589930400005,220.66589930400005,220.6448476100013,None,0,,,None,220.64535322699885,220.64539989699915,None,220.6455163520004,220.6529989769988,None,220.65309445000094,220.65312009699846,None,,,,,,,,,,,,,,,75,001,0,,2024-04-13_10h50.01.561,replicate_nsd,2023.2.3,59.92170605846319,2024-04-13 10h50.17.469229 -0400,
images/image_568_seed_1.png,24,0,0,0,0,"[9, 19, 29, 39, 49, 59, 68, 69, 70, 71]",,,,,0,24,24,24,220.66589930400005,,,,,,,,,,,,,,,,,,,,,,,,,,,,,,,,,,,,,,,,,,,,,,,,220.65337583699875,220.65344691299833,220.65345532100037,220.66589930400005,220.66589930400005,221.66061560099843,221.66061560099843,224.66549791700163,224.66549791700163,224.66549791700163,224.66549791700163,224.64444272699984,None,0,,,None,224.64495069999975,224.64499850300126,None,224.64511482500166,224.65235866900184,None,224.65245549500105,224.65248112599875,None,,,,,,,,,,,,,,,75,001,0,,2024-04-13_10h50.01.561,replicate_nsd,2023.2.3,59.92170605846319,2024-04-13 10h50.17.469229 -0400,
images/image_121_seed_1.png,25,0,0,0,0,"[9, 19, 29, 39, 49, 59, 68, 69, 70, 71]",,,,,0,25,25,25,224.66549791700163,,,,,,,,,,,,,,,,,,,,,,,,,,,,,,,,,,,,,,,,,,,,,,,,224.6527371480006,224.65280833699944,224.65281686199887,224.66549791700163,224.66549791700163,225.6615287349996,225.6615287349996,228.66593142000056,228.66593142000056,228.66593142000056,228.66593142000056,228.64502019700012,None,0,,,None,228.64554512199902,228.64559239400114,None,228.64570834500046,228.6530519730004,None,228.6531445260007,228.6531696739985,None,,,,,,,,,,,,,,,75,001,0,,2024-04-13_10h50.01.561,replicate_nsd,2023.2.3,59.92170605846319,2024-04-13 10h50.17.469229 -0400,
images/image_348_seed_1.png,26,0,0,0,0,"[9, 19, 29, 39, 49, 59, 68, 69, 70, 71]",,,,,0,26,26,26,228.66593142000056,,,,,,,,,,,,,,,,,,,,,,,,,,,,,,,,,,,,,,,,,,,,,,,,228.6534222299997,228.65349133700147,228.65349940099986,228.66593142000056,228.66593142000056,229.66130834499927,229.66130834499927,232.66530609500114,232.66530609500114,232.66530609500114,232.66530609500114,232.644925736,None,0,,,None,232.64544443799969,232.6454914399983,None,232.6456063279984,232.65273468500163,None,232.6528280499988,232.6528521729997,None,,,,,,,,,,,,,,,75,001,0,,2024-04-13_10h50.01.561,replicate_nsd,2023.2.3,59.92170605846319,2024-04-13 10h50.17.469229 -0400,
images/image_365_seed_1.png,27,0,0,0,0,"[9, 19, 29, 39, 49, 59, 68, 69, 70, 71]",,,,,0,27,27,27,232.66530609500114,,,,,,,,,,,,,,,,,,,,,,,,,,,,,,,,,,,,,,,,,,,,,,,,232.6531022880008,232.65317223999955,232.6531804510014,232.66530609500114,232.66530609500114,233.66121489899888,233.66121489899888,236.66455883199887,236.66455883199887,236.66455883199887,236.66455883199887,236.64498738100156,None,0,,,None,236.64551983500132,236.645567784999,None,236.64568485799828,236.65220644999863,None,236.65230111799974,236.65232658099922,None,,,,,,,,,,,,,,,75,001,0,,2024-04-13_10h50.01.561,replicate_nsd,2023.2.3,59.92170605846319,2024-04-13 10h50.17.469229 -0400,
images/image_116_seed_1.png,28,0,0,0,0,"[9, 19, 29, 39, 49, 59, 68, 69, 70, 71]",,,,,0,28,28,28,236.66455883199887,,,,,,,,,,,,,,,,,,,,,,,,,,,,,,,,,,,,,,,,,,,,,,,,236.6525839040005,236.65265387199906,236.6526623050013,236.66455883199887,236.66455883199887,237.66130230699855,237.66130230699855,240.66093120200094,240.66093120200094,240.66093120200094,240.66093120200094,240.64504672399926,None,0,,,None,240.64557883499947,240.64562712599945,None,240.64574468299907,240.6529829639985,None,240.65307746799954,240.6531032310013,None,,,,,,,,,,,,,,,75,001,0,,2024-04-13_10h50.01.561,replicate_nsd,2023.2.3,59.92170605846319,2024-04-13 10h50.17.469229 -0400,
blank.jpg,29,1,0,0,0,"[9, 19, 29, 39, 49, 59, 68, 69, 70, 71]",,,,,0,29,29,29,240.66093120200094,,,,,,,,,,,,,,,,,,,,,,,,,,,,,,,,,,,,,,,,,,,,,,,,240.65335992199834,240.6534313459997,240.65343978999954,,,,,,,,,240.65543077099937,None,0,,,None,240.65566055700037,244.64409693400012,None,244.64421554,244.64933004200066,None,244.64941126199847,244.64943060199948,None,,,240.66093120200094,240.66093120200094,244.6602449029997,244.6602449029997,,,,,,,,,75,001,0,,2024-04-13_10h50.01.561,replicate_nsd,2023.2.3,59.92170605846319,2024-04-13 10h50.17.469229 -0400,
images/image_463_seed_1.png,30,0,0,0,0,"[9, 19, 29, 39, 49, 59, 68, 69, 70, 71]",,,,,0,30,30,30,244.6602449029997,,,,,,,,,,,,,,,,,,,,,,,,,,,,,,,,,,,,,,,,,,,,,,,,244.64962153799934,244.64967783099928,244.64968397399934,244.6602449029997,244.6602449029997,245.66125281199857,245.66125281199857,248.6607597000002,248.6607597000002,248.6607597000002,248.6607597000002,248.64501444599955,None,0,,,None,248.64554928099824,248.64559880999877,None,248.64571307699953,248.6458200039997,None,248.6459400499989,248.64597620399945,None,,,,,,,,,,,,,,,75,001,0,,2024-04-13_10h50.01.561,replicate_nsd,2023.2.3,59.92170605846319,2024-04-13 10h50.17.469229 -0400,
images/image_631_seed_1.png,31,0,0,0,0,"[9, 19, 29, 39, 49, 59, 68, 69, 70, 71]",,,,,0,31,31,31,248.6607597000002,,,,,,,,,,,,,,,,,,,,,,,,,,,,,,,,,,,,,,,,,,,,,,,,248.6463512980008,248.64645832500173,248.64647108099962,248.6607597000002,248.6607597000002,249.66109976000007,249.66109976000007,252.66495316299915,252.66495316299915,252.66495316299915,252.66495316299915,252.6444215010015,None,0,,,None,252.6449531069993,252.6450011349989,None,252.6451153630005,252.6521933490003,None,252.65230693500052,252.65233387699845,None,,,,,,,,,,,,,,,75,001,0,,2024-04-13_10h50.01.561,replicate_nsd,2023.2.3,59.92170605846319,2024-04-13 10h50.17.469229 -0400,
images/image_119_seed_1.png,32,0,0,0,0,"[9, 19, 29, 39, 49, 59, 68, 69, 70, 71]",,,,,0,32,32,32,252.66495316299915,,,,,,,,,,,,,,,,,,,,,,,,,,,,,,,,,,,,,,,,,,,,,,,,252.65260202900026,252.65268143199864,252.6526899829987,252.66495316299915,252.66495316299915,253.6616117759986,253.6616117759986,256.66476416099977,256.66476416099977,256.66476416099977,256.66476416099977,256.64502834299856,None,0,,,None,256.6456092670014,256.6456578750003,None,256.6457760099984,256.6530866469984,None,256.65318930300054,256.6532147500002,None,,,,,,,,,,,,,,,75,001,0,,2024-04-13_10h50.01.561,replicate_nsd,2023.2.3,59.92170605846319,2024-04-13 10h50.17.469229 -0400,
images/image_180_seed_1.png,33,0,0,0,0,"[9, 19, 29, 39, 49, 59, 68, 69, 70, 71]",,,,,0,33,33,33,256.66476416099977,,,,,,,,,,,,,,,,,,,,,,,,,,,,,,,,,,,,,,,,,,,,,,,,256.6534751250001,256.65354958600074,256.65355790600006,256.66476416099977,256.66476416099977,257.66172549399926,257.66172549399926,260.6670983490003,260.6670983490003,260.6670983490003,260.6670983490003,260.6451847149983,None,0,,,None,260.64571897800124,260.6457668010007,None,260.64588159399864,260.6531270710002,None,260.6532195260006,260.65324434599825,None,,,,,,,,,,,,,,,75,001,0,,2024-04-13_10h50.01.561,replicate_nsd,2023.2.3,59.92170605846319,2024-04-13 10h50.17.469229 -0400,
images/image_241_seed_1.png,34,0,0,0,0,"[9, 19, 29, 39, 49, 59, 68, 69, 70, 71]",,,,,0,34,34,34,260.6670983490003,,,,,,,,,,,,,,,,,,,,,,,,,,,,,,,,,,,,,,,,,,,,,,,,260.65349775900177,260.6535668280012,260.65357514599964,260.6670983490003,260.6670983490003,261.6616461599988,261.6616461599988,264.66644726899904,264.66644726899904,264.66644726899904,264.66644726899904,264.64511221200155,None,0,,,None,264.6456345309998,264.6456816030004,None,264.6457936879997,264.6533825510014,None,264.6534753390006,264.6535006390004,None,,,,,,,,,,,,,,,75,001,0,,2024-04-13_10h50.01.561,replicate_nsd,2023.2.3,59.92170605846319,2024-04-13 10h50.17.469229 -0400,
images/image_680_seed_1.png,35,0,0,0,0,"[9, 19, 29, 39, 49, 59, 68, 69, 70, 71]",,,,,0,35,35,35,264.66644726899904,,,,,,,,,,,,,,,,,,,,,,,,,,,,,,,,,,,,,,,,,,,,,,,,264.6537521680002,264.65382191000026,264.6538301369983,264.66644726899904,264.66644726899904,265.6613689400001,265.6613689400001,268.6656446160014,268.6656446160014,268.6656446160014,268.6656446160014,268.6449079990016,None,0,,,None,268.64547275099903,268.6455203810001,None,268.64563416999954,268.65228933899925,None,268.6523816100016,268.6524061759992,None,,,,,,,,,,,,,,,75,001,0,,2024-04-13_10h50.01.561,replicate_nsd,2023.2.3,59.92170605846319,2024-04-13 10h50.17.469229 -0400,
images/image_118_seed_1.png,36,0,0,0,0,"[9, 19, 29, 39, 49, 59, 68, 69, 70, 71]",,,,,0,36,36,36,268.6656446160014,,,,,,,,,,,,,,,,,,,,,,,,,,,,,,,,,,,,,,,,,,,,,,,,268.6526581520011,268.6527278780013,268.65273617300045,268.6656446160014,268.6656446160014,269.66129964799984,269.66129964799984,272.66437379299896,272.66437379299896,272.66437379299896,272.66437379299896,272.6443928959998,None,0,,,None,272.64495731400166,272.64501187399947,None,272.64512749200003,272.65219510099996,None,272.6522896440001,272.6523143939994,None,,,,,,,,,,,,,,,75,001,0,,2024-04-13_10h50.01.561,replicate_nsd,2023.2.3,59.92170605846319,2024-04-13 10h50.17.469229 -0400,
images/image_392_seed_1.png,37,0,0,0,0,"[9, 19, 29, 39, 49, 59, 68, 69, 70, 71]",,,,,0,37,37,37,272.66437379299896,,,,,,,,,,,,,,,,,,,,,,,,,,,,,,,,,,,,,,,,,,,,,,,,272.65256538000176,272.6526385750003,272.65264669599856,272.66437379299896,272.66437379299896,273.6616619660017,273.6616619660017,276.6647693140003,276.6647693140003,276.6647693140003,276.6647693140003,276.64502879800057,None,0,,,None,276.6455991340008,276.6456470330013,None,276.6457641499983,276.65294975100187,None,276.6530444730015,276.65306985799907,None,,,,,,,,,,,,,,,75,001,0,,2024-04-13_10h50.01.561,replicate_nsd,2023.2.3,59.92170605846319,2024-04-13 10h50.17.469229 -0400,
images/image_576_seed_1.png,38,0,0,0,0,"[9, 19, 29, 39, 49, 59, 68, 69, 70, 71]",,,,,0,38,38,38,276.6647693140003,,,,,,,,,,,,,,,,,,,,,,,,,,,,,,,,,,,,,,,,,,,,,,,,276.6533277009985,276.6533978000007,276.6534062749997,276.6647693140003,276.6647693140003,277.6616640600005,277.6616640600005,280.66154335100146,280.66154335100146,280.66154335100146,280.66154335100146,280.64499182500003,None,0,,,None,280.6455248400016,280.64557333799894,None,280.6456893270006,280.65295758100183,None,280.6530517499996,280.6530771510006,None,,,,,,,,,,,,,,,75,001,0,,2024-04-13_10h50.01.561,replicate_nsd,2023.2.3,59.92170605846319,2024-04-13 10h50.17.469229 -0400,
blank.jpg,39,1,0,0,0,"[9, 19, 29, 39, 49, 59, 68, 69, 70, 71]",,,,,0,39,39,39,280.66154335100146,,,,,,,,,,,,,,,,,,,,,,,,,,,,,,,,,,,,,,,,,,,,,,,,280.65333340600046,280.6534033850003,280.653412044001,,,,,,,,,280.6556721800007,None,0,,,None,280.6559598790009,284.6449663659987,None,284.64518955899985,284.6530365619983,None,284.65314349300024,284.6531708850016,None,,,280.66154335100146,280.66154335100146,284.6663979139994,284.6663979139994,,,,,,,,,75,001,0,,2024-04-13_10h50.01.561,replicate_nsd,2023.2.3,59.92170605846319,2024-04-13 10h50.17.469229 -0400,
images/image_412_seed_1.png,40,0,0,0,0,"[9, 19, 29, 39, 49, 59, 68, 69, 70, 71]",,,,,0,40,40,40,284.6663979139994,,,,,,,,,,,,,,,,,,,,,,,,,,,,,,,,,,,,,,,,,,,,,,,,284.65344083200034,284.65351650700177,284.6535253719994,284.6663979139994,284.6663979139994,285.66155229599826,285.66155229599826,288.66097584100135,288.66097584100135,288.66097584100135,288.66097584100135,288.64500592900004,None,0,,,None,288.6456035320007,288.6456604550003,None,288.6457910179997,288.6459004720018,None,288.64602196600026,288.64605965399824,None,,,,,,,,,,,,,,,75,001,0,,2024-04-13_10h50.01.561,replicate_nsd,2023.2.3,59.92170605846319,2024-04-13 10h50.17.469229 -0400,
images/image_109_seed_1.png,41,0,0,0,0,"[9, 19, 29, 39, 49, 59, 68, 69, 70, 71]",,,,,0,41,41,41,288.66097584100135,,,,,,,,,,,,,,,,,,,,,,,,,,,,,,,,,,,,,,,,,,,,,,,,288.6464467629994,288.646561163001,288.64657421000084,288.66097584100135,288.66097584100135,289.6616090079988,289.6616090079988,292.664227068999,292.664227068999,292.664227068999,292.664227068999,292.6452124969983,None,0,,,None,292.64581950900174,292.6458736679997,None,292.64598721600123,292.653441456001,None,292.6535358000001,292.65356079499907,None,,,,,,,,,,,,,,,75,001,0,,2024-04-13_10h50.01.561,replicate_nsd,2023.2.3,59.92170605846319,2024-04-13 10h50.17.469229 -0400,
images/image_345_seed_1.png,42,0,0,0,0,"[9, 19, 29, 39, 49, 59, 68, 69, 70, 71]",,,,,0,42,42,42,292.664227068999,,,,,,,,,,,,,,,,,,,,,,,,,,,,,,,,,,,,,,,,,,,,,,,,292.6538137179996,292.65388468200035,292.65389296099966,292.664227068999,292.664227068999,293.66158812100184,293.66158812100184,296.6662899360017,296.6662899360017,296.6662899360017,296.6662899360017,296.6448938870017,None,0,,,None,296.64543080899966,296.64548338500026,None,296.6456054629998,296.65285261900135,None,296.65294786199956,296.65297324399944,None,,,,,,,,,,,,,,,75,001,0,,2024-04-13_10h50.01.561,replicate_nsd,2023.2.3,59.92170605846319,2024-04-13 10h50.17.469229 -0400,
images/image_34_seed_1.png,43,0,0,0,0,"[9, 19, 29, 39, 49, 59, 68, 69, 70, 71]",,,,,0,43,43,43,296.6662899360017,,,,,,,,,,,,,,,,,,,,,,,,,,,,,,,,,,,,,,,,,,,,,,,,296.65322816999833,296.6533000189993,296.65330809399893,296.6662899360017,296.6662899360017,297.6613010389992,297.6613010389992,300.66544287099896,300.66544287099896,300.66544287099896,300.66544287099896,300.64525417999903,None,0,,,None,300.645936713001,300.6459893249994,None,300.6461069350007,300.6539706799995,None,300.65408335699976,300.6541110850012,None,,,,,,,,,,,,,,,75,001,0,,2024-04-13_10h50.01.561,replicate_nsd,2023.2.3,59.92170605846319,2024-04-13 10h50.17.469229 -0400,
images/image_697_seed_1.png,44,0,0,0,0,"[9, 19, 29, 39, 49, 59, 68, 69, 70, 71]",,,,,0,44,44,44,300.66544287099896,,,,,,,,,,,,,,,,,,,,,,,,,,,,,,,,,,,,,,,,,,,,,,,,300.65439099500145,300.65447322800173,300.65448211499825,300.66544287099896,300.66544287099896,301.6615928579995,301.6615928579995,304.6646549979996,304.6646549979996,304.6646549979996,304.6646549979996,304.64512001800176,None,0,,,None,304.6456642999983,304.6457153340016,None,304.64583470900106,304.6524882269987,None,304.65258775300026,304.6526147000004,None,,,,,,,,,,,,,,,75,001,0,,2024-04-13_10h50.01.561,replicate_nsd,2023.2.3,59.92170605846319,2024-04-13 10h50.17.469229 -0400,
images/image_282_seed_1.png,45,0,0,0,0,"[9, 19, 29, 39, 49, 59, 68, 69, 70, 71]",,,,,0,45,45,45,304.6646549979996,,,,,,,,,,,,,,,,,,,,,,,,,,,,,,,,,,,,,,,,,,,,,,,,304.65287652199913,304.65295219499967,304.65296080400003,304.6646549979996,304.6646549979996,305.6615743149996,305.6615743149996,308.6605549369997,308.6605549369997,308.6605549369997,308.6605549369997,308.64574361999985,None,0,,,None,308.6461815629991,308.6462052889983,None,308.64625806299955,308.6516216070013,None,308.65170280500024,308.65172093,None,,,,,,,,,,,,,,,75,001,0,,2024-04-13_10h50.01.561,replicate_nsd,2023.2.3,59.92170605846319,2024-04-13 10h50.17.469229 -0400,
images/image_639_seed_1.png,46,0,1,0,0,"[9, 19, 29, 39, 49, 59, 68, 69, 70, 71]",,,,,0,46,46,46,308.6605549369997,,,,,,,,,,,,,,,,,,,,,,,,,,,,,,,,,,,,,,,,,,,,,,,,308.6519094280011,308.6520130509998,308.65201904399873,308.6605549369997,308.6605549369997,309.66148427200096,309.66148427200096,312.6654889169986,312.6654889169986,312.6654889169986,312.6654889169986,312.6449262899987,None,0,,,None,312.64554878499985,312.64560947599966,None,312.64574324500063,312.65285653400133,None,312.65295146800054,312.6529772469985,None,,,,,,,,,,,,,,,75,001,0,,2024-04-13_10h50.01.561,replicate_nsd,2023.2.3,59.92170605846319,2024-04-13 10h50.17.469229 -0400,
images/image_651_seed_1.png,47,0,0,0,0,"[9, 19, 29, 39, 49, 59, 68, 69, 70, 71]",,,,,0,47,47,47,312.6654889169986,,,,,,,,,,,,,,,,,,,,,,,,,,,,,,,,,,,,,,,,,,,,,,,,312.65323270099907,312.65330655599973,312.6533151939984,312.6654889169986,312.6654889169986,313.66065811799854,313.66065811799854,316.66534990199943,316.66534990199943,316.66534990199943,316.66534990199943,316.64502742699915,None,0,,,None,316.645602433,316.64565334000145,None,316.64577078100046,316.6533443900007,None,316.65344474800077,316.6534708770014,None,,,,,,,,,,,,,,,75,001,0,,2024-04-13_10h50.01.561,replicate_nsd,2023.2.3,59.92170605846319,2024-04-13 10h50.17.469229 -0400,
images/image_285_seed_1.png,48,0,0,0,0,"[9, 19, 29, 39, 49, 59, 68, 69, 70, 71]",,,,,0,48,48,48,316.66534990199943,,,,,,,,,,,,,,,,,,,,,,,,,,,,,,,,,,,,,,,,,,,,,,,,316.6537338470007,316.65381162500125,316.65382031400077,316.66534990199943,316.66534990199943,317.6611580780009,317.6611580780009,320.660913099,320.660913099,320.660913099,320.660913099,320.6447317029997,None,0,,,None,320.64526966999983,320.6453198269992,None,320.6454358400006,320.65274937199865,None,320.65285004999896,320.6528768829994,None,,,,,,,,,,,,,,,75,001,0,,2024-04-13_10h50.01.561,replicate_nsd,2023.2.3,59.92170605846319,2024-04-13 10h50.17.469229 -0400,
blank.jpg,49,1,0,0,0,"[9, 19, 29, 39, 49, 59, 68, 69, 70, 71]",,,,,0,49,49,49,320.660913099,,,,,,,,,,,,,,,,,,,,,,,,,,,,,,,,,,,,,,,,,,,,,,,,320.6531426670008,320.6532169650018,320.6532255489983,,,,,,,,,320.65530541000044,None,0,,,None,320.6555415090006,324.6450891679997,None,324.64540992600087,324.65335410699845,None,324.6534494330008,324.6534751190011,None,,,320.660913099,320.660913099,324.665404039999,324.665404039999,,,,,,,,,75,001,0,,2024-04-13_10h50.01.561,replicate_nsd,2023.2.3,59.92170605846319,2024-04-13 10h50.17.469229 -0400,
images/image_373_seed_1.png,50,0,0,0,0,"[9, 19, 29, 39, 49, 59, 68, 69, 70, 71]",,,,,0,50,50,50,324.665404039999,,,,,,,,,,,,,,,,,,,,,,,,,,,,,,,,,,,,,,,,,,,,,,,,324.65373442299824,324.6538063810003,324.65381477199844,324.665404039999,324.665404039999,325.6610910800009,325.6610910800009,328.66027806200145,328.66027806200145,328.66027806200145,328.66027806200145,328.64517280699874,None,0,,,None,328.6458176550004,328.6458680889991,None,328.6459838599985,328.64608465900164,None,328.64620340200054,328.64624008900137,None,,,,,,,,,,,,,,,75,001,0,,2024-04-13_10h50.01.561,replicate_nsd,2023.2.3,59.92170605846319,2024-04-13 10h50.17.469229 -0400,
images/image_403_seed_1.png,51,0,0,0,0,"[9, 19, 29, 39, 49, 59, 68, 69, 70, 71]",,,,,0,51,51,51,328.66027806200145,,,,,,,,,,,,,,,,,,,,,,,,,,,,,,,,,,,,,,,,,,,,,,,,328.6466295479986,328.64673667199895,328.6467497800004,328.66027806200145,328.66027806200145,329.661415691,329.661415691,332.6643793410003,332.6643793410003,332.6643793410003,332.6643793410003,332.64491828799873,None,0,,,None,332.6454913769994,332.64554041299925,None,332.64565589300037,332.65271204799865,None,332.65281816100105,332.65284459599934,None,,,,,,,,,,,,,,,75,001,0,,2024-04-13_10h50.01.561,replicate_nsd,2023.2.3,59.92170605846319,2024-04-13 10h50.17.469229 -0400,
images/image_384_seed_1.png,52,0,0,0,0,"[9, 19, 29, 39, 49, 59, 68, 69, 70, 71]",,,,,0,52,52,52,332.6643793410003,,,,,,,,,,,,,,,,,,,,,,,,,,,,,,,,,,,,,,,,,,,,,,,,332.6531032589992,332.65317541200056,332.6531836009999,332.6643793410003,332.6643793410003,333.66119813000114,333.66119813000114,336.665741787001,336.665741787001,336.665741787001,336.665741787001,336.6446925950004,None,0,,,None,336.64522476500133,336.64527388499846,None,336.64538986499974,336.6526854859985,None,336.6527802470009,336.6528054599985,None,,,,,,,,,,,,,,,75,001,0,,2024-04-13_10h50.01.561,replicate_nsd,2023.2.3,59.92170605846319,2024-04-13 10h50.17.469229 -0400,
images/image_279_seed_1.png,53,0,0,0,0,"[9, 19, 29, 39, 49, 59, 68, 69, 70, 71]",,,,,0,53,53,53,336.665741787001,,,,,,,,,,,,,,,,,,,,,,,,,,,,,,,,,,,,,,,,,,,,,,,,336.6530623949984,336.6531336020016,336.6531418449995,336.665741787001,336.665741787001,337.6609904420002,337.6609904420002,340.66554020699914,340.66554020699914,340.66554020699914,340.66554020699914,340.6447316170015,None,0,,,None,340.6452639989984,340.6453124789987,None,340.6454275569995,340.65275523200035,None,340.65285351299826,340.65287958000044,None,,,,,,,,,,,,,,,75,001,0,,2024-04-13_10h50.01.561,replicate_nsd,2023.2.3,59.92170605846319,2024-04-13 10h50.17.469229 -0400,
images/image_209_seed_1.png,54,0,0,0,0,"[9, 19, 29, 39, 49, 59, 68, 69, 70, 71]",,,,,0,54,54,54,340.66554020699914,,,,,,,,,,,,,,,,,,,,,,,,,,,,,,,,,,,,,,,,,,,,,,,,340.65314323200073,340.6532159269991,340.6532243360016,340.66554020699914,340.66554020699914,341.6612501000018,341.6612501000018,344.6655067499996,344.6655067499996,344.6655067499996,344.6655067499996,344.64480331600134,None,0,,,None,344.64544599299916,344.64549453699874,None,344.64560895400064,344.6533162429987,None,344.653410379,344.6534356150005,None,,,,,,,,,,,,,,,75,001,0,,2024-04-13_10h50.01.561,replicate_nsd,2023.2.3,59.92170605846319,2024-04-13 10h50.17.469229 -0400,
images/image_3_seed_1.png,55,0,1,0,0,"[9, 19, 29, 39, 49, 59, 68, 69, 70, 71]",,,,,0,55,55,55,344.6655067499996,,,,,,,,,,,,,,,,,,,,,,,,,,,,,,,,,,,,,,,,,,,,,,,,344.6536891729993,344.6537594930014,344.65376757099875,344.6655067499996,344.6655067499996,345.6611458920015,345.6611458920015,348.6656534850008,348.6656534850008,348.6656534850008,348.6656534850008,348.6447357290017,None,0,,,None,348.64531365899893,348.64536224699987,None,348.64547883400155,348.6519970189984,None,348.65208988000086,348.65211524500046,None,,,,,,,,,,,,,,,75,001,0,,2024-04-13_10h50.01.561,replicate_nsd,2023.2.3,59.92170605846319,2024-04-13 10h50.17.469229 -0400,
images/image_248_seed_1.png,56,0,0,0,0,"[9, 19, 29, 39, 49, 59, 68, 69, 70, 71]",,,,,0,56,56,56,348.6656534850008,,,,,,,,,,,,,,,,,,,,,,,,,,,,,,,,,,,,,,,,,,,,,,,,348.6523666409994,348.65243767799984,348.65244589400027,348.6656534850008,348.6656534850008,349.66118533199915,349.66118533199915,352.6651548279988,352.6651548279988,352.6651548279988,352.6651548279988,352.6448422430003,None,0,,,None,352.6453653280005,352.64541620900127,None,352.64552982500027,352.6528453179999,None,352.6529535619993,352.6529794279995,None,,,,,,,,,,,,,,,75,001,0,,2024-04-13_10h50.01.561,replicate_nsd,2023.2.3,59.92170605846319,2024-04-13 10h50.17.469229 -0400,
images/image_437_seed_1.png,57,0,0,0,0,"[9, 19, 29, 39, 49, 59, 68, 69, 70, 71]",,,,,0,57,57,57,352.6651548279988,,,,,,,,,,,,,,,,,,,,,,,,,,,,,,,,,,,,,,,,,,,,,,,,352.653247962,352.6533281919983,352.65333662099874,352.6651548279988,352.6651548279988,353.66121848699913,353.66121848699913,356.6660638430003,356.6660638430003,356.6660638430003,356.6660638430003,356.64518523800143,None,0,,,None,356.6458305140004,356.6458794479986,None,356.6459924260016,356.65355946600175,None,356.65365651400134,356.6536832790007,None,,,,,,,,,,,,,,,75,001,0,,2024-04-13_10h50.01.561,replicate_nsd,2023.2.3,59.92170605846319,2024-04-13 10h50.17.469229 -0400,
images/image_363_seed_1.png,58,0,0,0,0,"[9, 19, 29, 39, 49, 59, 68, 69, 70, 71]",,,,,0,58,58,58,356.6660638430003,,,,,,,,,,,,,,,,,,,,,,,,,,,,,,,,,,,,,,,,,,,,,,,,356.65394774499873,356.65402092599834,356.6540296109997,356.6660638430003,356.6660638430003,357.6612089830014,357.6612089830014,360.66090139600055,360.66090139600055,360.66090139600055,360.66090139600055,360.6446402090005,None,0,,,None,360.64518451299955,360.64523492399894,None,360.6453516729998,360.6528910390007,None,360.6529859850016,360.6530116540016,None,,,,,,,,,,,,,,,75,001,0,,2024-04-13_10h50.01.561,replicate_nsd,2023.2.3,59.92170605846319,2024-04-13 10h50.17.469229 -0400,
blank.jpg,59,1,0,0,0,"[9, 19, 29, 39, 49, 59, 68, 69, 70, 71]",,,,,0,59,59,59,360.66090139600055,,,,,,,,,,,,,,,,,,,,,,,,,,,,,,,,,,,,,,,,,,,,,,,,360.65326732000176,360.6533381549998,360.65334656399864,,,,,,,,,360.65535847999854,None,0,,,None,360.65557547799835,364.6445211290011,None,364.6447315430014,364.6521430649991,None,364.652237626,364.6522626400001,None,,,360.66090139600055,360.66090139600055,364.66652834699926,364.66652834699926,,,,,,,,,75,001,0,,2024-04-13_10h50.01.561,replicate_nsd,2023.2.3,59.92170605846319,2024-04-13 10h50.17.469229 -0400,
images/image_561_seed_1.png,60,0,0,0,0,"[9, 19, 29, 39, 49, 59, 68, 69, 70, 71]",,,,,0,60,60,60,364.66652834699926,,,,,,,,,,,,,,,,,,,,,,,,,,,,,,,,,,,,,,,,,,,,,,,,364.65251826000167,364.6525887409989,364.65259713900014,364.66652834699926,364.66652834699926,365.66119792099926,365.66119792099926,368.6603900500013,368.6603900500013,368.6603900500013,368.6603900500013,368.64470901000095,None,0,,,None,368.64523786299833,368.64528751000034,None,368.64540184400175,368.6455029130011,None,368.64562019799996,368.64565657500134,None,,,,,,,,,,,,,,,75,001,0,,2024-04-13_10h50.01.561,replicate_nsd,2023.2.3,59.92170605846319,2024-04-13 10h50.17.469229 -0400,
images/image_272_seed_1.png,61,0,0,0,0,"[9, 19, 29, 39, 49, 59, 68, 69, 70, 71]",,,,,0,61,61,61,368.6603900500013,,,,,,,,,,,,,,,,,,,,,,,,,,,,,,,,,,,,,,,,,,,,,,,,368.6460363570004,368.64614014999825,368.64615301199956,368.6603900500013,368.6603900500013,369.66116418800084,369.66116418800084,372.6648117549994,372.6648117549994,372.6648117549994,372.6648117549994,372.6445889610004,None,0,,,None,372.64511430199855,372.64516440700027,None,372.64528132800115,372.65281875000073,None,372.65292836200024,372.65295605400024,None,,,,,,,,,,,,,,,75,001,0,,2024-04-13_10h50.01.561,replicate_nsd,2023.2.3,59.92170605846319,2024-04-13 10h50.17.469229 -0400,
images/image_422_seed_1.png,62,0,0,0,0,"[9, 19, 29, 39, 49, 59, 68, 69, 70, 71]",,,,,0,62,62,62,372.6648117549994,,,,,,,,,,,,,,,,,,,,,,,,,,,,,,,,,,,,,,,,,,,,,,,,372.6532532700003,372.6533323859985,372.6533415669983,372.6648117549994,372.6648117549994,373.66071745500085,373.66071745500085,376.6644279610009,376.6644279610009,376.6644279610009,376.6644279610009,376.6444863270008,None,0,,,None,376.64502323000124,376.6450720690009,None,376.64518819099976,376.6524721300011,None,376.6525706479988,376.6525967939997,None,,,,,,,,,,,,,,,75,001,0,,2024-04-13_10h50.01.561,replicate_nsd,2023.2.3,59.92170605846319,2024-04-13 10h50.17.469229 -0400,
images/image_385_seed_1.png,63,0,0,0,0,"[9, 19, 29, 39, 49, 59, 68, 69, 70, 71]",,,,,0,63,63,63,376.6644279610009,,,,,,,,,,,,,,,,,,,,,,,,,,,,,,,,,,,,,,,,,,,,,,,,376.6528622959995,376.65293629699954,376.6529447159992,376.6644279610009,376.6644279610009,377.66107972100144,377.66107972100144,380.6652697669997,380.6652697669997,380.6652697669997,380.6652697669997,380.6448560690005,None,0,,,None,380.64539448600044,380.6454437270004,None,380.64555962099985,380.653122224001,None,380.6532205199983,380.6532466300014,None,,,,,,,,,,,,,,,75,001,0,,2024-04-13_10h50.01.561,replicate_nsd,2023.2.3,59.92170605846319,2024-04-13 10h50.17.469229 -0400,
images/image_480_seed_1.png,64,0,0,0,0,"[9, 19, 29, 39, 49, 59, 68, 69, 70, 71]",,,,,0,64,64,64,380.6652697669997,,,,,,,,,,,,,,,,,,,,,,,,,,,,,,,,,,,,,,,,,,,,,,,,380.65351173399904,380.6535855660004,380.653594288,380.6652697669997,380.6652697669997,381.66071797300174,381.66071797300174,384.6647287839987,384.6647287839987,384.6647287839987,384.6647287839987,384.64468571399993,None,0,,,None,384.64528883299863,384.645342961001,None,384.64547281900013,384.65277704099935,None,384.6528715919994,384.6528971939988,None,,,,,,,,,,,,,,,75,001,0,,2024-04-13_10h50.01.561,replicate_nsd,2023.2.3,59.92170605846319,2024-04-13 10h50.17.469229 -0400,
images/image_31_seed_1.png,65,0,0,0,0,"[9, 19, 29, 39, 49, 59, 68, 69, 70, 71]",,,,,0,65,65,65,384.6647287839987,,,,,,,,,,,,,,,,,,,,,,,,,,,,,,,,,,,,,,,,,,,,,,,,384.65315318599824,384.6532263359986,384.6532346560016,384.6647287839987,384.6647287839987,385.6606172710017,385.6606172710017,388.6643375470012,388.6643375470012,388.6643375470012,388.6643375470012,388.64450681499875,None,0,,,None,388.64502988299864,388.64507869299996,None,388.64519340699917,388.6527240579999,None,388.6528200649991,388.65284524600065,None,,,,,,,,,,,,,,,75,001,0,,2024-04-13_10h50.01.561,replicate_nsd,2023.2.3,59.92170605846319,2024-04-13 10h50.17.469229 -0400,
images/image_451_seed_1.png,66,0,0,0,0,"[9, 19, 29, 39, 49, 59, 68, 69, 70, 71]",,,,,0,66,66,66,388.6643375470012,,,,,,,,,,,,,,,,,,,,,,,,,,,,,,,,,,,,,,,,,,,,,,,,388.65315598600137,388.6532270589996,388.6532356239986,388.6643375470012,388.6643375470012,389.661075035001,389.661075035001,392.66462190200036,392.66462190200036,392.66462190200036,392.66462190200036,392.64448626399826,None,0,,,None,392.64502813700165,392.64507843699903,None,392.6452003330014,392.65250229999947,None,392.6526153349987,392.6526425500015,None,,,,,,,,,,,,,,,75,001,0,,2024-04-13_10h50.01.561,replicate_nsd,2023.2.3,59.92170605846319,2024-04-13 10h50.17.469229 -0400,
images/image_434_seed_1.png,67,0,0,0,0,"[9, 19, 29, 39, 49, 59, 68, 69, 70, 71]",,,,,0,67,67,67,392.66462190200036,,,,,,,,,,,,,,,,,,,,,,,,,,,,,,,,,,,,,,,,,,,,,,,,392.65291047999926,392.65299166600016,392.6530004160013,392.66462190200036,392.66462190200036,393.6611047709994,393.6611047709994,396.6619460740003,396.6619460740003,396.6619460740003,396.6619460740003,396.6446544440005,None,0,,,None,396.64519455700065,396.64524398399953,None,396.6453583670009,396.6530612550014,None,396.65315478499906,396.6531800289995,None,,,,,,,,,,,,,,,75,001,0,,2024-04-13_10h50.01.561,replicate_nsd,2023.2.3,59.92170605846319,2024-04-13 10h50.17.469229 -0400,
blank.jpg,68,1,0,0,0,"[9, 19, 29, 39, 49, 59, 68, 69, 70, 71]",,,,,0,68,68,68,396.6619460740003,,,,,,,,,,,,,,,,,,,,,,,,,,,,,,,,,,,,,,,,,,,,,,,,396.6534346139997,396.6535056370012,396.65351416200065,,,,,,,,,396.65625289500167,None,0,,,None,396.65662280299875,400.64458899300007,None,400.64480243100115,400.6522347309983,None,400.6523336169994,400.6523599630018,None,,,396.6619460740003,396.6619460740003,400.66004988200075,400.66004988200075,,,,,,,,,75,001,0,,2024-04-13_10h50.01.561,replicate_nsd,2023.2.3,59.92170605846319,2024-04-13 10h50.17.469229 -0400,
blank.jpg,69,1,0,0,0,"[9, 19, 29, 39, 49, 59, 68, 69, 70, 71]",,,,,0,69,69,69,400.66004988200075,,,,,,,,,,,,,,,,,,,,,,,,,,,,,,,,,,,,,,,,,,,,,,,,400.65263878100086,400.65270983200026,400.6527183500002,,,,,,,,,400.654471206999,None,0,,,None,400.65468996799973,404.64518450299875,None,404.6452836509998,404.6453409450005,None,404.64540230499915,404.6454193319987,None,,,400.66004988200075,400.66004988200075,404.65964801899827,404.65964801899827,,,,,,,,,75,001,0,,2024-04-13_10h50.01.561,replicate_nsd,2023.2.3,59.92170605846319,2024-04-13 10h50.17.469229 -0400,
blank.jpg,70,1,0,0,0,"[9, 19, 29, 39, 49, 59, 68, 69, 70, 71]",,,,,0,70,70,70,404.65964801899827,,,,,,,,,,,,,,,,,,,,,,,,,,,,,,,,,,,,,,,,,,,,,,,,404.64560297700154,404.645649727001,404.6456555190016,,,,,,,,,404.64726060799876,None,0,,,None,404.6474236089998,408.644750929001,None,408.64506756300034,408.645208807,None,408.64534433099834,408.6453831260005,None,,,404.65964801899827,404.65964801899827,408.6610866539995,408.6610866539995,,,,,,,,,75,001,0,,2024-04-13_10h50.01.561,replicate_nsd,2023.2.3,59.92170605846319,2024-04-13 10h50.17.469229 -0400,
blank.jpg,71,1,0,1,0,"[9, 19, 29, 39, 49, 59, 68, 69, 70, 71]",,,,,0,71,71,71,408.6610866539995,,,,,,,,,,,,,,,,,,,,,,,,,,,,,,,,,,,,,,,,,,,,,,,,408.64578123400133,408.6458859580016,408.6458984380006,,,,,,,,,408.64830763400096,None,0,,,None,408.6485883050009,412.6447824759998,None,412.64499091000107,528.6768164700006,4,528.6776418840018,530.7607801960003,equal,,,408.6610866539995,408.6610866539995,412.66047454100044,412.66047454100044,412.66047454100044,412.66047454100044,116.00781251300214,None,528.6934205830003,528.6934205830003,2.0668227749993093,None,75,001,0,,2024-04-13_10h50.01.561,replicate_nsd,2023.2.3,59.92170605846319,2024-04-13 10h50.17.469229 -0400,
,,,,,,,,,,,,,,,530.7761892410017,,,,,,,,,,,,,,,,,,,,,,,,,,,,,,,,,,,,,,,,,,,,,,,,530.7618650580007,530.7619530800002,530.7619619020006,530.7761892410017,530.7761892410017,531.7773922310007,531.7773922310007,,,,,,,,,,,,,,,,,,,,,,,,,,,,,,,,,,,,,,,,,,,
