current_image,trial_index,is_blank_trial,is_repeat,is_new_run,run_num,all_blanks_list,practice.thisRepN,practice.thisTrialN,practice.thisN,practice.thisIndex,loop_all_images.thisRepN,loop_all_images.thisTrialN,loop_all_images.thisN,loop_all_images.thisIndex,thisRow.t,notes,set_up.started,set_up.stopped,practice_continue.started,key_resp_6.started,text_6.started,practice_continue.stopped,key_resp_6.keys,key_resp_6.rt,key_resp_6.duration,set_skips_and_correct_key_2.started,set_skips_and_correct_key_2.stopped,practice_trial.started,polygon_3.started,all_keys_pressed_2.started,image_2.started,press_if_repeat_2.started,image_2.stopped,press_if_repeat_2.stopped,polygon_3.stopped,all_keys_pressed_2.stopped,practice_trial.stopped,press_if_repeat_2.keys,press_if_repeat_2.corr,all_keys_pressed_2.keys,blank_trial_2.started,blank_trial_2.stopped,press_if_repeat_2.rt,press_if_repeat_2.duration,all_keys_pressed_2.rt,all_keys_pressed_2.duration,polygon_4.started,polygon_4.stopped,testing_continue.started,key_resp_7.started,text_7.started,testing_continue.stopped,key_resp_7.keys,key_resp_7.rt,key_resp_7.duration,waiting_fmri.started,key_resp_2.started,text_3.started,waiting_fmri.stopped,key_resp_2.keys,key_resp_2.rt,key_resp_2.duration,set_skips_and_correct_key.started,set_skips_and_correct_key.stopped,trial.started,polygon.started,all_keys_pressed.started,image.started,press_if_repeat.started,image.stopped,press_if_repeat.stopped,polygon.stopped,all_keys_pressed.stopped,trial.stopped,press_if_repeat.keys,press_if_repeat.corr,press_if_repeat.rt,press_if_repeat.duration,all_keys_pressed.keys,blank_trial.started,blank_trial.stopped,blank_trial_testing_keys.keys,run_wait2_2.started,run_wait2_2.stopped,key_resp_5.keys,waiting_fmri_2.started,waiting_fmri_2.stopped,key_resp_4.keys,all_keys_pressed.rt,all_keys_pressed.duration,blank_trial_testing_keys.started,polygon_2.started,blank_trial_testing_keys.stopped,polygon_2.stopped,blank_trial_testing_keys.rt,blank_trial_testing_keys.duration,key_resp_5.started,text_5.started,key_resp_5.rt,key_resp_5.duration,key_resp_4.started,text_4.started,key_resp_4.rt,key_resp_4.duration,participant,session,starting_run,,date,expName,psychopyVersion,frameRate,expStart,
,,,,,,,,,,,,,,,,,0.0317476559998795,0.03187788700006422,0.03188555299993823,0.04882856299991545,0.04882856299991545,2.489562895999825,1,2.4320202220001192,None,,,,,,,,,,,,,,,,,,,,,,,,,,,,,,,,,,,,,,,,,,,,,,,,,,,,,,,,,,,,,,,,,,,,,,,,,,,,,,,,78,001,0,,2024-04-15_09h49.24.726,replicate_nsd,2023.2.3,60.143707133284366,2024-04-15 09h49.36.348692 -0400,
practice_images/paired_image_25_2.png,0,0,,,,,0,0,0,0,,,,,2.522076581999954,,,,,,,,,,,2.4975328790001186,2.497581946000082,2.4975894809999772,2.522076581999954,2.522076581999954,3.5062178180000956,3.5062178180000956,6.505986838999888,6.505986838999888,6.505986838999888,6.505986838999888,6.489272381999854,None,0,None,6.489597073999903,6.489616566999757,,,,,,,,,,,,,,,,,,,,,,,,,,,,,,,,,,,,,,,,,,,,,,,,,,,,,,,,,,,,,,,78,001,0,,2024-04-15_09h49.24.726,replicate_nsd,2023.2.3,60.143707133284366,2024-04-15 09h49.36.348692 -0400,
practice_images/paired_image_18_1.png,1,0,,,,,0,1,1,1,,,,,6.505986838999888,,,,,,,,,,,6.4897505429999,6.48978516599982,6.489790528999947,6.505986838999888,6.505986838999888,7.506369939999786,7.506369939999786,10.509587912999905,10.509587912999905,10.509587912999905,10.509587912999905,10.495715216000008,None,0,None,10.496062286999859,10.496095256999979,,,,,,,,,,,,,,,,,,,,,,,,,,,,,,,,,,,,,,,,,,,,,,,,,,,,,,,,,,,,,,,78,001,0,,2024-04-15_09h49.24.726,replicate_nsd,2023.2.3,60.143707133284366,2024-04-15 09h49.36.348692 -0400,
practice_images/paired_image_12_1.png,2,0,,,,,0,2,2,2,,,,,10.509587912999905,,,,,,,,,,,10.49631839499989,10.49637901899996,10.49638854900013,10.509587912999905,10.509587912999905,11.506735915999798,11.506735915999798,14.505810965999899,14.505810965999899,14.505810965999899,14.505810965999899,14.490353739000057,2,0,None,14.491249043000153,14.491292266000073,2.6436372640000627,None,,,,,,,,,,,,,,,,,,,,,,,,,,,,,,,,,,,,,,,,,,,,,,,,,,,,,,,,,,,,,78,001,0,,2024-04-15_09h49.24.726,replicate_nsd,2023.2.3,60.143707133284366,2024-04-15 09h49.36.348692 -0400,
practice_images/paired_image_20_2.png,3,0,,,,,0,3,3,3,,,,,14.505810965999899,,,,,,,,,,,14.491564656999799,14.491641166000136,14.491653085000053,14.505810965999899,14.505810965999899,15.506698595999751,15.506698595999751,18.50599107400012,18.50599107400012,18.50599107400012,18.50599107400012,18.490073989999928,1,0,"['1', '2', '1', '2', '1', '2']",18.49114781099979,18.491192581000178,2.7985205780000797,None,"[0.023066653999649134, 0.2116725989999395, 0.39678253500005667, 0.6218623689997003, 0.7577600079998774, 0.9686434390000613]","[None, None, None, None, None, None]",,,,,,,,,,,,,,,,,,,,,,,,,,,,,,,,,,,,,,,,,,,,,,,,,,,,,,,,,,,78,001,0,,2024-04-15_09h49.24.726,replicate_nsd,2023.2.3,60.143707133284366,2024-04-15 09h49.36.348692 -0400,
practice_images/paired_image_19_1.png,4,0,,,,,0,4,4,4,,,,,18.50599107400012,,,,,,,,,,,18.49148502900016,18.49156301999983,18.491575382000065,18.50599107400012,18.50599107400012,19.50655894900001,19.50655894900001,22.5076939569999,22.5076939569999,22.5076939569999,22.5076939569999,22.49052047699979,1,0,"['2', '1', '2', '1', '2']",22.49133030699977,22.49137164800004,2.966461012000309,None,"[0.06549011700008123, 0.3246947690004163, 0.4925945450004292, 0.6402022160000342, 0.7922607350001272]","[None, None, None, None, None]",,,,,,,,,,,,,,,,,,,,,,,,,,,,,,,,,,,,,,,,,,,,,,,,,,,,,,,,,,,78,001,0,,2024-04-15_09h49.24.726,replicate_nsd,2023.2.3,60.143707133284366,2024-04-15 09h49.36.348692 -0400,
practice_images/paired_image_4_2.png,5,0,,,,,0,5,5,5,,,,,22.5076939569999,,,,,,,,,,,22.491643145000126,22.49171807699986,22.491730111999914,22.5076939569999,22.5076939569999,23.50665557299999,23.50665557299999,26.50604962999978,26.50604962999978,26.50604962999978,26.50604962999978,26.49027551800009,1,0,"['2', '1', '2', '1']",26.491102801000125,26.4911439829998,2.9346305819999543,None,"[0.0011592460000429128, 0.1975835130001542, 0.6038562120002098, 0.8950801179998962]","[None, None, None, None]",,,,,,,,,,,,,,,,,,,,,,,,,,,,,,,,,,,,,,,,,,,,,,,,,,,,,,,,,,,78,001,0,,2024-04-15_09h49.24.726,replicate_nsd,2023.2.3,60.143707133284366,2024-04-15 09h49.36.348692 -0400,
practice_images/paired_image_22_2.png,6,0,,,,,0,6,6,6,,,,,26.50604962999978,,,,,,,,,,,26.491417446000014,26.49149390699995,26.491505841000162,26.50604962999978,26.50604962999978,27.506683635000172,27.506683635000172,30.50649582699998,30.50649582699998,30.50649582699998,30.50649582699998,30.490440339000088,1,0,"['1', '1', '1', '1']",30.491246503000184,30.491288018999967,0.7286527239998577,None,"[0.19604732800007696, 0.39474305200019444, 0.5894611540002188, 0.8128203340002074]","[None, None, None, None]",,,,,,,,,,,,,,,,,,,,,,,,,,,,,,,,,,,,,,,,,,,,,,,,,,,,,,,,,,,78,001,0,,2024-04-15_09h49.24.726,replicate_nsd,2023.2.3,60.143707133284366,2024-04-15 09h49.36.348692 -0400,
practice_images/paired_image_27_1.png,7,0,,,,,0,7,7,7,,,,,30.50649582699998,,,,,,,,,,,30.491559358999893,30.49163640500001,30.49164861500003,30.50649582699998,30.50649582699998,31.506836359999852,31.506836359999852,34.506226438999875,34.506226438999875,34.506226438999875,34.506226438999875,34.48997191699982,None,0,None,34.49039142099991,34.49043254700018,,,,,,,,,,,,,,,,,,,,,,,,,,,,,,,,,,,,,,,,,,,,,,,,,,,,,,,,,,,,,,,78,001,0,,2024-04-15_09h49.24.726,replicate_nsd,2023.2.3,60.143707133284366,2024-04-15 09h49.36.348692 -0400,
practice_images/paired_image_36_2.png,8,0,,,,,0,8,8,8,,,,,34.506226438999875,,,,,,,,,,,34.49071374799996,34.490789393999876,34.490801807000025,34.506226438999875,34.506226438999875,35.50657656900012,35.50657656900012,38.50941105799984,38.50941105799984,38.50941105799984,38.50941105799984,38.4904860329998,None,0,None,38.4909110399999,38.49095088000013,,,,,,,,,,,,,,,,,,,,,,,,,,,,,,,,,,,,,,,,,,,,,,,,,,,,,,,,,,,,,,,78,001,0,,2024-04-15_09h49.24.726,replicate_nsd,2023.2.3,60.143707133284366,2024-04-15 09h49.36.348692 -0400,
practice_images/paired_image_15_2.png,9,0,,,,,0,9,9,9,,,,,38.50941105799984,,,,,,,,,,,38.49123144899977,38.4913063959998,38.49131805700017,38.50941105799984,38.50941105799984,39.50649918599993,39.50649918599993,42.556708008999976,42.556708008999976,42.556708008999976,42.556708008999976,42.540066733,None,0,None,42.54049259800013,42.540533049999794,,,,,,,,,,,,,,,,,,,,,,,,,,,,,,,,,,,,,,,,,,,,,,,,,,,,,,,,,,,,,,,78,001,0,,2024-04-15_09h49.24.726,replicate_nsd,2023.2.3,60.143707133284366,2024-04-15 09h49.36.348692 -0400,
blank.jpg,10,1,,,,,0,10,10,10,,,,,42.556708008999976,,,,,,,,,,,42.540810318999775,42.54088611099996,42.54089814300005,,,,,,,,,42.54586736600004,None,0,None,42.54618406000009,46.54067312400002,,,,,42.556708008999976,46.55582117299991,,,,,,,,,,,,,,,,,,,,,,,,,,,,,,,,,,,,,,,,,,,,,,,,,,,,,,,,,78,001,0,,2024-04-15_09h49.24.726,replicate_nsd,2023.2.3,60.143707133284366,2024-04-15 09h49.36.348692 -0400,
practice_images/paired_image_2_1.png,11,0,,,,,0,11,11,11,,,,,46.55582117299991,,,,,,,,,,,46.541197851000106,46.54127528900017,46.54128736099983,46.55582117299991,46.55582117299991,47.55648777499982,47.55648777499982,50.55591451700002,50.55591451700002,50.55591451700002,50.55591451700002,50.54020855299996,None,0,None,50.540631502999986,50.54067258399982,,,,,,,,,,,,,,,,,,,,,,,,,,,,,,,,,,,,,,,,,,,,,,,,,,,,,,,,,,,,,,,78,001,0,,2024-04-15_09h49.24.726,replicate_nsd,2023.2.3,60.143707133284366,2024-04-15 09h49.36.348692 -0400,
practice_images/paired_image_21_2.png,12,0,,,,,0,12,12,12,,,,,50.55591451700002,,,,,,,,,,,50.540952169999855,50.54102749799995,50.54103944799999,50.55591451700002,50.55591451700002,51.55673723500013,51.55673723500013,54.55557231600005,54.55557231600005,54.55557231600005,54.55557231600005,54.54035520299976,None,0,None,54.5408933220001,54.54093383500003,,,,,,,,,,,,,,,,,,,,,,,,,,,,,,,,,,,,,,,,,,,,,,,,,,,,,,,,,,,,,,,78,001,0,,2024-04-15_09h49.24.726,replicate_nsd,2023.2.3,60.143707133284366,2024-04-15 09h49.36.348692 -0400,
practice_images/paired_image_15_1.png,13,0,,,,,0,13,13,13,,,,,54.55557231600005,,,,,,,,,,,54.5412132030001,54.54128897600003,54.54130067799997,54.55557231600005,54.55557231600005,55.55666341999995,55.55666341999995,58.555979104000016,58.555979104000016,58.555979104000016,58.555979104000016,58.53977586100018,None,0,None,58.53999082700011,58.54000945400003,,,,,,,,,,,,,,,,,,,,,,,,,,,,,,,,,,,,,,,,,,,,,,,,,,,,,,,,,,,,,,,78,001,0,,2024-04-15_09h49.24.726,replicate_nsd,2023.2.3,60.143707133284366,2024-04-15 09h49.36.348692 -0400,
practice_images/paired_image_6_2.png,14,0,,,,,0,14,14,14,,,,,58.555979104000016,,,,,,,,,,,58.54014535399983,58.54018028600012,58.54018581699984,58.555979104000016,58.555979104000016,59.556359406999945,59.556359406999945,62.55599967299986,62.55599967299986,62.55599967299986,62.55599967299986,62.54023666000012,None,0,None,62.54066252199982,62.54070178599977,,,,,,,,,,,,,,,,,,,,,,,,,,,,,,,,,,,,,,,,,,,,,,,,,,,,,,,,,,,,,,,78,001,0,,2024-04-15_09h49.24.726,replicate_nsd,2023.2.3,60.143707133284366,2024-04-15 09h49.36.348692 -0400,
practice_images/paired_image_29_1.png,15,0,,,,,0,15,15,15,,,,,62.55599967299986,,,,,,,,,,,62.54098095500012,62.541055572000005,62.541067499999826,62.55599967299986,62.55599967299986,63.55652951100001,63.55652951100001,66.55562773500014,66.55562773500014,66.55562773500014,66.55562773500014,66.5403128009998,None,0,None,66.54073535499992,66.54077604999975,,,,,,,,,,,,,,,,,,,,,,,,,,,,,,,,,,,,,,,,,,,,,,,,,,,,,,,,,,,,,,,78,001,0,,2024-04-15_09h49.24.726,replicate_nsd,2023.2.3,60.143707133284366,2024-04-15 09h49.36.348692 -0400,
practice_images/paired_image_24_1.png,16,0,,,,,0,16,16,16,,,,,66.55562773500014,,,,,,,,,,,66.54105765099985,66.54113283000015,66.54114518000006,66.55562773500014,66.55562773500014,67.55679506099978,67.55679506099978,70.55622650899977,70.55622650899977,70.55622650899977,70.55622650899977,70.54010320999987,None,0,None,70.54053156100008,70.54057387800003,,,,,,,,,,,,,,,,,,,,,,,,,,,,,,,,,,,,,,,,,,,,,,,,,,,,,,,,,,,,,,,78,001,0,,2024-04-15_09h49.24.726,replicate_nsd,2023.2.3,60.143707133284366,2024-04-15 09h49.36.348692 -0400,
practice_images/paired_image_28_1.png,17,0,,,,,0,17,17,17,,,,,70.55622650899977,,,,,,,,,,,70.5408544679999,70.54093187099988,70.54094388600015,70.55622650899977,70.55622650899977,71.55654385099979,71.55654385099979,74.55624648799994,74.55624648799994,74.55624648799994,74.55624648799994,74.54013960600014,None,0,None,74.54055830400011,74.54059829700009,,,,,,,,,,,,,,,,,,,,,,,,,,,,,,,,,,,,,,,,,,,,,,,,,,,,,,,,,,,,,,,78,001,0,,2024-04-15_09h49.24.726,replicate_nsd,2023.2.3,60.143707133284366,2024-04-15 09h49.36.348692 -0400,
practice_images/paired_image_36_1.png,18,0,,,,,0,18,18,18,,,,,74.55624648799994,,,,,,,,,,,74.54087516800018,74.54095028599977,74.54096243100003,74.55624648799994,74.55624648799994,75.55670151899994,75.55670151899994,78.55575414399982,78.55575414399982,78.55575414399982,78.55575414399982,78.5402207369998,None,0,None,78.54116224200015,78.54120406399988,,,,,,,,,,,,,,,,,,,,,,,,,,,,,,,,,,,,,,,,,,,,,,,,,,,,,,,,,,,,,,,78,001,0,,2024-04-15_09h49.24.726,replicate_nsd,2023.2.3,60.143707133284366,2024-04-15 09h49.36.348692 -0400,
practice_images/paired_image_30_1.png,19,0,,,,,0,19,19,19,,,,,78.55575414399982,,,,,,,,,,,78.54148326899985,78.54155937299993,78.54157119899992,78.55575414399982,78.55575414399982,79.55645421999998,79.55645421999998,82.55849376900005,82.55849376900005,82.55849376900005,82.55849376900005,82.54018419700014,None,0,None,82.54061590899983,82.54065692099994,,,,,,,,,,,,,,,,,,,,,,,,,,,,,,,,,,,,,,,,,,,,,,,,,,,,,,,,,,,,,,,78,001,0,,2024-04-15_09h49.24.726,replicate_nsd,2023.2.3,60.143707133284366,2024-04-15 09h49.36.348692 -0400,
,,,,,,,,,,,,,,,,,,,,,,,,,,,,,,,,,,,,,,,,,,,,,,,,,82.54071691199988,82.55849376900005,82.55849376900005,124.82283510700017,1,42.25873238599979,None,,,,,,,,,,,,,,,,,,,,,,,,,,,,,,,,,,,,,,,,,,,,,,,,,,78,001,0,,2024-04-15_09h49.24.726,replicate_nsd,2023.2.3,60.143707133284366,2024-04-15 09h49.36.348692 -0400,
,,,,,,,,,,,,,,,,,,,,,,,,,,,,,,,,,,,,,,,,,,,,,,,,,,,,,,,,124.82287511799996,124.8395857800001,124.8395857800001,144.20651922700017,equal,19.36529887200004,None,,,,,,,,,,,,,,,,,,,,,,,,,,,,,,,,,,,,,,,,,,,78,001,0,,2024-04-15_09h49.24.726,replicate_nsd,2023.2.3,60.143707133284366,2024-04-15 09h49.36.348692 -0400,
images/image_247_seed_1.png,0,0,0,0,0,"[9, 19, 29, 39, 49, 59, 68, 69, 70, 71]",,,,,0,0,0,0,144.315439256,,,,,,,,,,,,,,,,,,,,,,,,,,,,,,,,,,,,,,,,,,,,,,,,144.2804746679999,144.28054641400013,144.2805537539998,144.315439256,144.315439256,145.28979705699976,145.28979705699976,148.29425121999975,148.29425121999975,148.29425121999975,148.29425121999975,148.27316406699993,1,1,2.956693347000055,None,None,148.27602914099998,148.27606949599976,None,148.27675045600017,148.276801557,None,148.27748553799984,148.27752211400002,None,,,,,,,,,,,,,,,,,78,001,0,,2024-04-15_09h49.24.726,replicate_nsd,2023.2.3,60.143707133284366,2024-04-15 09h49.36.348692 -0400,
images/image_113_seed_1.png,1,0,0,0,0,"[9, 19, 29, 39, 49, 59, 68, 69, 70, 71]",,,,,0,1,1,1,148.29425121999975,,,,,,,,,,,,,,,,,,,,,,,,,,,,,,,,,,,,,,,,,,,,,,,,148.2784643320001,148.27855012400005,148.27856051900017,148.29425121999975,148.29425121999975,149.2899049759999,149.2899049759999,152.29307230599989,152.29307230599989,152.29307230599989,152.29307230599989,152.2734374239999,1,1,2.8748906880000504,None,"['1', '1', '1']",152.27579921899996,152.27583736099996,None,152.2759404809999,152.275985323,None,152.27607964499975,152.27610805099994,None,"[0.21657278300017424, 0.4623863890001303, 0.7254302870001084]","[None, None, None]",,,,,,,,,,,,,,,78,001,0,,2024-04-15_09h49.24.726,replicate_nsd,2023.2.3,60.143707133284366,2024-04-15 09h49.36.348692 -0400,
images/image_204_seed_1.png,2,0,0,0,0,"[9, 19, 29, 39, 49, 59, 68, 69, 70, 71]",,,,,0,2,2,2,152.29307230599989,,,,,,,,,,,,,,,,,,,,,,,,,,,,,,,,,,,,,,,,,,,,,,,,152.27641372100015,152.27649624100013,152.27650663699978,152.29307230599989,152.29307230599989,153.28984816699995,153.28984816699995,156.2918765720001,156.2918765720001,156.2918765720001,156.2918765720001,156.2731849060001,1,1,2.509965772999749,None,"['1', '1', '1', '1', '1']",156.27403195499983,156.27407757499986,None,156.27419113299993,156.27424645400015,None,156.274359172,156.27440368299995,None,"[0.060500086000047304, 0.2831708780004192, 0.5076374960003704, 0.7353465870000946, 0.9331881480002266]","[None, None, None, None, None]",,,,,,,,,,,,,,,78,001,0,,2024-04-15_09h49.24.726,replicate_nsd,2023.2.3,60.143707133284366,2024-04-15 09h49.36.348692 -0400,
images/image_461_seed_1.png,3,0,0,0,0,"[9, 19, 29, 39, 49, 59, 68, 69, 70, 71]",,,,,0,3,3,3,156.2918765720001,,,,,,,,,,,,,,,,,,,,,,,,,,,,,,,,,,,,,,,,,,,,,,,,156.27478800100016,156.27586386699977,156.27587703500012,156.2918765720001,156.2918765720001,157.2898903780001,157.2898903780001,160.2897154719999,160.2897154719999,160.2897154719999,160.2897154719999,160.27323719700007,None,0,,,None,160.27367102200014,160.27371688499989,None,160.273836931,160.27389084800006,None,160.2740041950001,160.2740422339998,None,,,,,,,,,,,,,,,,,78,001,0,,2024-04-15_09h49.24.726,replicate_nsd,2023.2.3,60.143707133284366,2024-04-15 09h49.36.348692 -0400,
images/image_185_seed_1.png,4,0,0,0,0,"[9, 19, 29, 39, 49, 59, 68, 69, 70, 71]",,,,,0,4,4,4,160.2897154719999,,,,,,,,,,,,,,,,,,,,,,,,,,,,,,,,,,,,,,,,,,,,,,,,160.27443486599986,160.27454257199997,160.2745554520002,160.2897154719999,160.2897154719999,161.28990234699995,161.28990234699995,164.2893419080001,164.2893419080001,164.2893419080001,164.2893419080001,164.2732341179999,1,1,1.6519267189996754,None,['1'],164.27405652900006,164.27410281699986,None,164.2742170759998,164.27427336399978,None,164.27438886599975,164.2744256609999,None,[0.21038511200003995],[None],,,,,,,,,,,,,,,78,001,0,,2024-04-15_09h49.24.726,replicate_nsd,2023.2.3,60.143707133284366,2024-04-15 09h49.36.348692 -0400,
images/image_508_seed_1.png,5,0,0,0,0,"[9, 19, 29, 39, 49, 59, 68, 69, 70, 71]",,,,,0,5,5,5,164.2893419080001,,,,,,,,,,,,,,,,,,,,,,,,,,,,,,,,,,,,,,,,,,,,,,,,164.2748116150001,164.274918351,164.27493185499998,164.2893419080001,164.2893419080001,165.28929311299999,165.28929311299999,168.28909287099987,168.28909287099987,168.28909287099987,168.28909287099987,168.27323987599993,1,1,0.9259619979998206,None,None,168.27384304899988,168.27388769900017,None,168.27399919399977,168.27405311799976,None,168.27416351300008,168.27419917999987,None,,,,,,,,,,,,,,,,,78,001,0,,2024-04-15_09h49.24.726,replicate_nsd,2023.2.3,60.143707133284366,2024-04-15 09h49.36.348692 -0400,
images/image_209_seed_1.png,6,0,0,0,0,"[9, 19, 29, 39, 49, 59, 68, 69, 70, 71]",,,,,0,6,6,6,168.28909287099987,,,,,,,,,,,,,,,,,,,,,,,,,,,,,,,,,,,,,,,,,,,,,,,,168.27458011399995,168.27469292099977,168.2747314899998,168.28909287099987,168.28909287099987,169.28974400800007,169.28974400800007,172.28934035500015,172.28934035500015,172.28934035500015,172.28934035500015,172.27328987600004,None,0,,,None,172.27373062200013,172.2737746140001,None,172.27388990999998,172.2739439930001,None,172.274061049,172.2740976780001,None,,,,,,,,,,,,,,,,,78,001,0,,2024-04-15_09h49.24.726,replicate_nsd,2023.2.3,60.143707133284366,2024-04-15 09h49.36.348692 -0400,
images/image_323_seed_1.png,7,0,0,0,0,"[9, 19, 29, 39, 49, 59, 68, 69, 70, 71]",,,,,0,7,7,7,172.28934035500015,,,,,,,,,,,,,,,,,,,,,,,,,,,,,,,,,,,,,,,,,,,,,,,,172.2744896989998,172.27460191699993,172.27461559199992,172.28934035500015,172.28934035500015,173.2899250549999,173.2899250549999,176.288949839,176.288949839,176.288949839,176.288949839,176.27374083799987,None,0,,,None,176.27430677799975,176.27435051300017,None,176.27446406699983,176.2745180840002,None,176.2746296649998,176.27466607199995,None,,,,,,,,,,,,,,,,,78,001,0,,2024-04-15_09h49.24.726,replicate_nsd,2023.2.3,60.143707133284366,2024-04-15 09h49.36.348692 -0400,
images/image_218_seed_1.png,8,0,0,0,0,"[9, 19, 29, 39, 49, 59, 68, 69, 70, 71]",,,,,0,8,8,8,176.288949839,,,,,,,,,,,,,,,,,,,,,,,,,,,,,,,,,,,,,,,,,,,,,,,,176.27504550999993,176.27515158200003,176.2751645620001,176.288949839,176.288949839,177.2899049980001,177.2899049980001,180.2895006570002,180.2895006570002,180.2895006570002,180.2895006570002,180.2727070760002,1,1,2.8846481170003244,None,None,180.27330956100013,180.27335400599986,None,180.27346620399976,180.27352030400016,None,180.27363191999984,180.2736672699998,None,,,,,,,,,,,,,,,,,78,001,0,,2024-04-15_09h49.24.726,replicate_nsd,2023.2.3,60.143707133284366,2024-04-15 09h49.36.348692 -0400,
blank.jpg,9,1,0,0,0,"[9, 19, 29, 39, 49, 59, 68, 69, 70, 71]",,,,,0,9,9,9,180.2895006570002,,,,,,,,,,,,,,,,,,,,,,,,,,,,,,,,,,,,,,,,,,,,,,,,180.27405123300014,180.27415508500007,180.27416836300017,,,,,,,,,180.27719429599983,None,0,,,None,180.277521041,184.27310545799992,"['1', '1', '1', '1', '1', '1', '1', '1']",184.2751265789998,184.27517897300004,None,184.27528631799987,184.2753174720001,None,,,180.2895006570002,180.2895006570002,184.28997454699993,184.28997454699993,"[0.3213512429997536, 0.7423746439999377, 1.1302170799999658, 1.5469874309997067, 1.9687498029998096, 2.5915232809998088, 3.2262210579997372, 3.826248489000136]","[None, None, None, None, None, None, None, None]",,,,,,,,,78,001,0,,2024-04-15_09h49.24.726,replicate_nsd,2023.2.3,60.143707133284366,2024-04-15 09h49.36.348692 -0400,
images/image_710_seed_1.png,10,0,0,0,0,"[9, 19, 29, 39, 49, 59, 68, 69, 70, 71]",,,,,0,10,10,10,184.28997454699993,,,,,,,,,,,,,,,,,,,,,,,,,,,,,,,,,,,,,,,,,,,,,,,,184.275635598,184.27572116400006,184.27573168599974,184.28997454699993,184.28997454699993,185.28982459600002,185.28982459600002,188.28912206999985,188.28912206999985,188.28912206999985,188.28912206999985,188.27351952499976,1,1,2.9642222389998096,None,"['1', '1', '1']",188.2743329330001,188.27438270699986,None,188.27449398699991,188.27454796199982,None,188.2746608739999,188.27469745899998,None,"[0.17224488500005464, 0.4797926680003002, 0.8433372790000249]","[None, None, None]",,,,,,,,,,,,,,,78,001,0,,2024-04-15_09h49.24.726,replicate_nsd,2023.2.3,60.143707133284366,2024-04-15 09h49.36.348692 -0400,
images/image_187_seed_1.png,11,0,0,0,0,"[9, 19, 29, 39, 49, 59, 68, 69, 70, 71]",,,,,0,11,11,11,188.28912206999985,,,,,,,,,,,,,,,,,,,,,,,,,,,,,,,,,,,,,,,,,,,,,,,,188.27507176000017,188.27517585299984,188.275188781,188.28912206999985,188.28912206999985,189.28941849500006,189.28941849500006,192.289649887,192.289649887,192.289649887,192.289649887,192.27356803500015,1,1,2.8264808859998993,None,"['1', '1']",192.2743931619998,192.2744400460001,None,192.27455269699976,192.27460702999997,None,192.27472181799976,192.27475892899974,None,"[0.37138753299996097, 0.6998593299999811]","[None, None]",,,,,,,,,,,,,,,78,001,0,,2024-04-15_09h49.24.726,replicate_nsd,2023.2.3,60.143707133284366,2024-04-15 09h49.36.348692 -0400,
images/image_677_seed_1.png,12,0,0,0,0,"[9, 19, 29, 39, 49, 59, 68, 69, 70, 71]",,,,,0,12,12,12,192.289649887,,,,,,,,,,,,,,,,,,,,,,,,,,,,,,,,,,,,,,,,,,,,,,,,192.27514247399995,192.27524534299982,192.27525839999998,192.289649887,192.289649887,193.28992444699998,193.28992444699998,196.28907018500013,196.28907018500013,196.28907018500013,196.28907018500013,196.27343604299995,None,0,,,['1'],196.27421274100016,196.2742578309999,None,196.2743692969998,196.27442346399994,None,196.2745339869998,196.27456987999994,None,[0.1473938869999074],[None],,,,,,,,,,,,,,,78,001,0,,2024-04-15_09h49.24.726,replicate_nsd,2023.2.3,60.143707133284366,2024-04-15 09h49.36.348692 -0400,
images/image_390_seed_1.png,13,0,0,0,0,"[9, 19, 29, 39, 49, 59, 68, 69, 70, 71]",,,,,0,13,13,13,196.28907018500013,,,,,,,,,,,,,,,,,,,,,,,,,,,,,,,,,,,,,,,,,,,,,,,,196.2749678549999,196.2750700470001,196.27508339099995,196.28907018500013,196.28907018500013,197.2899446460001,197.2899446460001,200.28927548000001,200.28927548000001,200.28927548000001,200.28927548000001,200.27328516999978,None,0,,,None,200.27370972900007,200.2737527710001,None,200.27386512500016,200.2739188390001,None,200.2740298409999,200.27406576500016,None,,,,,,,,,,,,,,,,,78,001,0,,2024-04-15_09h49.24.726,replicate_nsd,2023.2.3,60.143707133284366,2024-04-15 09h49.36.348692 -0400,
images/image_711_seed_1.png,14,0,0,0,0,"[9, 19, 29, 39, 49, 59, 68, 69, 70, 71]",,,,,0,14,14,14,200.28927548000001,,,,,,,,,,,,,,,,,,,,,,,,,,,,,,,,,,,,,,,,,,,,,,,,200.27444185000013,200.27454704299998,200.27456016099995,200.28927548000001,200.28927548000001,201.2896337950001,201.2896337950001,204.2896445309998,204.2896445309998,204.2896445309998,204.2896445309998,204.27323548100003,None,0,,,None,204.27366144300004,204.2737039560002,None,204.27381866399992,204.27387370899987,None,204.2739858750001,204.27402144999996,None,,,,,,,,,,,,,,,,,78,001,0,,2024-04-15_09h49.24.726,replicate_nsd,2023.2.3,60.143707133284366,2024-04-15 09h49.36.348692 -0400,
images/image_247_seed_1.png,15,0,1,0,0,"[9, 19, 29, 39, 49, 59, 68, 69, 70, 71]",,,,,0,15,15,15,204.2896445309998,,,,,,,,,,,,,,,,,,,,,,,,,,,,,,,,,,,,,,,,,,,,,,,,204.27440312499994,204.27450903599993,204.27452189899986,204.2896445309998,204.2896445309998,205.2895385490001,205.2895385490001,208.2896291699999,208.2896291699999,208.2896291699999,208.2896291699999,208.27315050200014,None,0,,,None,208.2735789200001,208.27362241599985,None,208.27373582400014,208.2737904659998,None,208.27390495999998,208.27394161099983,None,,,,,,,,,,,,,,,,,78,001,0,,2024-04-15_09h49.24.726,replicate_nsd,2023.2.3,60.143707133284366,2024-04-15 09h49.36.348692 -0400,
images/image_528_seed_1.png,16,0,0,0,0,"[9, 19, 29, 39, 49, 59, 68, 69, 70, 71]",,,,,0,16,16,16,208.2896291699999,,,,,,,,,,,,,,,,,,,,,,,,,,,,,,,,,,,,,,,,,,,,,,,,208.2743256409999,208.27443141499998,208.27444435400002,208.2896291699999,208.2896291699999,209.28931861599995,209.28931861599995,212.28933306499994,212.28933306499994,212.28933306499994,212.28933306499994,212.27280238599997,None,0,,,None,212.2732354509999,212.2732795769998,None,212.2733955419999,212.2734517859999,None,212.2735683589999,212.2736057940001,None,,,,,,,,,,,,,,,,,78,001,0,,2024-04-15_09h49.24.726,replicate_nsd,2023.2.3,60.143707133284366,2024-04-15 09h49.36.348692 -0400,
images/image_414_seed_1.png,17,0,0,0,0,"[9, 19, 29, 39, 49, 59, 68, 69, 70, 71]",,,,,0,17,17,17,212.28933306499994,,,,,,,,,,,,,,,,,,,,,,,,,,,,,,,,,,,,,,,,,,,,,,,,212.273994011,212.2741007579998,212.27411411599996,212.28933306499994,212.28933306499994,213.2899917310001,213.2899917310001,216.2898027189999,216.2898027189999,216.2898027189999,216.2898027189999,216.27322230699974,None,0,,,None,216.27365702299994,216.27370106599983,None,216.27381669299984,216.2738720289999,None,216.2739847759999,216.27402088200006,None,,,,,,,,,,,,,,,,,78,001,0,,2024-04-15_09h49.24.726,replicate_nsd,2023.2.3,60.143707133284366,2024-04-15 09h49.36.348692 -0400,
images/image_91_seed_1.png,18,0,0,0,0,"[9, 19, 29, 39, 49, 59, 68, 69, 70, 71]",,,,,0,18,18,18,216.2898027189999,,,,,,,,,,,,,,,,,,,,,,,,,,,,,,,,,,,,,,,,,,,,,,,,216.2744126040002,216.27451947600002,216.27453284900002,216.2898027189999,216.2898027189999,217.28986951399975,217.28986951399975,220.2899793040001,220.2899793040001,220.2899793040001,220.2899793040001,220.27292959399983,None,0,,,None,220.273368139,220.2734129559999,None,220.27352903100018,220.2735835200001,None,220.27369664199978,220.27373265699998,None,,,,,,,,,,,,,,,,,78,001,0,,2024-04-15_09h49.24.726,replicate_nsd,2023.2.3,60.143707133284366,2024-04-15 09h49.36.348692 -0400,
blank.jpg,19,1,0,0,0,"[9, 19, 29, 39, 49, 59, 68, 69, 70, 71]",,,,,0,19,19,19,220.2899793040001,,,,,,,,,,,,,,,,,,,,,,,,,,,,,,,,,,,,,,,,,,,,,,,,220.27411806300006,220.27422514199998,220.27423876600005,,,,,,,,,220.2770335109999,None,0,,,None,220.27734598300003,224.27320794199977,None,224.27342345999978,224.27348210399987,None,224.27360975400006,224.2736477640001,None,,,220.2899793040001,220.2899793040001,224.28955993099999,224.28955993099999,,,,,,,,,,,78,001,0,,2024-04-15_09h49.24.726,replicate_nsd,2023.2.3,60.143707133284366,2024-04-15 09h49.36.348692 -0400,
images/image_684_seed_1.png,20,0,0,0,0,"[9, 19, 29, 39, 49, 59, 68, 69, 70, 71]",,,,,0,20,20,20,224.28955993099999,,,,,,,,,,,,,,,,,,,,,,,,,,,,,,,,,,,,,,,,,,,,,,,,224.2740434709999,224.2741482309998,224.27416107299996,224.28955993099999,224.28955993099999,225.28986890299984,225.28986890299984,228.2888430449998,228.2888430449998,228.2888430449998,228.2888430449998,228.27456531100006,1,1,2.076321822999944,None,None,228.27485173000014,228.27487262400018,None,228.274922652,228.27494862499998,None,228.27499898999986,228.27501549099998,None,,,,,,,,,,,,,,,,,78,001,0,,2024-04-15_09h49.24.726,replicate_nsd,2023.2.3,60.143707133284366,2024-04-15 09h49.36.348692 -0400,
images/image_736_seed_1.png,21,0,0,0,0,"[9, 19, 29, 39, 49, 59, 68, 69, 70, 71]",,,,,0,21,21,21,228.2888430449998,,,,,,,,,,,,,,,,,,,,,,,,,,,,,,,,,,,,,,,,,,,,,,,,228.275193726,228.2752440979998,228.27525008500015,228.2888430449998,228.2888430449998,229.28988003199993,229.28988003199993,232.2894075869999,232.2894075869999,232.2894075869999,232.2894075869999,232.27321091199974,None,0,,,None,232.27363846399976,232.273681742,None,232.2737948969998,232.27384954799982,None,232.27396177399987,232.27399826700002,None,,,,,,,,,,,,,,,,,78,001,0,,2024-04-15_09h49.24.726,replicate_nsd,2023.2.3,60.143707133284366,2024-04-15 09h49.36.348692 -0400,
images/image_76_seed_1.png,22,0,0,0,0,"[9, 19, 29, 39, 49, 59, 68, 69, 70, 71]",,,,,0,22,22,22,232.2894075869999,,,,,,,,,,,,,,,,,,,,,,,,,,,,,,,,,,,,,,,,,,,,,,,,232.27437403300019,232.27445784700012,232.27446842300014,232.2894075869999,232.2894075869999,233.28995865800016,233.28995865800016,236.28939895699978,236.28939895699978,236.28939895699978,236.28939895699978,236.2726575060001,None,0,,,None,236.273085885,236.27312929800019,None,236.27324269100018,236.2732968549999,None,236.27341259900004,236.27344881099998,None,,,,,,,,,,,,,,,,,78,001,0,,2024-04-15_09h49.24.726,replicate_nsd,2023.2.3,60.143707133284366,2024-04-15 09h49.36.348692 -0400,
images/image_427_seed_1.png,23,0,0,0,0,"[9, 19, 29, 39, 49, 59, 68, 69, 70, 71]",,,,,0,23,23,23,236.28939895699978,,,,,,,,,,,,,,,,,,,,,,,,,,,,,,,,,,,,,,,,,,,,,,,,236.2738321480001,236.27393517300015,236.27394831999982,236.28939895699978,236.28939895699978,237.28965712499985,237.28965712499985,240.2894395200001,240.2894395200001,240.2894395200001,240.2894395200001,240.2724699280002,None,0,,,None,240.27272165600016,240.2727460289998,None,240.27280870100003,240.27283996000006,None,240.27290152299975,240.27292132999992,None,,,,,,,,,,,,,,,,,78,001,0,,2024-04-15_09h49.24.726,replicate_nsd,2023.2.3,60.143707133284366,2024-04-15 09h49.36.348692 -0400,
images/image_394_seed_1.png,24,0,0,0,0,"[9, 19, 29, 39, 49, 59, 68, 69, 70, 71]",,,,,0,24,24,24,240.2894395200001,,,,,,,,,,,,,,,,,,,,,,,,,,,,,,,,,,,,,,,,,,,,,,,,240.27313996800012,240.2731997589999,240.27320717200018,240.2894395200001,240.2894395200001,241.2896567570001,241.2896567570001,244.28893141900016,244.28893141900016,244.28893141900016,244.28893141900016,244.27266289599993,None,0,,,None,244.272964667,244.2729939699998,None,244.273068813,244.27310477899982,None,244.27317849200017,244.2732021930001,None,,,,,,,,,,,,,,,,,78,001,0,,2024-04-15_09h49.24.726,replicate_nsd,2023.2.3,60.143707133284366,2024-04-15 09h49.36.348692 -0400,
images/image_138_seed_1.png,25,0,0,0,0,"[9, 19, 29, 39, 49, 59, 68, 69, 70, 71]",,,,,0,25,25,25,244.28893141900016,,,,,,,,,,,,,,,,,,,,,,,,,,,,,,,,,,,,,,,,,,,,,,,,244.27345546700008,244.27353527200012,244.27354397199997,244.28893141900016,244.28893141900016,245.2889936759998,245.2889936759998,248.28882639599988,248.28882639599988,248.28882639599988,248.28882639599988,248.27243990499983,None,0,,,None,248.2726618319998,248.27268277899975,None,248.272733883,248.2727602760001,None,248.27281113499976,248.272828655,None,,,,,,,,,,,,,,,,,78,001,0,,2024-04-15_09h49.24.726,replicate_nsd,2023.2.3,60.143707133284366,2024-04-15 09h49.36.348692 -0400,
images/image_251_seed_1.png,26,0,0,0,0,"[9, 19, 29, 39, 49, 59, 68, 69, 70, 71]",,,,,0,26,26,26,248.28882639599988,,,,,,,,,,,,,,,,,,,,,,,,,,,,,,,,,,,,,,,,,,,,,,,,248.27301085199997,248.2730610489998,248.27306686600014,248.28882639599988,248.28882639599988,249.28980122699977,249.28980122699977,252.28918012999975,252.28918012999975,252.28918012999975,252.28918012999975,252.2731052680001,None,0,,,None,252.27354184900014,252.27358694399982,None,252.27370438299977,252.2737593339998,None,252.27387263699984,252.27391067500002,None,,,,,,,,,,,,,,,,,78,001,0,,2024-04-15_09h49.24.726,replicate_nsd,2023.2.3,60.143707133284366,2024-04-15 09h49.36.348692 -0400,
images/image_313_seed_1.png,27,0,0,0,0,"[9, 19, 29, 39, 49, 59, 68, 69, 70, 71]",,,,,0,27,27,27,252.28918012999975,,,,,,,,,,,,,,,,,,,,,,,,,,,,,,,,,,,,,,,,,,,,,,,,252.27429915899984,252.27440601499984,252.274419502,252.28918012999975,252.28918012999975,253.28980970099974,253.28980970099974,256.28876785500006,256.28876785500006,256.28876785500006,256.28876785500006,256.27314396300017,None,0,,,None,256.27357730999984,256.2736216399999,None,256.27373827600013,256.27379270699976,None,256.27390688800006,256.2739430639999,None,,,,,,,,,,,,,,,,,78,001,0,,2024-04-15_09h49.24.726,replicate_nsd,2023.2.3,60.143707133284366,2024-04-15 09h49.36.348692 -0400,
images/image_369_seed_1.png,28,0,0,0,0,"[9, 19, 29, 39, 49, 59, 68, 69, 70, 71]",,,,,0,28,28,28,256.28876785500006,,,,,,,,,,,,,,,,,,,,,,,,,,,,,,,,,,,,,,,,,,,,,,,,256.2743265660001,256.27443404999985,256.2744475149998,256.28876785500006,256.28876785500006,257.28898611800014,257.28898611800014,260.288912125,260.288912125,260.288912125,260.288912125,260.272689636,None,0,,,None,260.2729971429999,260.2730278610002,None,260.27310463599997,260.2731421459998,None,260.27321831400013,260.2732435459998,None,,,,,,,,,,,,,,,,,78,001,0,,2024-04-15_09h49.24.726,replicate_nsd,2023.2.3,60.143707133284366,2024-04-15 09h49.36.348692 -0400,
blank.jpg,29,1,0,0,0,"[9, 19, 29, 39, 49, 59, 68, 69, 70, 71]",,,,,0,29,29,29,260.288912125,,,,,,,,,,,,,,,,,,,,,,,,,,,,,,,,,,,,,,,,,,,,,,,,260.27350639899987,260.273592644,260.27360184300005,,,,,,,,,260.27579203100004,None,0,,,None,260.27607062000016,264.27308067900003,None,264.27328750900006,264.2733460200002,None,264.27347472400015,264.27351279899995,None,,,260.288912125,260.288912125,264.28887729999997,264.28887729999997,,,,,,,,,,,78,001,0,,2024-04-15_09h49.24.726,replicate_nsd,2023.2.3,60.143707133284366,2024-04-15 09h49.36.348692 -0400,
images/image_684_seed_1.png,30,0,1,0,0,"[9, 19, 29, 39, 49, 59, 68, 69, 70, 71]",,,,,0,30,30,30,264.28887729999997,,,,,,,,,,,,,,,,,,,,,,,,,,,,,,,,,,,,,,,,,,,,,,,,264.27390417900006,264.27400853100016,264.2740219799998,264.28887729999997,264.28887729999997,265.2887700619999,265.2887700619999,268.28929052600006,268.28929052600006,268.28929052600006,268.28929052600006,268.27313227800005,None,0,,,None,268.27355393100015,268.27359865300014,None,268.27371374899985,268.2737679420002,None,268.2738811049999,268.2739182229998,None,,,,,,,,,,,,,,,,,78,001,0,,2024-04-15_09h49.24.726,replicate_nsd,2023.2.3,60.143707133284366,2024-04-15 09h49.36.348692 -0400,
images/image_712_seed_1.png,31,0,0,0,0,"[9, 19, 29, 39, 49, 59, 68, 69, 70, 71]",,,,,0,31,31,31,268.28929052600006,,,,,,,,,,,,,,,,,,,,,,,,,,,,,,,,,,,,,,,,,,,,,,,,268.27429917400013,268.2744033700001,268.27441666000004,268.28929052600006,268.28929052600006,269.2894426150001,269.2894426150001,272.2889707290001,272.2889707290001,272.2889707290001,272.2889707290001,272.27479053399975,None,0,,,None,272.275006029,272.2750262149998,None,272.275217808,272.2752446569998,None,272.2753479859998,272.275379744,None,,,,,,,,,,,,,,,,,78,001,0,,2024-04-15_09h49.24.726,replicate_nsd,2023.2.3,60.143707133284366,2024-04-15 09h49.36.348692 -0400,
images/image_560_seed_1.png,32,0,0,0,0,"[9, 19, 29, 39, 49, 59, 68, 69, 70, 71]",,,,,0,32,32,32,272.2889707290001,,,,,,,,,,,,,,,,,,,,,,,,,,,,,,,,,,,,,,,,,,,,,,,,272.2757208590001,272.2758529859998,272.27585943199983,272.2889707290001,272.2889707290001,273.28989432900016,273.28989432900016,276.28879493800014,276.28879493800014,276.28879493800014,276.28879493800014,276.27320805599993,None,0,,,None,276.2736366439999,276.27367898600005,None,276.2737924610001,276.27384579,None,276.27395886800014,276.2739949249999,None,,,,,,,,,,,,,,,,,78,001,0,,2024-04-15_09h49.24.726,replicate_nsd,2023.2.3,60.143707133284366,2024-04-15 09h49.36.348692 -0400,
images/image_710_seed_1.png,33,0,1,0,0,"[9, 19, 29, 39, 49, 59, 68, 69, 70, 71]",,,,,0,33,33,33,276.28879493800014,,,,,,,,,,,,,,,,,,,,,,,,,,,,,,,,,,,,,,,,,,,,,,,,276.2743747290001,276.2744789190001,276.27449201499985,276.28879493800014,276.28879493800014,277.2898811939999,277.2898811939999,280.289047064,280.289047064,280.289047064,280.289047064,280.272979975,None,0,,,None,280.273411225,280.27345405100004,None,280.2735685729999,280.27362340699983,None,280.27373698300016,280.27377310300017,None,,,,,,,,,,,,,,,,,78,001,0,,2024-04-15_09h49.24.726,replicate_nsd,2023.2.3,60.143707133284366,2024-04-15 09h49.36.348692 -0400,
images/image_253_seed_1.png,34,0,0,0,0,"[9, 19, 29, 39, 49, 59, 68, 69, 70, 71]",,,,,0,34,34,34,280.289047064,,,,,,,,,,,,,,,,,,,,,,,,,,,,,,,,,,,,,,,,,,,,,,,,280.2741577259999,280.27426270900014,280.2742762160001,280.289047064,280.289047064,281.28938629799995,281.28938629799995,284.2887792309998,284.2887792309998,284.2887792309998,284.2887792309998,284.2731600719999,None,0,,,None,284.27359989299975,284.2736454579999,None,284.2737633359998,284.2738178499999,None,284.2739329770002,284.27397115899976,None,,,,,,,,,,,,,,,,,78,001,0,,2024-04-15_09h49.24.726,replicate_nsd,2023.2.3,60.143707133284366,2024-04-15 09h49.36.348692 -0400,
images/image_382_seed_1.png,35,0,0,0,0,"[9, 19, 29, 39, 49, 59, 68, 69, 70, 71]",,,,,0,35,35,35,284.2887792309998,,,,,,,,,,,,,,,,,,,,,,,,,,,,,,,,,,,,,,,,,,,,,,,,284.274366739,284.27447656899994,284.2744899300001,284.2887792309998,284.2887792309998,285.28959394599997,285.28959394599997,288.28860916999975,288.28860916999975,288.28860916999975,288.28860916999975,288.271953898,None,0,,,None,288.27228742299985,288.2723167449999,None,288.27238261,288.272415209,None,288.2724774779999,288.2724978279998,None,,,,,,,,,,,,,,,,,78,001,0,,2024-04-15_09h49.24.726,replicate_nsd,2023.2.3,60.143707133284366,2024-04-15 09h49.36.348692 -0400,
images/image_4_seed_1.png,36,0,0,0,0,"[9, 19, 29, 39, 49, 59, 68, 69, 70, 71]",,,,,0,36,36,36,288.28860916999975,,,,,,,,,,,,,,,,,,,,,,,,,,,,,,,,,,,,,,,,,,,,,,,,288.2727210789999,288.27279474199986,288.2728019309998,288.28860916999975,288.28860916999975,289.289896406,289.289896406,292.28898217100004,292.28898217100004,292.28898217100004,292.28898217100004,292.27286838500004,None,0,,,None,292.2732976729999,292.27334044500003,None,292.2734542889998,292.27350923099993,None,292.2736208299998,292.2736570100001,None,,,,,,,,,,,,,,,,,78,001,0,,2024-04-15_09h49.24.726,replicate_nsd,2023.2.3,60.143707133284366,2024-04-15 09h49.36.348692 -0400,
images/image_428_seed_1.png,37,0,0,0,0,"[9, 19, 29, 39, 49, 59, 68, 69, 70, 71]",,,,,0,37,37,37,292.28898217100004,,,,,,,,,,,,,,,,,,,,,,,,,,,,,,,,,,,,,,,,,,,,,,,,292.27403423099986,292.2741420880002,292.27415503400016,292.28898217100004,292.28898217100004,293.2895235599999,293.2895235599999,296.288945666,296.288945666,296.288945666,296.288945666,296.273175282,None,0,,,None,296.27360323799985,296.27364621000015,None,296.2737613469999,296.27381580400015,None,296.2739288779999,296.2739658249998,None,,,,,,,,,,,,,,,,,78,001,0,,2024-04-15_09h49.24.726,replicate_nsd,2023.2.3,60.143707133284366,2024-04-15 09h49.36.348692 -0400,
images/image_707_seed_1.png,38,0,0,0,0,"[9, 19, 29, 39, 49, 59, 68, 69, 70, 71]",,,,,0,38,38,38,296.288945666,,,,,,,,,,,,,,,,,,,,,,,,,,,,,,,,,,,,,,,,,,,,,,,,296.27434849400015,296.274453472,296.2744665179998,296.288945666,296.288945666,297.2898796129998,297.2898796129998,300.28948970700003,300.28948970700003,300.28948970700003,300.28948970700003,300.27309433599976,None,0,,,None,300.27351961700015,300.2735623089998,None,300.2736780199998,300.27373246800016,None,300.27384510699994,300.27388128799976,None,,,,,,,,,,,,,,,,,78,001,0,,2024-04-15_09h49.24.726,replicate_nsd,2023.2.3,60.143707133284366,2024-04-15 09h49.36.348692 -0400,
blank.jpg,39,1,0,0,0,"[9, 19, 29, 39, 49, 59, 68, 69, 70, 71]",,,,,0,39,39,39,300.28948970700003,,,,,,,,,,,,,,,,,,,,,,,,,,,,,,,,,,,,,,,,,,,,,,,,300.2742617240001,300.27436572299985,300.27437858899975,,,,,,,,,300.2773434800001,None,0,,,None,300.2777470259998,304.2728958160001,None,304.2731076109999,304.2731670100002,None,304.2732981959998,304.27333664499974,None,,,300.28948970700003,300.28948970700003,304.28901157400014,304.28901157400014,,,,,,,,,,,78,001,0,,2024-04-15_09h49.24.726,replicate_nsd,2023.2.3,60.143707133284366,2024-04-15 09h49.36.348692 -0400,
images/image_498_seed_1.png,40,0,0,0,0,"[9, 19, 29, 39, 49, 59, 68, 69, 70, 71]",,,,,0,40,40,40,304.28901157400014,,,,,,,,,,,,,,,,,,,,,,,,,,,,,,,,,,,,,,,,,,,,,,,,304.27373512099985,304.27384064299986,304.2738538570002,304.28901157400014,304.28901157400014,305.28957213600006,305.28957213600006,308.2887509500001,308.2887509500001,308.2887509500001,308.2887509500001,308.2729853420001,None,0,,,None,308.2734103839998,308.27345442800015,None,308.2735693069999,308.273623691,None,308.27374081200014,308.2737775219998,None,,,,,,,,,,,,,,,,,78,001,0,,2024-04-15_09h49.24.726,replicate_nsd,2023.2.3,60.143707133284366,2024-04-15 09h49.36.348692 -0400,
images/image_748_seed_1.png,41,0,0,0,0,"[9, 19, 29, 39, 49, 59, 68, 69, 70, 71]",,,,,0,41,41,41,308.2887509500001,,,,,,,,,,,,,,,,,,,,,,,,,,,,,,,,,,,,,,,,,,,,,,,,308.27416074799976,308.2742647270002,308.27427815400006,308.2887509500001,308.2887509500001,309.28987409699994,309.28987409699994,312.288923783,312.288923783,312.288923783,312.288923783,312.27322242699984,None,0,,,None,312.2736464149998,312.27369011300016,None,312.2738057729998,312.2738594809998,None,312.2739726340001,312.274008334,None,,,,,,,,,,,,,,,,,78,001,0,,2024-04-15_09h49.24.726,replicate_nsd,2023.2.3,60.143707133284366,2024-04-15 09h49.36.348692 -0400,
images/image_440_seed_1.png,42,0,0,0,0,"[9, 19, 29, 39, 49, 59, 68, 69, 70, 71]",,,,,0,42,42,42,312.288923783,,,,,,,,,,,,,,,,,,,,,,,,,,,,,,,,,,,,,,,,,,,,,,,,312.2743923439998,312.27449683199984,312.27451013300015,312.288923783,312.288923783,313.2895055839999,313.2895055839999,316.288845479,316.288845479,316.288845479,316.288845479,316.27315852799984,None,0,,,None,316.273583789,316.27362681700015,None,316.27374168999995,316.273795437,None,316.2739086239999,316.2739444210001,None,,,,,,,,,,,,,,,,,78,001,0,,2024-04-15_09h49.24.726,replicate_nsd,2023.2.3,60.143707133284366,2024-04-15 09h49.36.348692 -0400,
images/image_396_seed_1.png,43,0,0,0,0,"[9, 19, 29, 39, 49, 59, 68, 69, 70, 71]",,,,,0,43,43,43,316.288845479,,,,,,,,,,,,,,,,,,,,,,,,,,,,,,,,,,,,,,,,,,,,,,,,316.2743246509999,316.27442946600013,316.27444271000013,316.288845479,316.288845479,317.2885876629998,317.2885876629998,320.28912091699976,320.28912091699976,320.28912091699976,320.28912091699976,320.272377709,None,0,,,None,320.2725887820002,320.2726089160001,None,320.27266217299984,320.27268897099975,None,320.272740419,320.2727571290002,None,,,,,,,,,,,,,,,,,78,001,0,,2024-04-15_09h49.24.726,replicate_nsd,2023.2.3,60.143707133284366,2024-04-15 09h49.36.348692 -0400,
images/image_534_seed_1.png,44,0,0,0,0,"[9, 19, 29, 39, 49, 59, 68, 69, 70, 71]",,,,,0,44,44,44,320.28912091699976,,,,,,,,,,,,,,,,,,,,,,,,,,,,,,,,,,,,,,,,,,,,,,,,320.272934912,320.2729844589999,320.27299040800017,320.28912091699976,320.28912091699976,321.289565217,321.289565217,324.28871095500017,324.28871095500017,324.28871095500017,324.28871095500017,324.2728399429998,None,0,,,None,324.2732620359998,324.2733052809999,None,324.27341856400017,324.273471988,None,324.2735845399998,324.27362071900006,None,,,,,,,,,,,,,,,,,78,001,0,,2024-04-15_09h49.24.726,replicate_nsd,2023.2.3,60.143707133284366,2024-04-15 09h49.36.348692 -0400,
images/image_663_seed_1.png,45,0,0,0,0,"[9, 19, 29, 39, 49, 59, 68, 69, 70, 71]",,,,,0,45,45,45,324.28871095500017,,,,,,,,,,,,,,,,,,,,,,,,,,,,,,,,,,,,,,,,,,,,,,,,324.2739967719999,324.27410139699987,324.27411419500004,324.28871095500017,324.28871095500017,325.2898296019998,325.2898296019998,328.289399282,328.289399282,328.289399282,328.289399282,328.27254025499997,None,0,,,None,328.27295601900005,328.2729984769999,None,328.27310920399987,328.27316215300016,None,328.27327267400005,328.2733086180001,None,,,,,,,,,,,,,,,,,78,001,0,,2024-04-15_09h49.24.726,replicate_nsd,2023.2.3,60.143707133284366,2024-04-15 09h49.36.348692 -0400,
images/image_547_seed_1.png,46,0,0,0,0,"[9, 19, 29, 39, 49, 59, 68, 69, 70, 71]",,,,,0,46,46,46,328.289399282,,,,,,,,,,,,,,,,,,,,,,,,,,,,,,,,,,,,,,,,,,,,,,,,328.27368150699976,328.273785462,328.27379840899994,328.289399282,328.289399282,329.2894468290001,329.2894468290001,332.2893016329999,332.2893016329999,332.2893016329999,332.2893016329999,332.27274509000017,None,0,,,None,332.2731713899998,332.2732153070001,None,332.2733300509999,332.2733831730002,None,332.273495938,332.2735324569999,None,,,,,,,,,,,,,,,,,78,001,0,,2024-04-15_09h49.24.726,replicate_nsd,2023.2.3,60.143707133284366,2024-04-15 09h49.36.348692 -0400,
images/image_125_seed_1.png,47,0,0,0,0,"[9, 19, 29, 39, 49, 59, 68, 69, 70, 71]",,,,,0,47,47,47,332.2893016329999,,,,,,,,,,,,,,,,,,,,,,,,,,,,,,,,,,,,,,,,,,,,,,,,332.2739134560002,332.274016847,332.2740300549999,332.2893016329999,332.2893016329999,333.2884811109998,333.2884811109998,336.28932291,336.28932291,336.28932291,336.28932291,336.2731350690001,None,0,,,None,336.273561899,336.2736058380001,None,336.27372143799994,336.2737767630001,None,336.2738904349999,336.27392634199987,None,,,,,,,,,,,,,,,,,78,001,0,,2024-04-15_09h49.24.726,replicate_nsd,2023.2.3,60.143707133284366,2024-04-15 09h49.36.348692 -0400,
images/image_478_seed_1.png,48,0,0,0,0,"[9, 19, 29, 39, 49, 59, 68, 69, 70, 71]",,,,,0,48,48,48,336.28932291,,,,,,,,,,,,,,,,,,,,,,,,,,,,,,,,,,,,,,,,,,,,,,,,336.27430468700004,336.274408022,336.2744212749999,336.28932291,336.28932291,337.28949937000016,337.28949937000016,340.28950307000014,340.28950307000014,340.28950307000014,340.28950307000014,340.27286473799995,None,0,,,None,340.27328860499983,340.2733314819998,None,340.27344650299983,340.27349971900003,None,340.27361301400015,340.27364846499995,None,,,,,,,,,,,,,,,,,78,001,0,,2024-04-15_09h49.24.726,replicate_nsd,2023.2.3,60.143707133284366,2024-04-15 09h49.36.348692 -0400,
blank.jpg,49,1,0,0,0,"[9, 19, 29, 39, 49, 59, 68, 69, 70, 71]",,,,,0,49,49,49,340.28950307000014,,,,,,,,,,,,,,,,,,,,,,,,,,,,,,,,,,,,,,,,,,,,,,,,340.2740247309998,340.27413154099986,340.2741449750001,,,,,,,,,340.27670541,None,0,,,None,340.27698972999997,344.2725877849998,None,344.2727985309998,344.27285698000014,None,344.2729848250001,344.27302189700004,None,,,340.28950307000014,340.28950307000014,344.288555737,344.288555737,,,,,,,,,,,78,001,0,,2024-04-15_09h49.24.726,replicate_nsd,2023.2.3,60.143707133284366,2024-04-15 09h49.36.348692 -0400,
images/image_18_seed_1.png,50,0,0,0,0,"[9, 19, 29, 39, 49, 59, 68, 69, 70, 71]",,,,,0,50,50,50,344.288555737,,,,,,,,,,,,,,,,,,,,,,,,,,,,,,,,,,,,,,,,,,,,,,,,344.2734158789999,344.273520232,344.27353328599975,344.288555737,344.288555737,345.2894613180001,345.2894613180001,348.288646557,348.288646557,348.288646557,348.288646557,348.2730686589998,None,0,,,None,348.27362002100017,348.27366394699993,None,348.2737779680001,348.27383184200016,None,348.27394397199987,348.27398094,None,,,,,,,,,,,,,,,,,78,001,0,,2024-04-15_09h49.24.726,replicate_nsd,2023.2.3,60.143707133284366,2024-04-15 09h49.36.348692 -0400,
images/image_431_seed_1.png,51,0,0,0,0,"[9, 19, 29, 39, 49, 59, 68, 69, 70, 71]",,,,,0,51,51,51,348.288646557,,,,,,,,,,,,,,,,,,,,,,,,,,,,,,,,,,,,,,,,,,,,,,,,348.27436136100005,348.2744678109998,348.27448082499996,348.288646557,348.288646557,349.2895080359999,349.2895080359999,352.2892450300001,352.2892450300001,352.2892450300001,352.2892450300001,352.272873503,None,0,,,None,352.27329843100006,352.27334212799997,None,352.273457881,352.2735120030002,None,352.27362528000003,352.2736638709998,None,,,,,,,,,,,,,,,,,78,001,0,,2024-04-15_09h49.24.726,replicate_nsd,2023.2.3,60.143707133284366,2024-04-15 09h49.36.348692 -0400,
images/image_261_seed_1.png,52,0,0,0,0,"[9, 19, 29, 39, 49, 59, 68, 69, 70, 71]",,,,,0,52,52,52,352.2892450300001,,,,,,,,,,,,,,,,,,,,,,,,,,,,,,,,,,,,,,,,,,,,,,,,352.2740470230001,352.27415071099995,352.2741640549998,352.2892450300001,352.2892450300001,353.2894957660001,353.2894957660001,356.2892875140001,356.2892875140001,356.2892875140001,356.2892875140001,356.2727483929998,None,0,,,None,356.27317375899975,356.2732179310001,None,356.2733315830001,356.27338595799984,None,356.27349951099995,356.2735362479998,None,,,,,,,,,,,,,,,,,78,001,0,,2024-04-15_09h49.24.726,replicate_nsd,2023.2.3,60.143707133284366,2024-04-15 09h49.36.348692 -0400,
images/image_8_seed_1.png,53,0,0,0,0,"[9, 19, 29, 39, 49, 59, 68, 69, 70, 71]",,,,,0,53,53,53,356.2892875140001,,,,,,,,,,,,,,,,,,,,,,,,,,,,,,,,,,,,,,,,,,,,,,,,356.27391805900015,356.2740214790001,356.27403435999986,356.2892875140001,356.2892875140001,357.2895185020002,357.2895185020002,360.288696137,360.288696137,360.288696137,360.288696137,360.27271569000004,None,0,,,None,360.2731314839998,360.2731737600002,None,360.27328402800003,360.2733364659998,None,360.27344648200005,360.2734818650001,None,,,,,,,,,,,,,,,,,78,001,0,,2024-04-15_09h49.24.726,replicate_nsd,2023.2.3,60.143707133284366,2024-04-15 09h49.36.348692 -0400,
images/image_242_seed_1.png,54,0,0,0,0,"[9, 19, 29, 39, 49, 59, 68, 69, 70, 71]",,,,,0,54,54,54,360.288696137,,,,,,,,,,,,,,,,,,,,,,,,,,,,,,,,,,,,,,,,,,,,,,,,360.27385444799984,360.27395748499976,360.273970278,360.288696137,360.288696137,361.2910330069999,361.2910330069999,364.28917359900015,364.28917359900015,364.28917359900015,364.28917359900015,364.27279489800003,None,0,,,None,364.2732158409999,364.273258145,None,364.2733703069998,364.2734230410001,None,364.27353362999975,364.2735694439998,None,,,,,,,,,,,,,,,,,78,001,0,,2024-04-15_09h49.24.726,replicate_nsd,2023.2.3,60.143707133284366,2024-04-15 09h49.36.348692 -0400,
images/image_544_seed_1.png,55,0,0,0,0,"[9, 19, 29, 39, 49, 59, 68, 69, 70, 71]",,,,,0,55,55,55,364.28917359900015,,,,,,,,,,,,,,,,,,,,,,,,,,,,,,,,,,,,,,,,,,,,,,,,364.2739432479998,364.2740455889998,364.2740582040001,364.28917359900015,364.28917359900015,365.2895017249998,365.2895017249998,368.2886454049999,368.2886454049999,368.2886454049999,368.2886454049999,368.2728758110002,None,0,,,None,368.27329327200005,368.27333594599986,None,368.27344842499997,368.2735009779999,None,368.2736117559998,368.27364699500004,None,,,,,,,,,,,,,,,,,78,001,0,,2024-04-15_09h49.24.726,replicate_nsd,2023.2.3,60.143707133284366,2024-04-15 09h49.36.348692 -0400,
images/image_699_seed_1.png,56,0,0,0,0,"[9, 19, 29, 39, 49, 59, 68, 69, 70, 71]",,,,,0,56,56,56,368.2886454049999,,,,,,,,,,,,,,,,,,,,,,,,,,,,,,,,,,,,,,,,,,,,,,,,368.2740155209999,368.2741193050001,368.2741320360001,368.2886454049999,368.2886454049999,369.2894656399999,369.2894656399999,372.2886645919998,372.2886645919998,372.2886645919998,372.2886645919998,372.27316633500004,None,0,,,None,372.273588044,372.2736317660001,None,372.2737430369998,372.27379708599983,None,372.27390875799983,372.273945766,None,,,,,,,,,,,,,,,,,78,001,0,,2024-04-15_09h49.24.726,replicate_nsd,2023.2.3,60.143707133284366,2024-04-15 09h49.36.348692 -0400,
images/image_650_seed_1.png,57,0,0,0,0,"[9, 19, 29, 39, 49, 59, 68, 69, 70, 71]",,,,,0,57,57,57,372.2886645919998,,,,,,,,,,,,,,,,,,,,,,,,,,,,,,,,,,,,,,,,,,,,,,,,372.27432578900016,372.27443086699986,372.27444356399974,372.2886645919998,372.2886645919998,373.2894368110001,373.2894368110001,376.2891548550001,376.2891548550001,376.2891548550001,376.2891548550001,376.2727603799999,None,0,,,None,376.27319544600005,376.273240473,None,376.27336023,376.2734146009998,None,376.27352722199976,376.2735645570001,None,,,,,,,,,,,,,,,,,78,001,0,,2024-04-15_09h49.24.726,replicate_nsd,2023.2.3,60.143707133284366,2024-04-15 09h49.36.348692 -0400,
images/image_741_seed_1.png,58,0,0,0,0,"[9, 19, 29, 39, 49, 59, 68, 69, 70, 71]",,,,,0,58,58,58,376.2891548550001,,,,,,,,,,,,,,,,,,,,,,,,,,,,,,,,,,,,,,,,,,,,,,,,376.273963481,376.2740698839998,376.2740835049999,376.2891548550001,376.2891548550001,377.2885013770001,377.2885013770001,380.28879536800014,380.28879536800014,380.28879536800014,380.28879536800014,380.2722224449999,None,0,,,None,380.27247557600003,380.27249943100014,None,380.2725571770002,380.27258697499974,None,380.2726445019998,380.27266342699977,None,,,,,,,,,,,,,,,,,78,001,0,,2024-04-15_09h49.24.726,replicate_nsd,2023.2.3,60.143707133284366,2024-04-15 09h49.36.348692 -0400,
blank.jpg,59,1,0,0,0,"[9, 19, 29, 39, 49, 59, 68, 69, 70, 71]",,,,,0,59,59,59,380.28879536800014,,,,,,,,,,,,,,,,,,,,,,,,,,,,,,,,,,,,,,,,,,,,,,,,380.2728655579999,380.2729237809999,380.2729305130001,,,,,,,,,380.27498658600007,None,0,,,None,380.27519690500003,384.27269948599996,None,384.2729086190002,384.27296786299985,None,384.2730967379998,384.27313479999975,None,,,380.28879536800014,380.28879536800014,384.28888175400016,384.28888175400016,,,,,,,,,,,78,001,0,,2024-04-15_09h49.24.726,replicate_nsd,2023.2.3,60.143707133284366,2024-04-15 09h49.36.348692 -0400,
images/image_683_seed_1.png,60,0,0,0,0,"[9, 19, 29, 39, 49, 59, 68, 69, 70, 71]",,,,,0,60,60,60,384.28888175400016,,,,,,,,,,,,,,,,,,,,,,,,,,,,,,,,,,,,,,,,,,,,,,,,384.2735276650001,384.2736313820001,384.2736443949998,384.28888175400016,384.28888175400016,385.28935021000007,385.28935021000007,388.28913126299994,388.28913126299994,388.28913126299994,388.28913126299994,388.2727246630002,None,0,,,None,388.27314761900016,388.2731915210002,None,388.273304758,388.2733596379999,None,388.2734709319998,388.27350747499986,None,,,,,,,,,,,,,,,,,78,001,0,,2024-04-15_09h49.24.726,replicate_nsd,2023.2.3,60.143707133284366,2024-04-15 09h49.36.348692 -0400,
images/image_124_seed_1.png,61,0,0,0,0,"[9, 19, 29, 39, 49, 59, 68, 69, 70, 71]",,,,,0,61,61,61,388.28913126299994,,,,,,,,,,,,,,,,,,,,,,,,,,,,,,,,,,,,,,,,,,,,,,,,388.27388723800004,388.2739918020002,388.27400513500015,388.28913126299994,388.28913126299994,389.28952892000007,389.28952892000007,392.28857079,392.28857079,392.28857079,392.28857079,392.27274745099976,None,0,,,None,392.27316494900015,392.2732070070001,None,392.27331816100013,392.2733703650001,None,392.27348010700007,392.27351524100004,None,,,,,,,,,,,,,,,,,78,001,0,,2024-04-15_09h49.24.726,replicate_nsd,2023.2.3,60.143707133284366,2024-04-15 09h49.36.348692 -0400,
images/image_340_seed_1.png,62,0,0,0,0,"[9, 19, 29, 39, 49, 59, 68, 69, 70, 71]",,,,,0,62,62,62,392.28857079,,,,,,,,,,,,,,,,,,,,,,,,,,,,,,,,,,,,,,,,,,,,,,,,392.2738869509999,392.27398890099994,392.274001496,392.28857079,392.28857079,393.28950530400016,393.28950530400016,396.28856203899977,396.28856203899977,396.28856203899977,396.28856203899977,396.27281010399975,None,0,,,None,396.27323090699974,396.2732740229999,None,396.273385858,396.27343821700015,None,396.27354887799993,396.2735839920001,None,,,,,,,,,,,,,,,,,78,001,0,,2024-04-15_09h49.24.726,replicate_nsd,2023.2.3,60.143707133284366,2024-04-15 09h49.36.348692 -0400,
images/image_571_seed_1.png,63,0,0,0,0,"[9, 19, 29, 39, 49, 59, 68, 69, 70, 71]",,,,,0,63,63,63,396.28856203899977,,,,,,,,,,,,,,,,,,,,,,,,,,,,,,,,,,,,,,,,,,,,,,,,396.27395731299976,396.2740619790002,396.274074811,396.28856203899977,396.28856203899977,397.28956260099994,397.28956260099994,400.28864447199976,400.28864447199976,400.28864447199976,400.28864447199976,400.27294674999985,None,0,,,None,400.2733706109998,400.27341252199994,None,400.2735256619999,400.273579702,None,400.27369445600016,400.2737304719999,None,,,,,,,,,,,,,,,,,78,001,0,,2024-04-15_09h49.24.726,replicate_nsd,2023.2.3,60.143707133284366,2024-04-15 09h49.36.348692 -0400,
images/image_642_seed_1.png,64,0,0,0,0,"[9, 19, 29, 39, 49, 59, 68, 69, 70, 71]",,,,,0,64,64,64,400.28864447199976,,,,,,,,,,,,,,,,,,,,,,,,,,,,,,,,,,,,,,,,,,,,,,,,400.274103408,400.2742056010002,400.2742183820001,400.28864447199976,400.28864447199976,401.2895314040002,401.2895314040002,404.2885731000001,404.2885731000001,404.2885731000001,404.2885731000001,404.2727813440001,None,0,,,None,404.27320272,404.2732466540001,None,404.2733590449998,404.27341376899994,None,404.27352503400016,404.2735607220002,None,,,,,,,,,,,,,,,,,78,001,0,,2024-04-15_09h49.24.726,replicate_nsd,2023.2.3,60.143707133284366,2024-04-15 09h49.36.348692 -0400,
images/image_438_seed_1.png,65,0,0,0,0,"[9, 19, 29, 39, 49, 59, 68, 69, 70, 71]",,,,,0,65,65,65,404.2885731000001,,,,,,,,,,,,,,,,,,,,,,,,,,,,,,,,,,,,,,,,,,,,,,,,404.27393423700005,404.27403964799987,404.27405265000016,404.2885731000001,404.2885731000001,405.28918019599996,405.28918019599996,408.28902863899975,408.28902863899975,408.28902863899975,408.28902863899975,408.27274147499975,None,0,,,None,408.27315941999996,408.273201602,None,408.2733113469999,408.2733639510002,None,408.27347308599974,408.2735085630002,None,,,,,,,,,,,,,,,,,78,001,0,,2024-04-15_09h49.24.726,replicate_nsd,2023.2.3,60.143707133284366,2024-04-15 09h49.36.348692 -0400,
images/image_150_seed_1.png,66,0,0,0,0,"[9, 19, 29, 39, 49, 59, 68, 69, 70, 71]",,,,,0,66,66,66,408.28902863899975,,,,,,,,,,,,,,,,,,,,,,,,,,,,,,,,,,,,,,,,,,,,,,,,408.27388083999995,408.27398360999996,408.27399630599984,408.28902863899975,408.28902863899975,409.28945777399986,409.28945777399986,412.28931569299993,412.28931569299993,412.28931569299993,412.28931569299993,412.272727304,None,0,,,None,412.27314984899976,412.27319377599997,None,412.273305443,412.27335945100003,None,412.2734715880001,412.2735074510001,None,,,,,,,,,,,,,,,,,78,001,0,,2024-04-15_09h49.24.726,replicate_nsd,2023.2.3,60.143707133284366,2024-04-15 09h49.36.348692 -0400,
images/image_329_seed_1.png,67,0,0,0,0,"[9, 19, 29, 39, 49, 59, 68, 69, 70, 71]",,,,,0,67,67,67,412.28931569299993,,,,,,,,,,,,,,,,,,,,,,,,,,,,,,,,,,,,,,,,,,,,,,,,412.27388936299985,412.27399257399975,412.2740055019999,412.28931569299993,412.28931569299993,413.289528539,413.289528539,416.2886507439998,416.2886507439998,416.2886507439998,416.2886507439998,416.27200541499997,None,0,,,None,416.27221758099995,416.27223766199995,None,416.27228817800005,416.2723137590001,None,416.27236364500004,416.2723801799998,None,,,,,,,,,,,,,,,,,78,001,0,,2024-04-15_09h49.24.726,replicate_nsd,2023.2.3,60.143707133284366,2024-04-15 09h49.36.348692 -0400,
blank.jpg,68,1,0,0,0,"[9, 19, 29, 39, 49, 59, 68, 69, 70, 71]",,,,,0,68,68,68,416.2886507439998,,,,,,,,,,,,,,,,,,,,,,,,,,,,,,,,,,,,,,,,,,,,,,,,416.2725580719998,416.2726372920001,416.27264329599984,,,,,,,,,416.27446894600007,None,0,,,None,416.2746353739999,420.27267166499996,None,420.2728813210001,420.2729408979999,None,420.27306922499974,420.273106742,None,,,416.2886507439998,416.2886507439998,420.2891230649998,420.2891230649998,,,,,,,,,,,78,001,0,,2024-04-15_09h49.24.726,replicate_nsd,2023.2.3,60.143707133284366,2024-04-15 09h49.36.348692 -0400,
blank.jpg,69,1,0,0,0,"[9, 19, 29, 39, 49, 59, 68, 69, 70, 71]",,,,,0,69,69,69,420.2891230649998,,,,,,,,,,,,,,,,,,,,,,,,,,,,,,,,,,,,,,,,,,,,,,,,420.2735161169999,420.2736449979998,420.273658564,,,,,,,,,420.27630647299975,None,0,,,None,420.27665611400016,424.27275407499974,None,424.27297589399996,424.27303508199975,None,424.2731740690001,424.27321241499976,None,,,420.2891230649998,420.2891230649998,424.2891223400002,424.2891223400002,,,,,,,,,,,78,001,0,,2024-04-15_09h49.24.726,replicate_nsd,2023.2.3,60.143707133284366,2024-04-15 09h49.36.348692 -0400,
blank.jpg,70,1,0,0,0,"[9, 19, 29, 39, 49, 59, 68, 69, 70, 71]",,,,,0,70,70,70,424.2891223400002,,,,,,,,,,,,,,,,,,,,,,,,,,,,,,,,,,,,,,,,,,,,,,,,424.2736197989998,424.2737257140002,424.27373857099974,,,,,,,,,424.2761756589998,None,0,,,None,424.27646526599983,428.27273528700016,None,428.2729502450002,428.2730088100002,None,428.2731350549998,428.2731715599998,None,,,424.2891223400002,424.2891223400002,428.2891852550001,428.2891852550001,,,,,,,,,,,78,001,0,,2024-04-15_09h49.24.726,replicate_nsd,2023.2.3,60.143707133284366,2024-04-15 09h49.36.348692 -0400,
blank.jpg,71,1,0,1,0,"[9, 19, 29, 39, 49, 59, 68, 69, 70, 71]",,,,,0,71,71,71,428.2891852550001,,,,,,,,,,,,,,,,,,,,,,,,,,,,,,,,,,,,,,,,,,,,,,,,428.27356350499986,428.27366578500005,428.27367835199993,,,,,,,,,428.27633071599985,None,0,,,None,428.276842019,432.27245269700006,None,432.27266474399994,451.6386254419999,1,451.6393284669998,453.45618682099985,equal,,,428.2891852550001,428.2891852550001,432.29184192699995,432.29184192699995,,,432.29184192699995,432.29184192699995,19.345409240999743,None,451.65554030500016,451.65554030500016,1.7972720510001636,None,78,001,0,,2024-04-15_09h49.24.726,replicate_nsd,2023.2.3,60.143707133284366,2024-04-15 09h49.36.348692 -0400,
,,,,,,,,,,,,,,,453.4720440870001,,,,,,,,,,,,,,,,,,,,,,,,,,,,,,,,,,,,,,,,,,,,,,,,453.45719843100005,453.4572689669999,453.4572778060001,453.4720440870001,453.4720440870001,454.47251924600005,454.47251924600005,,,,,,,,,,,,,,,,,,,,,,,,,,,,,,,,,,,,,,,,,,,,,
