current_image,is_repeat,trial_index,is_blank_trial,is_new_run,run_num,all_blanks_list,loop_all_images.thisRepN,loop_all_images.thisTrialN,loop_all_images.thisN,loop_all_images.thisIndex,thisRow.t,notes,set_up.started,set_up.stopped,waiting_fmri.started,key_resp_2.started,text_3.started,waiting_fmri.stopped,key_resp_2.keys,key_resp_2.rt,key_resp_2.duration,set_skips_and_correct_key.started,set_skips_and_correct_key.stopped,trial.started,polygon.started,image.started,press_if_repeat.started,image.stopped,press_if_repeat.stopped,polygon.stopped,trial.stopped,press_if_repeat.keys,press_if_repeat.corr,blank_trial.started,blank_trial.stopped,key_resp_3.keys,run_wait2.started,run_wait2.stopped,key_resp_5.keys,waiting_fmri_2.started,waiting_fmri_2.stopped,key_resp_4.keys,key_resp_3.started,polygon_2.started,key_resp_3.stopped,polygon_2.stopped,press_if_repeat.rt,press_if_repeat.duration,participant,session,starting_run,,date,expName,psychopyVersion,frameRate,expStart,
,,,,,,,,,,,,,0.0411527770002067,0.041319407000628416,0.04133355900012248,0.051814291000482626,0.051814291000482626,1.1628837780008325,5,1.0993968419998055,None,,,,,,,,,,,,,,,,,,,,,,,,,,,,7,001,0,,2024-04-11_13h12.16.292,replicate_nsd,2023.2.3,60.1587818856173,2024-04-11 13h12.27.451245 -0400,
images/pair04 copy.jpg,0,0,0,0,0,"[9, 19, 29, 39, 49, 59, 68, 69, 70, 71]",0,0,0,0,1.2919061820002753,,,,,,,,,,,1.2455738510006995,1.2456382190002842,1.245645285000137,1.2919061820002753,2.2791626520001955,2.2791626520001955,5.2784546700004285,5.2784546700004285,5.2784546700004285,5.262943327000357,None,0,5.264392035000128,5.264441788000113,None,5.2652904420001505,5.265329841000494,None,5.266068871000243,5.266106521999973,None,,,,,,,7,001,0,,2024-04-11_13h12.16.292,replicate_nsd,2023.2.3,60.1587818856173,2024-04-11 13h12.27.451245 -0400,
images/7_28 copy.jpg,0,1,0,0,0,"[9, 19, 29, 39, 49, 59, 68, 69, 70, 71]",0,1,1,1,5.2784546700004285,,,,,,,,,,,5.267049625000254,5.267122002000178,5.26713121100056,5.2784546700004285,6.279489317000298,6.279489317000298,9.278995590000704,9.278995590000704,9.278995590000704,9.26299064200066,None,0,9.263321712000106,9.263364918000661,None,9.263482899000337,9.263523007000003,None,9.263634901000842,9.26367047200074,None,,,,,,,7,001,0,,2024-04-11_13h12.16.292,replicate_nsd,2023.2.3,60.1587818856173,2024-04-11 13h12.27.451245 -0400,
images/20_40 copy 7.jpg,0,2,0,0,0,"[9, 19, 29, 39, 49, 59, 68, 69, 70, 71]",0,2,2,2,9.278995590000704,,,,,,,,,,,9.264048904000447,9.264135986000838,9.264147361000141,9.278995590000704,10.279526782000175,10.279526782000175,13.27899260400045,13.27899260400045,13.27899260400045,13.263010771000154,None,0,13.263342167000701,13.263384933999987,None,13.263500951000424,13.26354090300083,None,13.263653355000315,13.263689382000848,None,,,,,,,7,001,0,,2024-04-11_13h12.16.292,replicate_nsd,2023.2.3,60.1587818856173,2024-04-11 13h12.27.451245 -0400,
images/12_28 copy 2.jpg,0,3,0,0,0,"[9, 19, 29, 39, 49, 59, 68, 69, 70, 71]",0,3,3,3,13.27899260400045,,,,,,,,,,,13.264065676000428,13.264154401000269,13.264165990000038,13.27899260400045,14.279546321999987,14.279546321999987,17.279172945000028,17.279172945000028,17.279172945000028,17.26294221900025,None,0,17.263278021000588,17.263320763000593,None,17.263436733000162,17.263477445000717,None,17.263587058000667,17.26362185400012,None,,,,,,,7,001,0,,2024-04-11_13h12.16.292,replicate_nsd,2023.2.3,60.1587818856173,2024-04-11 13h12.27.451245 -0400,
images/8_40 copy 2.jpg,0,4,0,0,0,"[9, 19, 29, 39, 49, 59, 68, 69, 70, 71]",0,4,4,4,17.279172945000028,,,,,,,,,,,17.264000226999997,17.26408992300003,17.264101656000093,17.279172945000028,18.28356630899998,18.28356630899998,21.278994558000704,21.278994558000704,21.278994558000704,21.262923427000715,None,0,21.263256069000818,21.263298554000357,None,21.263421233000372,21.263461358000313,None,21.26357225600077,21.263607663000585,None,,,,,,,7,001,0,,2024-04-11_13h12.16.292,replicate_nsd,2023.2.3,60.1587818856173,2024-04-11 13h12.27.451245 -0400,
images/23_0 copy 4.jpg,0,5,0,0,0,"[9, 19, 29, 39, 49, 59, 68, 69, 70, 71]",0,5,5,5,21.278994558000704,,,,,,,,,,,21.26398093500029,21.26406868900085,21.264080205000027,21.278994558000704,22.27915496500009,22.27915496500009,25.278907015000186,25.278907015000186,25.278907015000186,25.262935951000145,None,0,25.263267850000375,25.26331209,None,25.26342937300069,25.263469395000357,None,25.263579806000052,25.26361577500029,None,,,,,,,7,001,0,,2024-04-11_13h12.16.292,replicate_nsd,2023.2.3,60.1587818856173,2024-04-11 13h12.27.451245 -0400,
images/12_0 copy.jpg,0,6,0,0,0,"[9, 19, 29, 39, 49, 59, 68, 69, 70, 71]",0,6,6,6,25.278907015000186,,,,,,,,,,,25.26399200600008,25.264079770000535,25.264091250000092,25.278907015000186,26.278917280000314,26.278917280000314,29.32920427099998,29.32920427099998,29.32920427099998,29.312995138000588,None,0,29.313326631000564,29.313369107000653,None,29.313501958000415,29.313544121000632,None,29.313657326000794,29.31369361600082,None,,,,,,,7,001,0,,2024-04-11_13h12.16.292,replicate_nsd,2023.2.3,60.1587818856173,2024-04-11 13h12.27.451245 -0400,
images/23_28 copy 2.jpg,0,7,0,0,0,"[9, 19, 29, 39, 49, 59, 68, 69, 70, 71]",0,7,7,7,29.32920427099998,,,,,,,,,,,29.31427121500019,29.314359771000454,29.314371673000096,29.32920427099998,30.329445464000855,30.329445464000855,33.32924757100045,33.32924757100045,33.32924757100045,33.313130853000075,None,0,33.313568848000614,33.313611544000196,None,33.313726973000485,33.31376762900072,None,33.31387823100067,33.313913518000845,None,,,,,,,7,001,0,,2024-04-11_13h12.16.292,replicate_nsd,2023.2.3,60.1587818856173,2024-04-11 13h12.27.451245 -0400,
images/6_28 copy 4.jpg,0,8,0,0,0,"[9, 19, 29, 39, 49, 59, 68, 69, 70, 71]",0,8,8,8,33.32924757100045,,,,,,,,,,,33.314292342000044,33.31438028299999,33.31439210000008,33.32924757100045,34.32952053200006,34.32952053200006,37.32897514400065,37.32897514400065,37.32897514400065,37.31265000800067,None,0,37.31297735500084,37.31302147800034,None,37.3131414190002,37.313183214000674,None,37.31329623200054,37.313332506000734,None,,,,,,,7,001,0,,2024-04-11_13h12.16.292,replicate_nsd,2023.2.3,60.1587818856173,2024-04-11 13h12.27.451245 -0400,
images/blank.jpg,0,9,1,0,0,"[9, 19, 29, 39, 49, 59, 68, 69, 70, 71]",0,9,9,9,37.32897514400065,,,,,,,,,,,37.313714499000525,37.3138041910006,37.31381584000064,,,,,,,37.317132081000636,None,0,37.31734853100079,41.31287583200083,None,41.31309083500037,41.31313534900073,None,41.313261094000154,41.31329874200037,None,37.32897514400065,37.32897514400065,41.32918428500034,41.32918428500034,,,7,001,0,,2024-04-11_13h12.16.292,replicate_nsd,2023.2.3,60.1587818856173,2024-04-11 13h12.27.451245 -0400,
images/pair03 copy.jpg,0,10,0,0,0,"[9, 19, 29, 39, 49, 59, 68, 69, 70, 71]",0,10,10,10,41.32918428500034,,,,,,,,,,,41.313695575000565,41.313782530000026,41.31379445100083,41.32918428500034,42.33047919800083,42.33047919800083,45.329227557000195,45.329227557000195,45.329227557000195,45.31295428800058,None,0,45.31328373100041,45.31332713400025,None,45.31344544900003,45.313485815000604,None,45.31359582700043,45.31363159100056,None,,,,,,,7,001,0,,2024-04-11_13h12.16.292,replicate_nsd,2023.2.3,60.1587818856173,2024-04-11 13h12.27.451245 -0400,
images/24_28.jpg,0,11,0,0,0,"[9, 19, 29, 39, 49, 59, 68, 69, 70, 71]",0,11,11,11,45.329227557000195,,,,,,,,,,,45.31400721299997,45.31409590400017,45.314107882000826,45.329227557000195,46.32944816500003,46.32944816500003,49.329152556000736,49.329152556000736,49.329152556000736,49.31300159800048,None,0,49.313332255000205,49.313374672000464,None,49.31349119200058,49.313532013999975,None,49.31364213100005,49.31367772700014,None,,,,,,,7,001,0,,2024-04-11_13h12.16.292,replicate_nsd,2023.2.3,60.1587818856173,2024-04-11 13h12.27.451245 -0400,
images/14_28 copy 7.jpg,0,12,0,0,0,"[9, 19, 29, 39, 49, 59, 68, 69, 70, 71]",0,12,12,12,49.329152556000736,,,,,,,,,,,49.31405395100046,49.31414040600066,49.31415221300085,49.329152556000736,50.3294814030005,50.3294814030005,53.32896048400016,53.32896048400016,53.32896048400016,53.31291451600009,None,0,53.3132433260007,53.31328569500056,None,53.313401902000805,53.313442528999985,None,53.31355337200057,53.31358984000053,None,,,,,,,7,001,0,,2024-04-11_13h12.16.292,replicate_nsd,2023.2.3,60.1587818856173,2024-04-11 13h12.27.451245 -0400,
images/11_28 copy 2.jpg,0,13,0,0,0,"[9, 19, 29, 39, 49, 59, 68, 69, 70, 71]",0,13,13,13,53.32896048400016,,,,,,,,,,,53.31396837900047,53.31405567800084,53.314067154999975,53.32896048400016,54.32942459500009,54.32942459500009,57.32886148700072,57.32886148700072,57.32886148700072,57.31288487200072,None,0,57.31321397500051,57.31325674800064,None,57.31337306700061,57.313413704000595,None,57.313524804000735,57.31356054200023,None,,,,,,,7,001,0,,2024-04-11_13h12.16.292,replicate_nsd,2023.2.3,60.1587818856173,2024-04-11 13h12.27.451245 -0400,
images/pair08 copy.jpg,0,14,0,0,0,"[9, 19, 29, 39, 49, 59, 68, 69, 70, 71]",0,14,14,14,57.32886148700072,,,,,,,,,,,57.313940301,57.31402815000001,57.314039851000416,57.32886148700072,58.32943335800064,58.32943335800064,61.328866770000786,61.328866770000786,61.328866770000786,61.312605129000076,None,0,61.312935702000686,61.31297848700069,None,61.31309742100075,61.31313883100029,None,61.31325074100005,61.31328653300079,None,,,,,,,7,001,0,,2024-04-11_13h12.16.292,replicate_nsd,2023.2.3,60.1587818856173,2024-04-11 13h12.27.451245 -0400,
images/13_28 copy 5.jpg,0,15,0,0,0,"[9, 19, 29, 39, 49, 59, 68, 69, 70, 71]",0,15,15,15,61.328866770000786,,,,,,,,,,,61.3136665130005,61.31375362900053,61.313765502000024,61.328866770000786,62.32909050200033,62.32909050200033,65.32879618400057,65.32879618400057,65.32879618400057,65.3125464650002,None,0,65.31287793900083,65.31291995400079,None,65.3130362690008,65.31307745600043,None,65.31319527699998,65.31323515000076,None,,,,,,,7,001,0,,2024-04-11_13h12.16.292,replicate_nsd,2023.2.3,60.1587818856173,2024-04-11 13h12.27.451245 -0400,
images/23_28 copy 3.jpg,0,16,0,0,0,"[9, 19, 29, 39, 49, 59, 68, 69, 70, 71]",0,16,16,16,65.32879618400057,,,,,,,,,,,65.31361821200062,65.31370817000061,65.3137200730007,65.32879618400057,66.33068051300052,66.33068051300052,69.3288813120007,69.3288813120007,69.3288813120007,69.31291597600011,None,0,69.31324521500028,69.31328837399997,None,69.3134042670008,69.31344452200028,None,69.31355501300004,69.31359018700005,None,,,,,,,7,001,0,,2024-04-11_13h12.16.292,replicate_nsd,2023.2.3,60.1587818856173,2024-04-11 13h12.27.451245 -0400,
images/23_12 copy 3.jpg,0,17,0,0,0,"[9, 19, 29, 39, 49, 59, 68, 69, 70, 71]",0,17,17,17,69.3288813120007,,,,,,,,,,,69.31396531300015,69.31405345000076,69.31406518300082,69.3288813120007,70.32911077900008,70.32911077900008,73.32940895400043,73.32940895400043,73.32940895400043,73.31294735700067,None,0,73.3132764890006,73.31331905700063,None,73.31343518600079,73.31347632500001,None,73.3135863260004,73.3136218590007,None,,,,,,,7,001,0,,2024-04-11_13h12.16.292,replicate_nsd,2023.2.3,60.1587818856173,2024-04-11 13h12.27.451245 -0400,
images/23_12 copy 6.jpg,0,18,0,0,0,"[9, 19, 29, 39, 49, 59, 68, 69, 70, 71]",0,18,18,18,73.32940895400043,,,,,,,,,,,73.31399644800058,73.31408470500082,73.31409642800008,73.32940895400043,74.3290514700002,74.3290514700002,77.3291085030005,77.3291085030005,77.3291085030005,77.3128685720003,None,0,77.313203445,77.31324691700047,None,77.31336625700078,77.3134073830006,None,77.31351928200002,77.31355616200017,None,,,,,,,7,001,0,,2024-04-11_13h12.16.292,replicate_nsd,2023.2.3,60.1587818856173,2024-04-11 13h12.27.451245 -0400,
images/blank.jpg,0,19,1,0,0,"[9, 19, 29, 39, 49, 59, 68, 69, 70, 71]",0,19,19,19,77.3291085030005,,,,,,,,,,,77.31418458000007,77.31429233000017,77.31430528200053,,,,,,,77.3167568430008,None,0,77.31700213800013,81.31284505900021,None,81.31305854400034,81.31310349700016,None,81.31322986500072,81.31326757700026,None,77.3291085030005,77.3291085030005,81.32889246500054,81.32889246500054,,,7,001,0,,2024-04-11_13h12.16.292,replicate_nsd,2023.2.3,60.1587818856173,2024-04-11 13h12.27.451245 -0400,
images/14_40 copy 4.jpg,0,20,0,0,0,"[9, 19, 29, 39, 49, 59, 68, 69, 70, 71]",0,20,20,20,81.32889246500054,,,,,,,,,,,81.31365880900012,81.31374617000074,81.31375767900045,81.32889246500054,82.32908136400056,82.32908136400056,85.32888888900015,85.32888888900015,85.32888888900015,85.31292613400001,None,0,85.3132558340003,85.31329897100022,None,85.31341453800087,85.31345418399997,None,85.31356398200023,85.31359878800049,None,,,,,,,7,001,0,,2024-04-11_13h12.16.292,replicate_nsd,2023.2.3,60.1587818856173,2024-04-11 13h12.27.451245 -0400,
images/24_28 copy 7.jpg,0,21,0,0,0,"[9, 19, 29, 39, 49, 59, 68, 69, 70, 71]",0,21,21,21,85.32888888900015,,,,,,,,,,,85.31393743600074,85.31400724700052,85.31401680100043,85.32888888900015,86.32906212700073,86.32906212700073,89.32888170100068,89.32888170100068,89.32888170100068,89.31251961100043,None,0,89.31285022300017,89.31289364800068,None,89.31300814600036,89.31304847900083,None,89.31315969800016,89.31319543800055,None,,,,,,,7,001,0,,2024-04-11_13h12.16.292,replicate_nsd,2023.2.3,60.1587818856173,2024-04-11 13h12.27.451245 -0400,
images/pair02 copy 2.jpg,0,22,0,0,0,"[9, 19, 29, 39, 49, 59, 68, 69, 70, 71]",0,22,22,22,89.32888170100068,,,,,,,,,,,89.31357232200025,89.31366028700086,89.31367202399997,89.32888170100068,90.32909543400001,90.32909543400001,93.32882808400063,93.32882808400063,93.32882808400063,93.31287598500057,None,0,93.31320527600019,93.31324880800003,None,93.31336572700002,93.31340531500064,None,93.313516145,93.31355168700065,None,,,,,,,7,001,0,,2024-04-11_13h12.16.292,replicate_nsd,2023.2.3,60.1587818856173,2024-04-11 13h12.27.451245 -0400,
images/22_40 copy 7.jpg,0,23,0,0,0,"[9, 19, 29, 39, 49, 59, 68, 69, 70, 71]",0,23,23,23,93.32882808400063,,,,,,,,,,,93.31392728800074,93.31401348200052,93.31402519300082,93.32882808400063,94.32933550899997,94.32933550899997,97.32824448300016,97.32824448300016,97.32824448300016,97.31163667200053,None,0,97.311838953,97.31186231500033,None,97.31192505900071,97.3119474770001,None,97.31200683900079,97.31202658300026,None,,,,,,,7,001,0,,2024-04-11_13h12.16.292,replicate_nsd,2023.2.3,60.1587818856173,2024-04-11 13h12.27.451245 -0400,
images/7_12 copy 4.jpg,0,24,0,0,0,"[9, 19, 29, 39, 49, 59, 68, 69, 70, 71]",0,24,24,24,97.32824448300016,,,,,,,,,,,97.31223617400065,97.3122841910008,97.31229039100072,97.32824448300016,98.3279043320008,98.3279043320008,101.32839545600018,101.32839545600018,101.32839545600018,101.31259166900054,None,0,101.31292000800022,101.31296261600073,None,101.31308038600037,101.31312096900001,None,101.31323136000083,101.31326698900011,None,,,,,,,7,001,0,,2024-04-11_13h12.16.292,replicate_nsd,2023.2.3,60.1587818856173,2024-04-11 13h12.27.451245 -0400,
images/24_0.jpg,0,25,0,0,0,"[9, 19, 29, 39, 49, 59, 68, 69, 70, 71]",0,25,25,25,101.32839545600018,,,,,,,,,,,101.31364279800073,101.31372982700032,101.31374155000049,101.32839545600018,102.32792958600021,102.32792958600021,105.36206361800032,105.36206361800032,105.36206361800032,105.34609300500051,None,0,105.34641824900064,105.34646027200051,None,105.346577196,105.34661726600007,None,105.34672728500027,105.34676231400044,None,,,,,,,7,001,0,,2024-04-11_13h12.16.292,replicate_nsd,2023.2.3,60.1587818856173,2024-04-11 13h12.27.451245 -0400,
images/23_0 copy.jpg,0,26,0,0,0,"[9, 19, 29, 39, 49, 59, 68, 69, 70, 71]",0,26,26,26,105.36206361800032,,,,,,,,,,,105.34713341600036,105.34722013999999,105.34723203700014,105.36206361800032,106.36256588000015,106.36256588000015,109.36232528600067,109.36232528600067,109.36232528600067,109.34602807400006,None,0,109.34635960600008,109.34640406400013,None,109.3465195130002,109.3465598620005,None,109.34666965500037,109.3467048170005,None,,,,,,,7,001,0,,2024-04-11_13h12.16.292,replicate_nsd,2023.2.3,60.1587818856173,2024-04-11 13h12.27.451245 -0400,
images/17_0 copy 4.jpg,0,27,0,0,0,"[9, 19, 29, 39, 49, 59, 68, 69, 70, 71]",0,27,27,27,109.36232528600067,,,,,,,,,,,109.34707926100054,109.34716773000036,109.34717956200075,109.36232528600067,110.362584986,110.362584986,113.36203856600059,113.36203856600059,113.36203856600059,113.34607183700064,None,0,113.34640296400084,113.346447033,None,113.34656353300034,113.34660376000011,None,113.34671469300065,113.34674988000006,None,,,,,,,7,001,0,,2024-04-11_13h12.16.292,replicate_nsd,2023.2.3,60.1587818856173,2024-04-11 13h12.27.451245 -0400,
images/10_40 copy 6.jpg,0,28,0,0,0,"[9, 19, 29, 39, 49, 59, 68, 69, 70, 71]",0,28,28,28,113.36203856600059,,,,,,,,,,,113.34712423400015,113.34721328900014,113.34722544300075,113.36203856600059,114.36255622300087,114.36255622300087,117.36204389900013,117.36204389900013,117.36204389900013,117.34603788300046,None,0,117.34636638400025,117.34640875100013,None,117.34652458100027,117.3465651610004,None,117.34667525700024,117.34671043200069,None,,,,,,,7,001,0,,2024-04-11_13h12.16.292,replicate_nsd,2023.2.3,60.1587818856173,2024-04-11 13h12.27.451245 -0400,
images/blank.jpg,0,29,1,0,0,"[9, 19, 29, 39, 49, 59, 68, 69, 70, 71]",0,29,29,29,117.36204389900013,,,,,,,,,,,117.34708647600019,117.34717263600032,117.34718412600068,,,,,,,117.35098460600057,None,0,117.35128219500075,121.34568128500086,None,121.34590732600009,121.34595525000077,None,121.3460838660003,121.34612087799997,None,117.36204389900013,117.36204389900013,121.36223448000055,121.36223448000055,,,7,001,0,,2024-04-11_13h12.16.292,replicate_nsd,2023.2.3,60.1587818856173,2024-04-11 13h12.27.451245 -0400,
images/22_40 copy.jpg,0,30,0,0,0,"[9, 19, 29, 39, 49, 59, 68, 69, 70, 71]",0,30,30,30,121.36223448000055,,,,,,,,,,,121.34651593800027,121.34660791000078,121.34661949300062,121.36223448000055,122.36224395300087,122.36224395300087,125.36225752900009,125.36225752900009,125.36225752900009,125.34574398500081,None,0,125.34607317100017,125.34611673400013,None,125.34623160200044,125.3462724710007,None,125.34638213700055,125.34641798600023,None,,,,,,,7,001,0,,2024-04-11_13h12.16.292,replicate_nsd,2023.2.3,60.1587818856173,2024-04-11 13h12.27.451245 -0400,
images/15_12.jpg,0,31,0,0,0,"[9, 19, 29, 39, 49, 59, 68, 69, 70, 71]",0,31,31,31,125.36225752900009,,,,,,,,,,,125.34679334800057,125.34688043500046,125.34689193500071,125.36225752900009,126.36223106700072,126.36223106700072,129.36200035100046,129.36200035100046,129.36200035100046,129.34570525800063,None,0,129.3460330830003,129.34607440400032,None,129.3461892330006,129.34622877900074,None,129.34633905400005,129.34637423599997,None,,,,,,,7,001,0,,2024-04-11_13h12.16.292,replicate_nsd,2023.2.3,60.1587818856173,2024-04-11 13h12.27.451245 -0400,
images/5_12 copy 3.jpg,0,32,0,0,0,"[9, 19, 29, 39, 49, 59, 68, 69, 70, 71]",0,32,32,32,129.36200035100046,,,,,,,,,,,129.34674731400082,129.34683342300013,129.34684483800083,129.36200035100046,130.3619545040001,130.3619545040001,133.36197999400065,133.36197999400065,133.36197999400065,133.34589105900068,None,0,133.34622678400046,133.34627158400053,None,133.3463892740001,133.34643108600085,None,133.34654383700035,133.3465802640003,None,,,,,,,7,001,0,,2024-04-11_13h12.16.292,replicate_nsd,2023.2.3,60.1587818856173,2024-04-11 13h12.27.451245 -0400,
images/16_40 copy 4.jpg,0,33,0,0,0,"[9, 19, 29, 39, 49, 59, 68, 69, 70, 71]",0,33,33,33,133.36197999400065,,,,,,,,,,,133.3469630440004,133.3470679410002,133.3470809190003,133.36197999400065,134.3625518180006,134.3625518180006,137.3616211360004,137.3616211360004,137.3616211360004,137.34604988299998,"['1', '1', '2', '1', '2', '1', '2', '1', '2', '1']",0,137.348082816,137.34812048300046,None,137.34822206300032,137.34825522200026,None,137.34834426700036,137.3483730910002,None,,,,,"[0.8606462329998976, 1.8845256900003733, 2.0366689550000956, 2.1926349599998503, 2.3165235750002466, 2.452663845000643, 2.5726441189999605, 2.708652766000341, 2.7965462440006377, 2.9326351770005203]","[None, None, None, None, None, None, None, None, None, None]",7,001,0,,2024-04-11_13h12.16.292,replicate_nsd,2023.2.3,60.1587818856173,2024-04-11 13h12.27.451245 -0400,
images/12_40 copy 4.jpg,0,34,0,0,0,"[9, 19, 29, 39, 49, 59, 68, 69, 70, 71]",0,34,34,34,137.3616211360004,,,,,,,,,,,137.34867353400023,137.34874477000085,137.34875418400043,137.3616211360004,138.36155418199996,138.36155418199996,141.36219918400002,141.36219918400002,141.36219918400002,141.3459759160005,"['1', '2', '1', '2', '1', '2', '1', '2', '1', '2', '1', '2', '1', '2', '1', '2', '1', '2', '1', '2', '1', '2', '1', '2']",0,141.34667976700075,141.34673407300033,None,141.34686064800007,141.3469027730007,None,141.347016187,141.34705248500086,None,,,,,"[0.13764146599987725, 0.21349510500022006, 0.3416469479998341, 0.4254768770006194, 0.5576669339998261, 0.6455508330000157, 0.785536002000299, 0.8415410140005406, 0.9656648480004151, 1.0656419340002685, 1.1936676770001213, 1.2736416620000455, 1.4015344730005381, 1.6336459530002685, 1.6815326770001775, 1.8855320050006412, 2.033628478000537, 2.1216467809999813, 2.281496426000558, 2.373671275000561, 2.5135949530003927, 2.6056700819999605, 2.7495066480005335, 2.857675477000157]","[None, None, None, None, None, None, None, None, None, None, None, None, None, None, None, None, None, None, None, None, None, None, None, None]",7,001,0,,2024-04-11_13h12.16.292,replicate_nsd,2023.2.3,60.1587818856173,2024-04-11 13h12.27.451245 -0400,
images/10_40 copy 3.jpg,0,35,0,0,0,"[9, 19, 29, 39, 49, 59, 68, 69, 70, 71]",0,35,35,35,141.36219918400002,,,,,,,,,,,141.34741993200078,141.34750263300066,141.3475122740001,141.36219918400002,142.36252927000078,142.36252927000078,145.36127991100057,145.36127991100057,145.36127991100057,145.34602581000036,"['1', '2', '1', '2', '1', '2', '1', '2', '1', '2', '1', '2', '1', '1', '2', '1', '2', '1', '2', '1', '2']",0,145.34663146800085,145.3466749850004,None,145.34678829800032,145.34682885500024,None,145.34693875500034,145.34697472600055,None,,,,,"[0.004685205999521713, 0.11666806399989582, 0.2726827239994236, 0.37656457199955184, 0.5445769099997051, 0.6405480459998216, 0.8165486409998266, 0.9125893529999303, 1.0926722079993851, 1.1805479919994468, 1.3125889479997568, 1.472534061999795, 1.5965483079999103, 1.7886684139994031, 1.8726818569994066, 2.040678528999706, 2.1047050459992533, 2.2926725949992033, 2.3445940079991487, 2.5046845729993947, 2.5886829519995445]","[None, None, None, None, None, None, None, None, None, None, None, None, None, None, None, None, None, None, None, None, None]",7,001,0,,2024-04-11_13h12.16.292,replicate_nsd,2023.2.3,60.1587818856173,2024-04-11 13h12.27.451245 -0400,
,,,,,,,,,,,145.36127991100057,,,,,,,,,,,145.34734774700064,145.3474368060006,145.34744858900012,145.36127991100057,,,,,,,,,,,,,,,,,,,,,,,,,,,,,,,,,
