current_image,trial_index,is_blank_trial,is_repeat,is_new_run,run_num,all_blanks_list,practice.thisRepN,practice.thisTrialN,practice.thisN,practice.thisIndex,loop_all_images.thisRepN,loop_all_images.thisTrialN,loop_all_images.thisN,loop_all_images.thisIndex,thisRow.t,notes,set_up.started,set_up.stopped,practice_continue.started,key_resp_6.started,text_6.started,practice_continue.stopped,key_resp_6.keys,key_resp_6.rt,key_resp_6.duration,set_skips_and_correct_key_2.started,set_skips_and_correct_key_2.stopped,practice_trial.started,polygon_3.started,all_keys_pressed_2.started,image_2.started,press_if_repeat_2.started,image_2.stopped,press_if_repeat_2.stopped,polygon_3.stopped,all_keys_pressed_2.stopped,practice_trial.stopped,press_if_repeat_2.keys,press_if_repeat_2.corr,all_keys_pressed_2.keys,blank_trial_2.started,blank_trial_2.stopped,press_if_repeat_2.rt,press_if_repeat_2.duration,all_keys_pressed_2.rt,all_keys_pressed_2.duration,polygon_4.started,polygon_4.stopped,testing_continue.started,key_resp_7.started,text_7.started,testing_continue.stopped,key_resp_7.keys,key_resp_7.rt,key_resp_7.duration,waiting_fmri.started,key_resp_2.started,text_3.started,waiting_fmri.stopped,key_resp_2.keys,key_resp_2.rt,key_resp_2.duration,set_skips_and_correct_key.started,set_skips_and_correct_key.stopped,trial.started,polygon.started,all_keys_pressed.started,image.started,press_if_repeat.started,image.stopped,press_if_repeat.stopped,polygon.stopped,all_keys_pressed.stopped,trial.stopped,press_if_repeat.keys,press_if_repeat.corr,press_if_repeat.rt,press_if_repeat.duration,all_keys_pressed.keys,blank_trial.started,blank_trial.stopped,blank_trial_testing_keys.keys,run_wait2_2.started,run_wait2_2.stopped,key_resp_5.keys,waiting_fmri_2.started,waiting_fmri_2.stopped,key_resp_4.keys,all_keys_pressed.rt,all_keys_pressed.duration,blank_trial_testing_keys.started,polygon_2.started,blank_trial_testing_keys.stopped,polygon_2.stopped,blank_trial_testing_keys.rt,blank_trial_testing_keys.duration,participant,session,starting_run,,date,expName,psychopyVersion,frameRate,expStart,
,,,,,,,,,,,,,,,,,0.027794890999757627,0.02795586699994601,0.02797078000003239,0.04669290199990428,0.04669290199990428,0.9334458309999718,1,0.8717190160000428,None,,,,,,,,,,,,,,,,,,,,,,,,,,,,,,,,,,,,,,,,,,,,,,,,,,,,,,,,,,,,,,,,,,,,,,,,87,001,0,,2024-04-16_09h50.59.853,replicate_nsd,2023.2.3,59.98634746714792,2024-04-16 09h51.10.074868 -0400,
practice_images/w_boardwalk1.jpg,0,0,,,,,0,0,0,0,,,,,0.9653086270000131,,,,,,,,,,,0.9409321049997743,0.9409864379999817,0.9409951309999087,0.9653086270000131,0.9653086270000131,1.9498850519998996,1.9498850519998996,4.950315984000099,4.950315984000099,4.950315984000099,4.950315984000099,4.933946950000063,None,0,None,4.934639344000061,4.934690210000099,,,,,,,,,,,,,,,,,,,,,,,,,,,,,,,,,,,,,,,,,,,,,,,,,,,,,,,87,001,0,,2024-04-16_09h50.59.853,replicate_nsd,2023.2.3,59.98634746714792,2024-04-16 09h51.10.074868 -0400,
practice_images/w_kitchen1.jpg,1,0,,,,,0,1,1,1,,,,,4.950315984000099,,,,,,,,,,,4.934973131999868,4.9350500499999725,4.935061978999784,4.950315984000099,4.950315984000099,5.950504141999772,5.950504141999772,8.950340604999838,8.950340604999838,8.950340604999838,8.950340604999838,8.934138086000075,None,0,None,8.934670126000128,8.934713351000028,,,,,,,,,,,,,,,,,,,,,,,,,,,,,,,,,,,,,,,,,,,,,,,,,,,,,,,87,001,0,,2024-04-16_09h50.59.853,replicate_nsd,2023.2.3,59.98634746714792,2024-04-16 09h51.10.074868 -0400,
practice_images/w_bedroom1.jpg,2,0,,,,,0,2,2,2,,,,,8.950340604999838,,,,,,,,,,,8.934987495999849,8.935062807000122,8.935074686000007,8.950340604999838,8.950340604999838,9.950533792999977,9.950533792999977,12.950468090999948,12.950468090999948,12.950468090999948,12.950468090999948,12.933929434999754,None,0,None,12.934352645999752,12.934395394999683,,,,,,,,,,,,,,,,,,,,,,,,,,,,,,,,,,,,,,,,,,,,,,,,,,,,,,,87,001,0,,2024-04-16_09h50.59.853,replicate_nsd,2023.2.3,59.98634746714792,2024-04-16 09h51.10.074868 -0400,
practice_images/w_bedroom2.jpg,3,0,,,,,0,3,3,3,,,,,12.950468090999948,,,,,,,,,,,12.934670445999927,12.934747052999683,12.93475880799997,12.950468090999948,12.950468090999948,13.950438450000092,13.950438450000092,16.950068901000122,16.950068901000122,16.950068901000122,16.950068901000122,16.93377985500001,None,0,None,16.934313721999843,16.93435583199971,,,,,,,,,,,,,,,,,,,,,,,,,,,,,,,,,,,,,,,,,,,,,,,,,,,,,,,87,001,0,,2024-04-16_09h50.59.853,replicate_nsd,2023.2.3,59.98634746714792,2024-04-16 09h51.10.074868 -0400,
practice_images/w_auditorium1.jpg,4,0,,,,,0,4,4,4,,,,,16.950068901000122,,,,,,,,,,,16.934631916999933,16.934707823999815,16.934719449000113,16.950068901000122,16.950068901000122,17.95039361599993,17.95039361599993,20.95004066699994,20.95004066699994,20.95004066699994,20.95004066699994,20.93363411900009,None,0,None,20.934050106000086,20.934092772999975,,,,,,,,,,,,,,,,,,,,,,,,,,,,,,,,,,,,,,,,,,,,,,,,,,,,,,,87,001,0,,2024-04-16_09h50.59.853,replicate_nsd,2023.2.3,59.98634746714792,2024-04-16 09h51.10.074868 -0400,
practice_images/w_auditorium1.jpg,5,0,,,,,0,5,5,5,,,,,20.95004066699994,,,,,,,,,,,20.934370101999775,20.934446439000112,20.934458292999807,20.95004066699994,20.95004066699994,21.95014890399989,21.95014890399989,25.35059526799978,25.35059526799978,25.35059526799978,25.35059526799978,25.333845740000015,None,0,None,25.334259800999916,25.334302343999752,,,,,,,,,,,,,,,,,,,,,,,,,,,,,,,,,,,,,,,,,,,,,,,,,,,,,,,87,001,0,,2024-04-16_09h50.59.853,replicate_nsd,2023.2.3,59.98634746714792,2024-04-16 09h51.10.074868 -0400,
practice_images/w_boardwalk1.jpg,6,0,,,,,0,6,6,6,,,,,25.35059526799978,,,,,,,,,,,25.33457613399969,25.334652320999794,25.334664001999954,25.35059526799978,25.35059526799978,26.350571210999988,26.350571210999988,29.550357996000002,29.550357996000002,29.550357996000002,29.550357996000002,29.53372760299999,1,0,None,29.534481197999867,29.534525847999703,3.156430617999831,None,,,,,,,,,,,,,,,,,,,,,,,,,,,,,,,,,,,,,,,,,,,,,,,,,,,,,87,001,0,,2024-04-16_09h50.59.853,replicate_nsd,2023.2.3,59.98634746714792,2024-04-16 09h51.10.074868 -0400,
practice_images/w_kitchen2.jpg,7,0,,,,,0,7,7,7,,,,,29.550357996000002,,,,,,,,,,,29.53479702599998,29.5348582659999,29.53486742699988,29.550357996000002,29.550357996000002,30.550387209999826,30.550387209999826,33.55037823399971,33.55037823399971,33.55037823399971,33.55037823399971,33.53397064799992,2,0,"['2', '1', '2', '1', '2']",33.53499110999974,33.53503670500004,2.8973264339997513,None,"[0.07269720300018889, 0.24485350300028585, 0.3728457770002933, 0.5355153290001908, 0.6634369210000841]","[None, None, None, None, None]",,,,,,,,,,,,,,,,,,,,,,,,,,,,,,,,,,,,,,,,,,,,,,,,,,,87,001,0,,2024-04-16_09h50.59.853,replicate_nsd,2023.2.3,59.98634746714792,2024-04-16 09h51.10.074868 -0400,
practice_images/w_auditorium2.jpg,8,0,,,,,0,8,8,8,,,,,33.55037823399971,,,,,,,,,,,33.5353131869997,33.53538968199973,33.535401246999754,33.55037823399971,33.55037823399971,34.55049984900006,34.55049984900006,37.550243710999894,37.550243710999894,37.550243710999894,37.550243710999894,37.53398431599999,2,0,"['1', '2', '1', '2', '1']",37.53478707399972,37.53483072900008,2.882473614999981,None,"[0.06630112099992402, 0.18639631599990025, 0.37444488700020884, 0.48221297899999627, 0.945783603000109]","[None, None, None, None, None]",,,,,,,,,,,,,,,,,,,,,,,,,,,,,,,,,,,,,,,,,,,,,,,,,,,87,001,0,,2024-04-16_09h50.59.853,replicate_nsd,2023.2.3,59.98634746714792,2024-04-16 09h51.10.074868 -0400,
practice_images/w_boardwalk2.jpg,9,0,,,,,0,9,9,9,,,,,37.550243710999894,,,,,,,,,,,37.535099159999845,37.535173951999695,37.53518563899979,37.550243710999894,37.550243710999894,38.55056296800012,38.55056296800012,41.5995971909997,41.5995971909997,41.5995971909997,41.5995971909997,41.583999480999864,1,0,"['1', '2', '1', '2', '1', '2', '1']",41.58482004999996,41.584866089000116,2.839318585000001,None,"[0.13214458299989928, 0.1840533479999067, 0.4524348130003091, 0.5162488629998734, 0.7439729010002338, 0.8519825000003038, 3.5670006690002083]","[None, None, None, None, None, None, None]",,,,,,,,,,,,,,,,,,,,,,,,,,,,,,,,,,,,,,,,,,,,,,,,,,,87,001,0,,2024-04-16_09h50.59.853,replicate_nsd,2023.2.3,59.98634746714792,2024-04-16 09h51.10.074868 -0400,
blank.jpg,10,1,,,,,0,10,10,10,,,,,41.5995971909997,,,,,,,,,,,41.585136218000116,41.585214193999946,41.585226221000084,,,,,,,,,41.59121708599969,None,0,None,41.59156912699973,45.58387260299969,,,,,41.5995971909997,45.600491384999714,,,,,,,,,,,,,,,,,,,,,,,,,,,,,,,,,,,,,,,,,,,,,,,,,87,001,0,,2024-04-16_09h50.59.853,replicate_nsd,2023.2.3,59.98634746714792,2024-04-16 09h51.10.074868 -0400,
practice_images/w_kitchen2.jpg,11,0,,,,,0,11,11,11,,,,,45.600491384999714,,,,,,,,,,,45.58424897899977,45.584328196000115,45.584340016999704,45.600491384999714,45.600491384999714,46.60045541999989,46.60045541999989,49.600021967999965,49.600021967999965,49.600021967999965,49.600021967999965,49.583771499999784,1,0,"['1', '1', '2', '1']",49.58457356300005,49.58461854899997,2.824864627000352,None,"[0.0661518619999697, 0.37588699799971437, 0.7912730489997557, 0.8713466309995965]","[None, None, None, None]",,,,,,,,,,,,,,,,,,,,,,,,,,,,,,,,,,,,,,,,,,,,,,,,,,,87,001,0,,2024-04-16_09h50.59.853,replicate_nsd,2023.2.3,59.98634746714792,2024-04-16 09h51.10.074868 -0400,
practice_images/w_auditorium2.jpg,12,0,,,,,0,12,12,12,,,,,49.600021967999965,,,,,,,,,,,49.58488979799995,49.58496700099977,49.58497887900012,49.600021967999965,49.600021967999965,50.60057188499968,50.60057188499968,53.60055192999971,53.60055192999971,53.60055192999971,53.60055192999971,53.58398916899978,1,0,"['1', '2', '1']",53.584789378000096,53.58483333200002,2.948201663999953,None,"[0.14603425499990408, 0.5015500220001741, 0.6295728760001111]","[None, None, None]",,,,,,,,,,,,,,,,,,,,,,,,,,,,,,,,,,,,,,,,,,,,,,,,,,,87,001,0,,2024-04-16_09h50.59.853,replicate_nsd,2023.2.3,59.98634746714792,2024-04-16 09h51.10.074868 -0400,
practice_images/w_bedroom1.jpg,13,0,,,,,0,13,13,13,,,,,53.60055192999971,,,,,,,,,,,53.58510588199988,53.58518342399975,53.58519532199989,53.60055192999971,53.60055192999971,54.600040375999924,54.600040375999924,57.600344422000035,57.600344422000035,57.600344422000035,57.600344422000035,57.58395794699982,1,0,"['2', '1', '2', '1']",57.584757527999955,57.58480087699991,2.740702900999622,None,"[0.19878939099999116, 0.4068188219998774, 0.7087385499999073, 0.7607886309997411]","[None, None, None, None]",,,,,,,,,,,,,,,,,,,,,,,,,,,,,,,,,,,,,,,,,,,,,,,,,,,87,001,0,,2024-04-16_09h50.59.853,replicate_nsd,2023.2.3,59.98634746714792,2024-04-16 09h51.10.074868 -0400,
practice_images/w_monument1.jpg,14,0,,,,,0,14,14,14,,,,,57.600344422000035,,,,,,,,,,,57.58507403099975,57.58515116999979,57.585163356000066,57.600344422000035,57.600344422000035,58.60056582199968,58.60056582199968,61.60055181000007,61.60055181000007,61.60055181000007,61.60055181000007,61.58381196299979,2,0,"['2', '1', '2', '1']",61.58460664899985,61.584650109999984,2.9635938370001895,None,"[0.12945996899998136, 0.16966416300010678, 0.5701203130001886, 0.793831640999997]","[None, None, None, None]",,,,,,,,,,,,,,,,,,,,,,,,,,,,,,,,,,,,,,,,,,,,,,,,,,,87,001,0,,2024-04-16_09h50.59.853,replicate_nsd,2023.2.3,59.98634746714792,2024-04-16 09h51.10.074868 -0400,
practice_images/w_monument1.jpg,15,0,,,,,0,15,15,15,,,,,61.60055181000007,,,,,,,,,,,61.584920944999794,61.58499588099994,61.585007528000006,61.60055181000007,61.60055181000007,62.59997621699995,62.59997621699995,65.59895543199991,65.59895543199991,65.59895543199991,65.59895543199991,65.5823426349998,1,0,"['1', '2', '2', '1']",65.58279189099994,65.58281559499983,2.8778962800001864,None,"[0.03188976699993873, 0.44686930799980473, 0.7405505019996781, 0.772484596999675]","[None, None, None, None]",,,,,,,,,,,,,,,,,,,,,,,,,,,,,,,,,,,,,,,,,,,,,,,,,,,87,001,0,,2024-04-16_09h50.59.853,replicate_nsd,2023.2.3,59.98634746714792,2024-04-16 09h51.10.074868 -0400,
practice_images/w_boardwalk2.jpg,16,0,,,,,0,16,16,16,,,,,65.59895543199991,,,,,,,,,,,65.58296814100004,65.58301079500006,65.58301716400001,65.59895543199991,65.59895543199991,66.59961849899992,66.59961849899992,69.59947306499998,69.59947306499998,69.59947306499998,69.59947306499998,69.58299940400002,2,0,"['2', '1', '2', '1', '2', '1']",69.58356570999968,69.58359567799971,2.7269617450001533,None,"[0.03079693200015754, 0.22407515899976715, 0.3510569019999821, 0.49330288800001654, 0.5975799210000332, 0.7590233780001654]","[None, None, None, None, None, None]",,,,,,,,,,,,,,,,,,,,,,,,,,,,,,,,,,,,,,,,,,,,,,,,,,,87,001,0,,2024-04-16_09h50.59.853,replicate_nsd,2023.2.3,59.98634746714792,2024-04-16 09h51.10.074868 -0400,
practice_images/w_kitchen1.jpg,17,0,,,,,0,17,17,17,,,,,69.59947306499998,,,,,,,,,,,69.58378567099999,69.58383871199976,69.58384675099978,69.59947306499998,69.59947306499998,70.59959135700001,70.59959135700001,73.60013497599994,73.60013497599994,73.60013497599994,73.60013497599994,73.58354285299993,1,0,"['2', '1', '2', '1', '2']",73.58434331499984,73.58438731499973,2.8082309210003586,None,"[0.09920216599994092, 0.30911314700006187, 0.5610609469999872, 0.6491158199996789, 0.8346584779997102]","[None, None, None, None, None]",,,,,,,,,,,,,,,,,,,,,,,,,,,,,,,,,,,,,,,,,,,,,,,,,,,87,001,0,,2024-04-16_09h50.59.853,replicate_nsd,2023.2.3,59.98634746714792,2024-04-16 09h51.10.074868 -0400,
practice_images/w_monument2.jpg,18,0,,,,,0,18,18,18,,,,,73.60013497599994,,,,,,,,,,,73.58466244200008,73.5847379339998,73.58474984999975,73.60013497599994,73.60013497599994,74.60012308899968,74.60012308899968,77.59894494599985,77.59894494599985,77.59894494599985,77.59894494599985,77.5828649529999,2,0,"['2', '1', '1', '2', '1']",77.58331248600007,77.58333614599997,2.7154826849996425,None,"[0.08782991099997162, 0.32420990700029506, 0.6702157870004157, 0.7621743409999908, 0.9687643840002238]","[None, None, None, None, None]",,,,,,,,,,,,,,,,,,,,,,,,,,,,,,,,,,,,,,,,,,,,,,,,,,,87,001,0,,2024-04-16_09h50.59.853,replicate_nsd,2023.2.3,59.98634746714792,2024-04-16 09h51.10.074868 -0400,
practice_images/w_monument2.jpg,19,0,,,,,0,19,19,19,,,,,77.59894494599985,,,,,,,,,,,77.58348139300006,77.58352257899969,77.58352848999994,77.59894494599985,77.59894494599985,78.59845448099986,78.59845448099986,81.60014249599999,81.60014249599999,81.60014249599999,81.60014249599999,81.58347409199996,1,0,"['2', '1', '1', '2', '1', '2']",81.58432606299993,81.5843693060001,2.9416583480001464,None,"[0.047357025999644975, 0.051358307999635144, 0.31134665499985203, 0.5602400889997625, 0.7042949309998221, 0.8858374399997047]","[None, None, None, None, None, None]",,,,,,,,,,,,,,,,,,,,,,,,,,,,,,,,,,,,,,,,,,,,,,,,,,,87,001,0,,2024-04-16_09h50.59.853,replicate_nsd,2023.2.3,59.98634746714792,2024-04-16 09h51.10.074868 -0400,
,,,,,,,,,,,,,,,,,,,,,,,,,,,,,,,,,,,,,,,,,,,,,,,,,81.58442789299988,81.60014249599999,81.60014249599999,81.74927914499995,2,0.1399908809999033,None,,,,,,,,,,,,,,,,,,,,,,,,,,,,,,,,,,,,,,,,,,87,001,0,,2024-04-16_09h50.59.853,replicate_nsd,2023.2.3,59.98634746714792,2024-04-16 09h51.10.074868 -0400,
,,,,,,,,,,,,,,,,,,,,,,,,,,,,,,,,,,,,,,,,,,,,,,,,,,,,,,,,81.74930415600011,81.76649615099996,81.76649615099996,85.81617029399968,equal,4.044868366000173,None,,,,,,,,,,,,,,,,,,,,,,,,,,,,,,,,,,,87,001,0,,2024-04-16_09h50.59.853,replicate_nsd,2023.2.3,59.98634746714792,2024-04-16 09h51.10.074868 -0400,
images/20_56.png,0,0,0,0,0,"[9, 19, 29, 39, 49, 59, 68, 69, 70, 71]",,,,,0,0,0,0,85.92928654999969,,,,,,,,,,,,,,,,,,,,,,,,,,,,,,,,,,,,,,,,,,,,,,,,85.89705806099983,85.89718850700001,85.89719631399976,85.92928654999969,85.92928654999969,86.91678916000001,86.91678916000001,89.93289887899982,89.93289887899982,89.93289887899982,89.93289887899982,89.9004571219998,2,0,2.8446735879997505,None,None,89.90339610599995,89.90343876999987,None,89.9040862439997,89.90413959699981,None,89.90478876599991,89.90482505199998,None,,,,,,,,,87,001,0,,2024-04-16_09h50.59.853,replicate_nsd,2023.2.3,59.98634746714792,2024-04-16 09h51.10.074868 -0400,
images/image_130_seed_1.png,1,0,0,0,0,"[9, 19, 29, 39, 49, 59, 68, 69, 70, 71]",,,,,0,1,1,1,89.93289887899982,,,,,,,,,,,,,,,,,,,,,,,,,,,,,,,,,,,,,,,,,,,,,,,,89.90569867399972,89.90576302499994,89.905773597,89.93289887899982,89.93289887899982,90.91705001199989,90.91705001199989,93.92400147699982,93.92400147699982,93.92400147699982,93.92400147699982,93.90017440599968,1,1,2.7802095109996117,None,"['2', '1', '2', '1', '1']",93.90257409800006,93.9026156939999,None,93.90272023199987,93.90276550999988,None,93.90285959799985,93.90288973199995,None,"[0.1665149170003133, 0.3298265840003296, 0.4419723740002155, 0.6276281770001333, 0.9418679550003617]","[None, None, None, None, None]",,,,,,,87,001,0,,2024-04-16_09h50.59.853,replicate_nsd,2023.2.3,59.98634746714792,2024-04-16 09h51.10.074868 -0400,
images/image_518_seed_1.png,2,0,0,0,0,"[9, 19, 29, 39, 49, 59, 68, 69, 70, 71]",,,,,0,2,2,2,93.92400147699982,,,,,,,,,,,,,,,,,,,,,,,,,,,,,,,,,,,,,,,,,,,,,,,,93.9031979739998,93.90326160899986,93.9032714709997,93.92400147699982,93.92400147699982,94.91601170600006,94.91601170600006,97.92626004399972,97.92626004399972,97.92626004399972,97.92626004399972,97.90026471600004,1,1,2.86088602899963,None,"['1', '1', '1']",97.90107242299973,97.90112036099981,None,97.90123226500009,97.9012880969999,None,97.90139900399981,97.90143609999996,None,"[0.27257565000036266, 0.5340893820002748, 0.7498838120000073]","[None, None, None]",,,,,,,87,001,0,,2024-04-16_09h50.59.853,replicate_nsd,2023.2.3,59.98634746714792,2024-04-16 09h51.10.074868 -0400,
images/image_76_seed_1.png,3,0,0,0,0,"[9, 19, 29, 39, 49, 59, 68, 69, 70, 71]",,,,,0,3,3,3,97.92626004399972,,,,,,,,,,,,,,,,,,,,,,,,,,,,,,,,,,,,,,,,,,,,,,,,97.90181421499983,97.90189281899984,97.90190523599995,97.92626004399972,97.92626004399972,98.91674662200012,98.91674662200012,101.92646622699976,101.92646622699976,101.92646622699976,101.92646622699976,101.9004736070001,1,1,2.931752209000024,None,"['1', '1', '1', '1', '1']",101.90129034499978,101.90133687499974,None,101.90144944699978,101.90150542299989,None,101.90161854200005,101.90165605699985,None,"[0.11291788800008362, 0.34283506600013425, 0.5615355160002764, 0.7901971080000294, 2.5405935730000238]","[None, None, None, None, None]",,,,,,,87,001,0,,2024-04-16_09h50.59.853,replicate_nsd,2023.2.3,59.98634746714792,2024-04-16 09h51.10.074868 -0400,
images/paired_image_206_2.png,4,0,0,0,0,"[9, 19, 29, 39, 49, 59, 68, 69, 70, 71]",,,,,0,4,4,4,101.92646622699976,,,,,,,,,,,,,,,,,,,,,,,,,,,,,,,,,,,,,,,,,,,,,,,,101.90203301700012,101.90211146000001,101.90212413900008,101.92646622699976,101.92646622699976,102.9168937710001,102.9168937710001,105.9262418369999,105.9262418369999,105.9262418369999,105.9262418369999,105.90039624700012,1,1,2.948935094999797,None,"['1', '1', '1']",105.9012003519997,105.90124659699995,None,105.90135677699982,105.90141273299969,None,105.90152344699982,105.90155995499981,None,"[0.17969431299979988, 0.5420025319999695, 0.7776256619999913]","[None, None, None]",,,,,,,87,001,0,,2024-04-16_09h50.59.853,replicate_nsd,2023.2.3,59.98634746714792,2024-04-16 09h51.10.074868 -0400,
images/image_604_seed_1.png,5,0,0,0,0,"[9, 19, 29, 39, 49, 59, 68, 69, 70, 71]",,,,,0,5,5,5,105.9262418369999,,,,,,,,,,,,,,,,,,,,,,,,,,,,,,,,,,,,,,,,,,,,,,,,105.9019351779998,105.9020139979998,105.9020264689998,105.9262418369999,105.9262418369999,106.91694510299976,106.91694510299976,109.92577215199981,109.92577215199981,109.92577215199981,109.92577215199981,109.90051379499982,1,1,2.8517544269998325,None,"['1', '1']",109.90132138699983,109.90136886499977,None,109.90147927399994,109.90153548999979,None,109.90164776599977,109.90168449800012,None,"[0.5282172879997233, 0.7395894729997963]","[None, None]",,,,,,,87,001,0,,2024-04-16_09h50.59.853,replicate_nsd,2023.2.3,59.98634746714792,2024-04-16 09h51.10.074868 -0400,
images/image_499_seed_1.png,6,0,0,0,0,"[9, 19, 29, 39, 49, 59, 68, 69, 70, 71]",,,,,0,6,6,6,109.92577215199981,,,,,,,,,,,,,,,,,,,,,,,,,,,,,,,,,,,,,,,,,,,,,,,,109.90206427099974,109.90214342299987,109.90215619599985,109.92577215199981,109.92577215199981,110.91695102099993,110.91695102099993,113.9259718379999,113.9259718379999,113.9259718379999,113.9259718379999,113.90024069299989,1,1,2.86523611299981,None,"['1', '1', '1']",113.90106532999971,113.9011133439999,None,113.90122513899996,113.90128031099994,None,113.90139342599969,113.90143085399995,None,"[0.14368177799997284, 0.48915566599998783, 0.7458083730002727]","[None, None, None]",,,,,,,87,001,0,,2024-04-16_09h50.59.853,replicate_nsd,2023.2.3,59.98634746714792,2024-04-16 09h51.10.074868 -0400,
images/image_485_seed_1.png,7,0,0,0,0,"[9, 19, 29, 39, 49, 59, 68, 69, 70, 71]",,,,,0,7,7,7,113.9259718379999,,,,,,,,,,,,,,,,,,,,,,,,,,,,,,,,,,,,,,,,,,,,,,,,113.90181525599974,113.90189390399973,113.90190644799986,113.9259718379999,113.9259718379999,114.916517828,114.916517828,117.91774592599995,117.91774592599995,117.91774592599995,117.91774592599995,117.90061457599995,1,1,2.6367437459998655,None,"['1', '1', '1']",117.90154300299992,117.90159051,None,117.90170259199976,117.90175771699978,None,117.90187043300011,117.90190765099987,None,"[0.1522862219999297, 0.4220978259995718, 0.7275870199996461]","[None, None, None]",,,,,,,87,001,0,,2024-04-16_09h50.59.853,replicate_nsd,2023.2.3,59.98634746714792,2024-04-16 09h51.10.074868 -0400,
images/4_22.png,8,0,0,0,0,"[9, 19, 29, 39, 49, 59, 68, 69, 70, 71]",,,,,0,8,8,8,117.91774592599995,,,,,,,,,,,,,,,,,,,,,,,,,,,,,,,,,,,,,,,,,,,,,,,,117.90228310299972,117.90236085400011,117.90237339299983,117.91774592599995,117.91774592599995,118.9170300400001,118.9170300400001,121.9160251989997,121.9160251989997,121.9160251989997,121.9160251989997,121.90026982099971,1,1,2.737909327000125,None,"['1', '1', '1', '1']",121.90108325899973,121.90113101199995,None,121.90124252199985,121.90129916299975,None,121.9014119059998,121.90144957499979,None,"[0.0810994909998044, 0.35475202299994635, 0.5987490669999715, 0.9637362280000161]","[None, None, None, None]",,,,,,,87,001,0,,2024-04-16_09h50.59.853,replicate_nsd,2023.2.3,59.98634746714792,2024-04-16 09h51.10.074868 -0400,
blank.jpg,9,1,0,0,0,"[9, 19, 29, 39, 49, 59, 68, 69, 70, 71]",,,,,0,9,9,9,121.9160251989997,,,,,,,,,,,,,,,,,,,,,,,,,,,,,,,,,,,,,,,,,,,,,,,,121.9018232909998,121.90190227899984,121.90191485300011,,,,,,,,,121.90621689799991,None,0,,,None,121.90661392499987,125.9002928760001,"['1', '1', '1', '1', '1', '1', '1', '1', '1', '1', '1', '1', '1']",125.90230705399972,125.90239566499986,None,125.90250236700012,125.9025345719997,None,,,121.9160251989997,121.9160251989997,125.92850322599998,125.92850322599998,"[0.27627058300004137, 0.48965137200002573, 0.7592419320003501, 1.0219390910001493, 1.3045196190000752, 1.6224241879999681, 1.9021718789999795, 2.2194251360001545, 2.5689069240002027, 2.868683049000083, 3.1754659580001316, 3.4743155760002082, 3.7278348960003314]","[None, None, None, None, None, None, None, None, None, None, None, None, None]",87,001,0,,2024-04-16_09h50.59.853,replicate_nsd,2023.2.3,59.98634746714792,2024-04-16 09h51.10.074868 -0400,
images/image_423_seed_1.png,10,0,0,0,0,"[9, 19, 29, 39, 49, 59, 68, 69, 70, 71]",,,,,0,10,10,10,125.92850322599998,,,,,,,,,,,,,,,,,,,,,,,,,,,,,,,,,,,,,,,,,,,,,,,,125.90285079799969,125.90292221899972,125.90293204499994,125.92850322599998,125.92850322599998,126.916485405,126.916485405,129.92462477599975,129.92462477599975,129.92462477599975,129.92462477599975,129.90032953799982,1,1,2.917954219999956,None,"['1', '1']",129.9011360919999,129.90118977599968,None,129.9013024609999,129.90135881700007,None,129.90147057700005,129.90150720700012,None,"[0.3105478959996617, 0.5851829769999313]","[None, None]",,,,,,,87,001,0,,2024-04-16_09h50.59.853,replicate_nsd,2023.2.3,59.98634746714792,2024-04-16 09h51.10.074868 -0400,
images/paired_image_676_2.png,11,0,0,0,0,"[9, 19, 29, 39, 49, 59, 68, 69, 70, 71]",,,,,0,11,11,11,129.92462477599975,,,,,,,,,,,,,,,,,,,,,,,,,,,,,,,,,,,,,,,,,,,,,,,,129.9018841369998,129.90196248999973,129.90197489000002,129.92462477599975,129.92462477599975,130.9163767340001,130.9163767340001,133.92658155599975,133.92658155599975,133.92658155599975,133.92658155599975,133.90027175899968,1,1,0.5940846029998283,None,"['1', '1', '1', '1']",133.9010861439997,133.90113274799978,None,133.90124351199984,133.90129867799988,None,133.9014101150001,133.90144779999991,None,"[0.14582536399984747, 0.3619325739996384, 0.5993358649998299, 0.8080032999996547]","[None, None, None, None]",,,,,,,87,001,0,,2024-04-16_09h50.59.853,replicate_nsd,2023.2.3,59.98634746714792,2024-04-16 09h51.10.074868 -0400,
images/image_713_seed_1.png,12,0,0,0,0,"[9, 19, 29, 39, 49, 59, 68, 69, 70, 71]",,,,,0,12,12,12,133.92658155599975,,,,,,,,,,,,,,,,,,,,,,,,,,,,,,,,,,,,,,,,,,,,,,,,133.90182381399973,133.90190117099974,133.90191343300012,133.92658155599975,133.92658155599975,134.91651469199996,134.91651469199996,137.9206126680001,137.9206126680001,137.9206126680001,137.9206126680001,137.9004635209999,None,0,,,None,137.90088749699999,137.900932473,None,137.9010463909999,137.90110141900004,None,137.90121399400005,137.90125043299986,None,,,,,,,,,87,001,0,,2024-04-16_09h50.59.853,replicate_nsd,2023.2.3,59.98634746714792,2024-04-16 09h51.10.074868 -0400,
images/image_76_seed_1.png,13,0,1,0,0,"[9, 19, 29, 39, 49, 59, 68, 69, 70, 71]",,,,,0,13,13,13,137.9206126680001,,,,,,,,,,,,,,,,,,,,,,,,,,,,,,,,,,,,,,,,,,,,,,,,137.9016285859998,137.90170675199988,137.9017194119997,137.9206126680001,137.9206126680001,138.91651638999974,138.91651638999974,141.926024633,141.926024633,141.926024633,141.926024633,141.90031409199992,None,0,,,None,141.90073799499987,141.90078379899978,None,141.9008970750001,141.9009522629999,None,141.90106438299972,141.90110112599996,None,,,,,,,,,87,001,0,,2024-04-16_09h50.59.853,replicate_nsd,2023.2.3,59.98634746714792,2024-04-16 09h51.10.074868 -0400,
images/image_185_seed_1.png,14,0,0,0,0,"[9, 19, 29, 39, 49, 59, 68, 69, 70, 71]",,,,,0,14,14,14,141.926024633,,,,,,,,,,,,,,,,,,,,,,,,,,,,,,,,,,,,,,,,,,,,,,,,141.9017311990001,141.90181017899977,141.90182305000008,141.926024633,141.926024633,142.91647850399977,142.91647850399977,145.92690528599996,145.92690528599996,145.92690528599996,145.92690528599996,145.90050361099975,None,0,,,None,145.90093212600004,145.9009784709997,None,145.9010911119999,145.90114676899975,None,145.90125994699974,145.90129584199985,None,,,,,,,,,87,001,0,,2024-04-16_09h50.59.853,replicate_nsd,2023.2.3,59.98634746714792,2024-04-16 09h51.10.074868 -0400,
images/image_722_seed_1.png,15,0,0,0,0,"[9, 19, 29, 39, 49, 59, 68, 69, 70, 71]",,,,,0,15,15,15,145.92690528599996,,,,,,,,,,,,,,,,,,,,,,,,,,,,,,,,,,,,,,,,,,,,,,,,145.90167464399974,145.90175292100002,145.90176538099968,145.92690528599996,145.92690528599996,146.91642928700003,146.91642928700003,149.9256660359997,149.9256660359997,149.9256660359997,149.9256660359997,149.8998601909998,None,0,,,None,149.9002831319999,149.90032959099972,None,149.9004427279997,149.90049709699997,None,149.90061012599972,149.9006466689998,None,,,,,,,,,87,001,0,,2024-04-16_09h50.59.853,replicate_nsd,2023.2.3,59.98634746714792,2024-04-16 09h51.10.074868 -0400,
images/image_690_seed_1.png,16,0,0,0,0,"[9, 19, 29, 39, 49, 59, 68, 69, 70, 71]",,,,,0,16,16,16,149.9256660359997,,,,,,,,,,,,,,,,,,,,,,,,,,,,,,,,,,,,,,,,,,,,,,,,149.90102431100013,149.9011032809999,149.9011154589998,149.9256660359997,149.9256660359997,150.9166800979997,150.9166800979997,153.91700650899975,153.91700650899975,153.91700650899975,153.91700650899975,153.90053055199996,None,0,,,None,153.90095482300012,153.9010007009997,None,153.90111280599967,153.90116828600003,None,153.90128043000004,153.90131758799998,None,,,,,,,,,87,001,0,,2024-04-16_09h50.59.853,replicate_nsd,2023.2.3,59.98634746714792,2024-04-16 09h51.10.074868 -0400,
images/13_89.png,17,0,0,0,0,"[9, 19, 29, 39, 49, 59, 68, 69, 70, 71]",,,,,0,17,17,17,153.91700650899975,,,,,,,,,,,,,,,,,,,,,,,,,,,,,,,,,,,,,,,,,,,,,,,,153.90169294299994,153.90177186899973,153.90178392899998,153.91700650899975,153.91700650899975,154.916431955,154.916431955,157.92575070099974,157.92575070099974,157.92575070099974,157.92575070099974,157.89988898899992,None,0,,,None,157.90030948899994,157.90035450100004,None,157.90046750300007,157.90052298599994,None,157.90063561499983,157.90067236899995,None,,,,,,,,,87,001,0,,2024-04-16_09h50.59.853,replicate_nsd,2023.2.3,59.98634746714792,2024-04-16 09h51.10.074868 -0400,
images/image_449_seed_1.png,18,0,0,0,0,"[9, 19, 29, 39, 49, 59, 68, 69, 70, 71]",,,,,0,18,18,18,157.92575070099974,,,,,,,,,,,,,,,,,,,,,,,,,,,,,,,,,,,,,,,,,,,,,,,,157.90104888899987,157.901127094,157.90113934700003,157.92575070099974,157.92575070099974,158.91663311399998,158.91663311399998,161.9166599109999,161.9166599109999,161.9166599109999,161.9166599109999,161.90001768000002,None,0,,,None,161.90044881799986,161.900494386,None,161.9006100649999,161.90066544899992,None,161.90078100799974,161.9008176530001,None,,,,,,,,,87,001,0,,2024-04-16_09h50.59.853,replicate_nsd,2023.2.3,59.98634746714792,2024-04-16 09h51.10.074868 -0400,
blank.jpg,19,1,0,0,0,"[9, 19, 29, 39, 49, 59, 68, 69, 70, 71]",,,,,0,19,19,19,161.9166599109999,,,,,,,,,,,,,,,,,,,,,,,,,,,,,,,,,,,,,,,,,,,,,,,,161.901199292,161.90127788500013,161.90129044600008,,,,,,,,,161.90470628100002,None,0,,,None,161.9050303199997,165.89990613500004,None,165.90012024199996,165.90017820699995,None,165.90030647599997,165.90034406899986,None,,,161.9166599109999,161.9166599109999,165.92570234599998,165.92570234599998,,,87,001,0,,2024-04-16_09h50.59.853,replicate_nsd,2023.2.3,59.98634746714792,2024-04-16 09h51.10.074868 -0400,
images/image_224_seed_1.png,20,0,0,0,0,"[9, 19, 29, 39, 49, 59, 68, 69, 70, 71]",,,,,0,20,20,20,165.92570234599998,,,,,,,,,,,,,,,,,,,,,,,,,,,,,,,,,,,,,,,,,,,,,,,,165.90074850600013,165.90084234300002,165.9008553829999,165.92570234599998,165.92570234599998,166.91667708099976,166.91667708099976,169.92461072600008,169.92461072600008,169.92461072600008,169.92461072600008,169.90042800399988,None,0,,,None,169.9008524679998,169.90089934699972,None,169.90101325299975,169.90106949999972,None,169.90118209799994,169.90121892599973,None,,,,,,,,,87,001,0,,2024-04-16_09h50.59.853,replicate_nsd,2023.2.3,59.98634746714792,2024-04-16 09h51.10.074868 -0400,
images/image_210_seed_1.png,21,0,0,0,0,"[9, 19, 29, 39, 49, 59, 68, 69, 70, 71]",,,,,0,21,21,21,169.92461072600008,,,,,,,,,,,,,,,,,,,,,,,,,,,,,,,,,,,,,,,,,,,,,,,,169.90159599799972,169.90167390299985,169.90168648899999,169.92461072600008,169.92461072600008,170.9162843959998,170.9162843959998,173.92534891700006,173.92534891700006,173.92534891700006,173.92534891700006,173.89996911299977,1,1,2.8791590910000195,None,"['1', '1', '1']",173.9007842699998,173.9008311059997,None,173.90094173199986,173.90099693499997,None,173.90110957199977,173.90114654199988,None,"[0.37577733299985994, 0.5669949880002605, 0.7589039919998868]","[None, None, None]",,,,,,,87,001,0,,2024-04-16_09h50.59.853,replicate_nsd,2023.2.3,59.98634746714792,2024-04-16 09h51.10.074868 -0400,
images/image_74_seed_1.png,22,0,0,0,0,"[9, 19, 29, 39, 49, 59, 68, 69, 70, 71]",,,,,0,22,22,22,173.92534891700006,,,,,,,,,,,,,,,,,,,,,,,,,,,,,,,,,,,,,,,,,,,,,,,,173.90152515199998,173.90160342299987,173.90161592899995,173.92534891700006,173.92534891700006,174.91662830799987,174.91662830799987,177.92692650699973,177.92692650699973,177.92692650699973,177.92692650699973,177.90004090799994,1,1,2.911593649000224,None,"['1', '1', '1', '1']",177.90085610000006,177.90090323200002,None,177.90101458499976,177.90107063799996,None,177.90118417099984,177.9012214899999,None,"[0.3021812729998601, 0.5133568040000682, 0.7412533930000791, 0.9547580779999407]","[None, None, None, None]",,,,,,,87,001,0,,2024-04-16_09h50.59.853,replicate_nsd,2023.2.3,59.98634746714792,2024-04-16 09h51.10.074868 -0400,
images/image_622_seed_1.png,23,0,0,0,0,"[9, 19, 29, 39, 49, 59, 68, 69, 70, 71]",,,,,0,23,23,23,177.92692650699973,,,,,,,,,,,,,,,,,,,,,,,,,,,,,,,,,,,,,,,,,,,,,,,,177.90159825199999,177.9016761349999,177.90168854400008,177.92692650699973,177.92692650699973,178.91654040799995,178.91654040799995,181.92265496799973,181.92265496799973,181.92265496799973,181.92265496799973,181.89995279799996,1,1,2.795442177000041,None,"['2', '1', '2', '1', '2', '1', '2', '1', '1']",181.9007810439998,181.90082895399973,None,181.90094132600007,181.90099591099988,None,181.90110801299988,181.90114453199976,None,"[0.013476800999796978, 0.1512261969996871, 0.26724299899979087, 0.42144052799994824, 0.5295083979999617, 0.6744888220000576, 0.8024933940000665, 0.9634289000000535, 3.056347447999997]","[None, None, None, None, None, None, None, None, None]",,,,,,,87,001,0,,2024-04-16_09h50.59.853,replicate_nsd,2023.2.3,59.98634746714792,2024-04-16 09h51.10.074868 -0400,
,,,,,,,,,,,,,,,181.92265496799973,,,,,,,,,,,,,,,,,,,,,,,,,,,,,,,,,,,,,,,,,,,,,,,,181.90151854899977,181.90159752299996,181.9016102139999,181.92265496799973,181.92265496799973,182.91644244999998,182.91644244999998,,,,,,,,,,,,,,,,,,,,,,,,,,,,,,,,,,,,,
