current_image,trial_index,is_blank_trial,is_repeat,is_new_run,run_num,all_blanks_list,practice.thisRepN,practice.thisTrialN,practice.thisN,practice.thisIndex,loop_all_images.thisRepN,loop_all_images.thisTrialN,loop_all_images.thisN,loop_all_images.thisIndex,thisRow.t,notes,set_up.started,set_up.stopped,practice_continue.started,key_resp_6.started,text_6.started,practice_continue.stopped,key_resp_6.keys,key_resp_6.rt,key_resp_6.duration,set_skips_and_correct_key_2.started,set_skips_and_correct_key_2.stopped,practice_trial.started,polygon_3.started,all_keys_pressed_2.started,image_2.started,press_if_repeat_2.started,image_2.stopped,press_if_repeat_2.stopped,polygon_3.stopped,all_keys_pressed_2.stopped,practice_trial.stopped,press_if_repeat_2.keys,press_if_repeat_2.corr,all_keys_pressed_2.keys,blank_trial_2.started,blank_trial_2.stopped,press_if_repeat_2.rt,press_if_repeat_2.duration,all_keys_pressed_2.rt,all_keys_pressed_2.duration,polygon_4.started,polygon_4.stopped,testing_continue.started,key_resp_7.started,text_7.started,testing_continue.stopped,key_resp_7.keys,key_resp_7.rt,key_resp_7.duration,waiting_fmri.started,key_resp_2.started,text_3.started,waiting_fmri.stopped,key_resp_2.keys,key_resp_2.rt,key_resp_2.duration,set_skips_and_correct_key.started,set_skips_and_correct_key.stopped,trial.started,polygon.started,all_keys_pressed.started,image.started,press_if_repeat.started,image.stopped,press_if_repeat.stopped,polygon.stopped,all_keys_pressed.stopped,trial.stopped,press_if_repeat.keys,press_if_repeat.corr,all_keys_pressed.keys,blank_trial.started,blank_trial.stopped,blank_trial_testing_keys.keys,run_wait2_2.started,run_wait2_2.stopped,key_resp_5.keys,waiting_fmri_2.started,waiting_fmri_2.stopped,key_resp_4.keys,blank_trial_testing_keys.started,polygon_2.started,blank_trial_testing_keys.stopped,polygon_2.stopped,key_resp_5.started,text_5.started,key_resp_5.rt,key_resp_5.duration,key_resp_4.started,text_4.started,key_resp_4.rt,key_resp_4.duration,press_if_repeat.rt,press_if_repeat.duration,participant,session,starting_run,,date,expName,psychopyVersion,frameRate,expStart,
,,,,,,,,,,,,,,,,,0.024489248999088886,0.024733117999858223,0.024761082999248174,0.04162187399924733,0.04162187399924733,40.41079608600012,2,40.36465437999868,None,,,,,,,,,,,,,,,,,,,,,,,,,,,,,,,,,,,,,,,,,,,,,,,,,,,,,,,,,,,,,,,,,,,,,,,,,,,,88,001,0,,2024-04-15_11h46.56.884,replicate_nsd,2023.2.3,59.92647189675796,2024-04-15 11h47.11.714314 -0400,
practice_images/paired_image_25_2.png,0,0,,,,,0,0,0,0,,,,,40.4493313619987,,,,,,,,,,,40.41798070599907,40.418051093998656,40.41806031899978,40.4493313619987,40.4493313619987,41.44381944499946,41.44381944499946,44.443318458999784,44.443318458999784,44.443318458999784,44.443318458999784,44.429047943000114,None,0,None,44.42937040799916,44.4293900879984,,,,,,,,,,,,,,,,,,,,,,,,,,,,,,,,,,,,,,,,,,,,,,,,,,,,,,,,,,,88,001,0,,2024-04-15_11h46.56.884,replicate_nsd,2023.2.3,59.92647189675796,2024-04-15 11h47.11.714314 -0400,
practice_images/paired_image_36_1.png,1,0,,,,,0,1,1,1,,,,,44.443318458999784,,,,,,,,,,,44.42952133399922,44.42956112399952,44.42956655499984,44.443318458999784,44.443318458999784,45.444677620998846,45.444677620998846,48.44362619799904,48.44362619799904,48.44362619799904,48.44362619799904,48.42830211999899,None,0,None,48.4287248469991,48.42876513899864,,,,,,,,,,,,,,,,,,,,,,,,,,,,,,,,,,,,,,,,,,,,,,,,,,,,,,,,,,,88,001,0,,2024-04-15_11h46.56.884,replicate_nsd,2023.2.3,59.92647189675796,2024-04-15 11h47.11.714314 -0400,
practice_images/paired_image_12_1.png,2,0,,,,,0,2,2,2,,,,,48.44362619799904,,,,,,,,,,,48.4290544939995,48.42915104899839,48.42916066599901,48.44362619799904,48.44362619799904,49.44476837599905,49.44476837599905,52.4435491489985,52.4435491489985,52.4435491489985,52.4435491489985,52.42835632999959,None,0,None,52.42879714299852,52.42883778399846,,,,,,,,,,,,,,,,,,,,,,,,,,,,,,,,,,,,,,,,,,,,,,,,,,,,,,,,,,,88,001,0,,2024-04-15_11h46.56.884,replicate_nsd,2023.2.3,59.92647189675796,2024-04-15 11h47.11.714314 -0400,
practice_images/paired_image_15_1.png,3,0,,,,,0,3,3,3,,,,,52.4435491489985,,,,,,,,,,,52.42917354899873,52.42926148799961,52.42927331999999,52.4435491489985,52.4435491489985,53.44454721500006,53.44454721500006,56.443449675998636,56.443449675998636,56.443449675998636,56.443449675998636,56.42826454399983,None,0,None,56.42868637999891,56.42872697299936,,,,,,,,,,,,,,,,,,,,,,,,,,,,,,,,,,,,,,,,,,,,,,,,,,,,,,,,,,,88,001,0,,2024-04-15_11h46.56.884,replicate_nsd,2023.2.3,59.92647189675796,2024-04-15 11h47.11.714314 -0400,
practice_images/paired_image_27_1.png,4,0,,,,,0,4,4,4,,,,,56.443449675998636,,,,,,,,,,,56.429007445000025,56.42909466299898,56.42910684299932,56.443449675998636,56.443449675998636,57.444406827999046,57.444406827999046,60.443528564999724,60.443528564999724,60.443528564999724,60.443528564999724,60.42816129199855,2,0,None,60.42893561499841,60.428980321999916,2.610015613001451,None,,,,,,,,,,,,,,,,,,,,,,,,,,,,,,,,,,,,,,,,,,,,,,,,,,,,,,,,,88,001,0,,2024-04-15_11h46.56.884,replicate_nsd,2023.2.3,59.92647189675796,2024-04-15 11h47.11.714314 -0400,
practice_images/paired_image_22_2.png,5,0,,,,,0,5,5,5,,,,,60.443528564999724,,,,,,,,,,,60.429254787999525,60.42934736499956,60.4293593049988,60.443528564999724,60.443528564999724,61.444363409998914,61.444363409998914,64.44356201799928,64.44356201799928,64.44356201799928,64.44356201799928,64.42802312599997,None,0,"['2', '1']",64.42888620099984,64.42892927399953,,,"[0.33471372699932544, 0.3467418779982836]","[None, None]",,,,,,,,,,,,,,,,,,,,,,,,,,,,,,,,,,,,,,,,,,,,,,,,,,,,,,,88,001,0,,2024-04-15_11h46.56.884,replicate_nsd,2023.2.3,59.92647189675796,2024-04-15 11h47.11.714314 -0400,
practice_images/paired_image_24_1.png,6,0,,,,,0,6,6,6,,,,,64.44356201799928,,,,,,,,,,,64.42920600899924,64.42929297299997,64.4293047049996,64.44356201799928,64.44356201799928,65.4447648309997,65.4447648309997,68.44398974899923,68.44398974899923,68.44398974899923,68.44398974899923,68.42826522399992,None,0,None,68.42868655799975,68.42872732700016,,,,,,,,,,,,,,,,,,,,,,,,,,,,,,,,,,,,,,,,,,,,,,,,,,,,,,,,,,,88,001,0,,2024-04-15_11h46.56.884,replicate_nsd,2023.2.3,59.92647189675796,2024-04-15 11h47.11.714314 -0400,
practice_images/paired_image_36_2.png,7,0,,,,,0,7,7,7,,,,,68.44398974899923,,,,,,,,,,,68.42901277999954,68.42909993299872,68.42911163699864,68.44398974899923,68.44398974899923,69.44475621499987,69.44475621499987,72.44331750299898,72.44331750299898,72.44331750299898,72.44331750299898,72.4281447659996,None,0,None,72.4285658939989,72.42860593699879,,,,,,,,,,,,,,,,,,,,,,,,,,,,,,,,,,,,,,,,,,,,,,,,,,,,,,,,,,,88,001,0,,2024-04-15_11h46.56.884,replicate_nsd,2023.2.3,59.92647189675796,2024-04-15 11h47.11.714314 -0400,
practice_images/paired_image_4_2.png,8,0,,,,,0,8,8,8,,,,,72.44331750299898,,,,,,,,,,,72.42888391199995,72.42896944599852,72.42898096099998,72.44331750299898,72.44331750299898,73.44601560199953,73.44601560199953,76.44379502699849,76.44379502699849,76.44379502699849,76.44379502699849,76.42816752099861,None,0,None,76.42859535299976,76.42863658199894,,,,,,,,,,,,,,,,,,,,,,,,,,,,,,,,,,,,,,,,,,,,,,,,,,,,,,,,,,,88,001,0,,2024-04-15_11h46.56.884,replicate_nsd,2023.2.3,59.92647189675796,2024-04-15 11h47.11.714314 -0400,
practice_images/paired_image_2_1.png,9,0,,,,,0,9,9,9,,,,,76.44379502699849,,,,,,,,,,,76.42895287399915,76.4290458309988,76.42905814000005,76.44379502699849,76.44379502699849,77.44439441799841,77.44439441799841,80.44420244899993,80.44420244899993,80.44420244899993,80.44420244899993,80.42825112599894,None,0,None,80.42866757299998,80.42870850399959,,,,,,,,,,,,,,,,,,,,,,,,,,,,,,,,,,,,,,,,,,,,,,,,,,,,,,,,,,,88,001,0,,2024-04-15_11h46.56.884,replicate_nsd,2023.2.3,59.92647189675796,2024-04-15 11h47.11.714314 -0400,
blank.jpg,10,1,,,,,0,10,10,10,,,,,80.44420244899993,,,,,,,,,,,80.42899221999869,80.42908006399921,80.42909198099915,,,,,,,,,80.43470720799996,None,0,None,80.43502697499935,84.4780152939984,,,,,80.44420244899993,84.49338938099936,,,,,,,,,,,,,,,,,,,,,,,,,,,,,,,,,,,,,,,,,,,,,,,,,,,,,88,001,0,,2024-04-15_11h46.56.884,replicate_nsd,2023.2.3,59.92647189675796,2024-04-15 11h47.11.714314 -0400,
practice_images/paired_image_15_2.png,11,0,,,,,0,11,11,11,,,,,84.49338938099936,,,,,,,,,,,84.47840000799988,84.47848517099919,84.47849738699915,84.49338938099936,84.49338938099936,85.49468930699913,85.49468930699913,88.49345129299945,88.49345129299945,88.49345129299945,88.49345129299945,88.47790303900001,None,0,None,88.47832530899905,88.47836728399852,,,,,,,,,,,,,,,,,,,,,,,,,,,,,,,,,,,,,,,,,,,,,,,,,,,,,,,,,,,88,001,0,,2024-04-15_11h46.56.884,replicate_nsd,2023.2.3,59.92647189675796,2024-04-15 11h47.11.714314 -0400,
practice_images/paired_image_29_1.png,12,0,,,,,0,12,12,12,,,,,88.49345129299945,,,,,,,,,,,88.47864657399987,88.47873304899986,88.4787451939992,88.49345129299945,88.49345129299945,89.49436709699876,89.49436709699876,92.49352850099967,92.49352850099967,92.49352850099967,92.49352850099967,92.47773573999984,None,0,None,92.47815524899852,92.47819542499929,,,,,,,,,,,,,,,,,,,,,,,,,,,,,,,,,,,,,,,,,,,,,,,,,,,,,,,,,,,88,001,0,,2024-04-15_11h46.56.884,replicate_nsd,2023.2.3,59.92647189675796,2024-04-15 11h47.11.714314 -0400,
practice_images/paired_image_28_1.png,13,0,,,,,0,13,13,13,,,,,92.49352850099967,,,,,,,,,,,92.47847563899995,92.47856302999935,92.47857468199982,92.49352850099967,92.49352850099967,93.49427752199881,93.49427752199881,96.4934250819988,96.4934250819988,96.4934250819988,96.4934250819988,96.47787460699874,None,0,None,96.47829717899913,96.47833731399987,,,,,,,,,,,,,,,,,,,,,,,,,,,,,,,,,,,,,,,,,,,,,,,,,,,,,,,,,,,88,001,0,,2024-04-15_11h46.56.884,replicate_nsd,2023.2.3,59.92647189675796,2024-04-15 11h47.11.714314 -0400,
practice_images/paired_image_18_1.png,14,0,,,,,0,14,14,14,,,,,96.4934250819988,,,,,,,,,,,96.47861432999889,96.47870098899875,96.47871272599878,96.4934250819988,96.4934250819988,97.49409219399968,97.49409219399968,100.49397875700015,100.49397875700015,100.49397875700015,100.49397875700015,100.47809305199917,None,0,None,100.47851270799947,100.47855263800011,,,,,,,,,,,,,,,,,,,,,,,,,,,,,,,,,,,,,,,,,,,,,,,,,,,,,,,,,,,88,001,0,,2024-04-15_11h46.56.884,replicate_nsd,2023.2.3,59.92647189675796,2024-04-15 11h47.11.714314 -0400,
practice_images/paired_image_6_2.png,15,0,,,,,0,15,15,15,,,,,100.49397875700015,,,,,,,,,,,100.4788329919993,100.47892090799905,100.47893279599884,100.49397875700015,100.49397875700015,101.49438820499927,101.49438820499927,104.49402319000001,104.49402319000001,104.49402319000001,104.49402319000001,104.47819073999926,None,0,None,104.47861696200016,104.47865818799983,,,,,,,,,,,,,,,,,,,,,,,,,,,,,,,,,,,,,,,,,,,,,,,,,,,,,,,,,,,88,001,0,,2024-04-15_11h46.56.884,replicate_nsd,2023.2.3,59.92647189675796,2024-04-15 11h47.11.714314 -0400,
practice_images/paired_image_20_2.png,16,0,,,,,0,16,16,16,,,,,104.49402319000001,,,,,,,,,,,104.47895460799919,104.47904289199869,104.4790554430001,104.49402319000001,104.49402319000001,105.49465115099883,105.49465115099883,108.49331861599967,108.49331861599967,108.49331861599967,108.49331861599967,108.47819427099967,None,0,None,108.47861770499912,108.47865868000008,,,,,,,,,,,,,,,,,,,,,,,,,,,,,,,,,,,,,,,,,,,,,,,,,,,,,,,,,,,88,001,0,,2024-04-15_11h46.56.884,replicate_nsd,2023.2.3,59.92647189675796,2024-04-15 11h47.11.714314 -0400,
practice_images/paired_image_19_1.png,17,0,,,,,0,17,17,17,,,,,108.49331861599967,,,,,,,,,,,108.47896116999982,108.4790503690001,108.47906215199873,108.49331861599967,108.49331861599967,109.49435473299854,109.49435473299854,112.4941436249992,112.4941436249992,112.4941436249992,112.4941436249992,112.47760239799936,None,0,None,112.4780231599998,112.47806401900016,,,,,,,,,,,,,,,,,,,,,,,,,,,,,,,,,,,,,,,,,,,,,,,,,,,,,,,,,,,88,001,0,,2024-04-15_11h46.56.884,replicate_nsd,2023.2.3,59.92647189675796,2024-04-15 11h47.11.714314 -0400,
practice_images/paired_image_33_1.png,18,0,,,,,0,18,18,18,,,,,112.4941436249992,,,,,,,,,,,112.47834146499918,112.47842890499851,112.47844081499898,112.4941436249992,112.4941436249992,113.49437860399848,113.49437860399848,116.49386590199902,116.49386590199902,116.49386590199902,116.49386590199902,116.47806473999844,None,0,None,116.4784917979996,116.47853265999947,,,,,,,,,,,,,,,,,,,,,,,,,,,,,,,,,,,,,,,,,,,,,,,,,,,,,,,,,,,88,001,0,,2024-04-15_11h46.56.884,replicate_nsd,2023.2.3,59.92647189675796,2024-04-15 11h47.11.714314 -0400,
practice_images/paired_image_30_1.png,19,0,,,,,0,19,19,19,,,,,116.49386590199902,,,,,,,,,,,116.47883114499928,116.47891825599982,116.47893072899933,116.49386590199902,116.49386590199902,117.49390564199894,117.49390564199894,120.49653002699961,120.49653002699961,120.49653002699961,120.49653002699961,120.47812476599938,None,0,None,120.47854924399871,120.47858947399982,,,,,,,,,,,,,,,,,,,,,,,,,,,,,,,,,,,,,,,,,,,,,,,,,,,,,,,,,,,88,001,0,,2024-04-15_11h46.56.884,replicate_nsd,2023.2.3,59.92647189675796,2024-04-15 11h47.11.714314 -0400,
,,,,,,,,,,,,,,,,,,,,,,,,,,,,,,,,,,,,,,,,,,,,,,,,,120.47864794299858,120.49653002699961,120.49653002699961,129.56117514799917,1,9.061719581999569,None,,,,,,,,,,,,,,,,,,,,,,,,,,,,,,,,,,,,,,,,,,,,,,88,001,0,,2024-04-15_11h46.56.884,replicate_nsd,2023.2.3,59.92647189675796,2024-04-15 11h47.11.714314 -0400,
,,,,,,,,,,,,,,,,,,,,,,,,,,,,,,,,,,,,,,,,,,,,,,,,,,,,,,,,129.56119977199887,129.57754702300008,129.57754702300008,132.99357927899837,equal,3.4086998790007783,None,,,,,,,,,,,,,,,,,,,,,,,,,,,,,,,,,,,,,,,88,001,0,,2024-04-15_11h46.56.884,replicate_nsd,2023.2.3,59.92647189675796,2024-04-15 11h47.11.714314 -0400,
images/image_260_seed_1.png,0,0,0,0,0,"[9, 19, 29, 39, 49, 59, 68, 69, 70, 71]",,,,,0,0,0,0,133.10561070099902,,,,,,,,,,,,,,,,,,,,,,,,,,,,,,,,,,,,,,,,,,,,,,,,133.07111121799971,133.0711844239995,133.07119196499843,133.10561070099902,133.10561070099902,134.09431377299916,134.09431377299916,137.09787547699852,137.09787547699852,137.09787547699852,137.09787547699852,137.07781009300015,None,0,None,137.0798338609984,137.07987387899993,None,137.08056367300014,137.08061576,None,137.0813134129985,137.08135082099943,None,,,,,,,,,,,,,,,88,001,0,,2024-04-15_11h46.56.884,replicate_nsd,2023.2.3,59.92647189675796,2024-04-15 11h47.11.714314 -0400,
images/image_282_seed_1.png,1,0,0,0,0,"[9, 19, 29, 39, 49, 59, 68, 69, 70, 71]",,,,,0,1,1,1,137.09787547699852,,,,,,,,,,,,,,,,,,,,,,,,,,,,,,,,,,,,,,,,,,,,,,,,137.08226988899878,137.08236817399847,137.08237885199924,137.09787547699852,137.09787547699852,138.09438297899942,138.09438297899942,141.09369342699938,141.09369342699938,141.09369342699938,141.09369342699938,141.0778449599984,None,0,None,141.07827492199976,141.07831876899945,None,141.07843197799957,141.07848675700006,None,141.07859758099949,141.07863375499983,None,,,,,,,,,,,,,,,88,001,0,,2024-04-15_11h46.56.884,replicate_nsd,2023.2.3,59.92647189675796,2024-04-15 11h47.11.714314 -0400,
images/image_18_seed_1.png,2,0,0,0,0,"[9, 19, 29, 39, 49, 59, 68, 69, 70, 71]",,,,,0,2,2,2,141.09369342699938,,,,,,,,,,,,,,,,,,,,,,,,,,,,,,,,,,,,,,,,,,,,,,,,141.07901471399964,141.0791318470001,141.07914524399894,141.09369342699938,141.09369342699938,142.09427916299865,142.09427916299865,145.09371679299875,145.09371679299875,145.09371679299875,145.09371679299875,145.07774143499955,None,0,None,145.07820322799853,145.0782525859995,None,145.07837161399948,145.0784292319986,None,145.07854495399988,145.07858115999989,None,,,,,,,,,,,,,,,88,001,0,,2024-04-15_11h46.56.884,replicate_nsd,2023.2.3,59.92647189675796,2024-04-15 11h47.11.714314 -0400,
images/image_30_seed_1.png,3,0,0,0,0,"[9, 19, 29, 39, 49, 59, 68, 69, 70, 71]",,,,,0,3,3,3,145.09371679299875,,,,,,,,,,,,,,,,,,,,,,,,,,,,,,,,,,,,,,,,,,,,,,,,145.0789703499995,145.0790932609998,145.07910656999957,145.09371679299875,145.09371679299875,146.09421153699986,146.09421153699986,149.0939106349997,149.0939106349997,149.0939106349997,149.0939106349997,149.07690120499865,None,0,None,149.07724573299856,149.0772806770001,None,149.07737324499976,149.07741741899918,None,149.07750844600014,149.07753802599836,None,,,,,,,,,,,,,,,88,001,0,,2024-04-15_11h46.56.884,replicate_nsd,2023.2.3,59.92647189675796,2024-04-15 11h47.11.714314 -0400,
images/image_438_seed_1.png,4,0,0,0,0,"[9, 19, 29, 39, 49, 59, 68, 69, 70, 71]",,,,,0,4,4,4,149.0939106349997,,,,,,,,,,,,,,,,,,,,,,,,,,,,,,,,,,,,,,,,,,,,,,,,149.0778798880001,149.0779724059994,149.07798268499937,149.0939106349997,149.0939106349997,150.09427945599964,150.09427945599964,153.09370927300006,153.09370927300006,153.09370927300006,153.09370927300006,153.07774729599987,None,0,None,153.07817993499884,153.07822395899893,None,153.078337732999,153.07839327599868,None,153.07850600499842,153.07854261899956,None,,,,,,,,,,,,,,,88,001,0,,2024-04-15_11h46.56.884,replicate_nsd,2023.2.3,59.92647189675796,2024-04-15 11h47.11.714314 -0400,
images/image_471_seed_1.png,5,0,0,0,0,"[9, 19, 29, 39, 49, 59, 68, 69, 70, 71]",,,,,0,5,5,5,153.09370927300006,,,,,,,,,,,,,,,,,,,,,,,,,,,,,,,,,,,,,,,,,,,,,,,,153.07893862499986,153.07905409499836,153.07906745999935,153.09370927300006,153.09370927300006,154.09432923999884,154.09432923999884,157.09358316199905,157.09358316199905,157.09358316199905,157.09358316199905,157.0777495179991,None,0,None,157.07843927799877,157.0784846939987,None,157.0786030039999,157.07865937499992,None,157.07878628199978,157.07882424799936,None,,,,,,,,,,,,,,,88,001,0,,2024-04-15_11h46.56.884,replicate_nsd,2023.2.3,59.92647189675796,2024-04-15 11h47.11.714314 -0400,
images/image_660_seed_1.png,6,0,0,0,0,"[9, 19, 29, 39, 49, 59, 68, 69, 70, 71]",,,,,0,6,6,6,157.09358316199905,,,,,,,,,,,,,,,,,,,,,,,,,,,,,,,,,,,,,,,,,,,,,,,,157.07921161099875,157.0793288019995,157.0793421469989,157.09358316199905,157.09358316199905,158.09433763299967,158.09433763299967,161.09375646099943,161.09375646099943,161.09375646099943,161.09375646099943,161.0777085969985,None,0,None,161.07813761999932,161.078181683999,None,161.0782978649986,161.0783540529992,None,161.0784686629995,161.07850560099905,None,,,,,,,,,,,,,,,88,001,0,,2024-04-15_11h46.56.884,replicate_nsd,2023.2.3,59.92647189675796,2024-04-15 11h47.11.714314 -0400,
images/image_223_seed_1.png,7,0,0,0,0,"[9, 19, 29, 39, 49, 59, 68, 69, 70, 71]",,,,,0,7,7,7,161.09375646099943,,,,,,,,,,,,,,,,,,,,,,,,,,,,,,,,,,,,,,,,,,,,,,,,161.0788848409993,161.07900260099996,161.07901764599956,161.09375646099943,161.09375646099943,162.09422878199985,162.09422878199985,165.09365475199957,165.09365475199957,165.09365475199957,165.09365475199957,165.077711336,None,0,None,165.0781443479991,165.07818931199836,None,165.0783048459998,165.07836016500005,None,165.07847406600013,165.07851029599988,None,,,,,,,,,,,,,,,88,001,0,,2024-04-15_11h46.56.884,replicate_nsd,2023.2.3,59.92647189675796,2024-04-15 11h47.11.714314 -0400,
images/image_205_seed_1.png,8,0,0,0,0,"[9, 19, 29, 39, 49, 59, 68, 69, 70, 71]",,,,,0,8,8,8,165.09365475199957,,,,,,,,,,,,,,,,,,,,,,,,,,,,,,,,,,,,,,,,,,,,,,,,165.07890871199925,165.07902627099975,165.0790397410001,165.09365475199957,165.09365475199957,166.09392858999854,166.09392858999854,169.0941911509999,169.0941911509999,169.0941911509999,169.0941911509999,169.07720699999845,None,0,None,169.0775591599995,169.0775937849994,None,169.07768625399876,169.077731116,None,169.0778216939998,169.07785097799933,None,,,,,,,,,,,,,,,88,001,0,,2024-04-15_11h46.56.884,replicate_nsd,2023.2.3,59.92647189675796,2024-04-15 11h47.11.714314 -0400,
blank.jpg,9,1,0,0,0,"[9, 19, 29, 39, 49, 59, 68, 69, 70, 71]",,,,,0,9,9,9,169.0941911509999,,,,,,,,,,,,,,,,,,,,,,,,,,,,,,,,,,,,,,,,,,,,,,,,169.07837761999872,169.07849852899926,169.07850969799983,,,,,,,,,169.08207225399929,None,0,None,169.0823649869999,173.07787720099986,None,173.0782008669994,173.07828240799972,None,173.07841565599847,173.0784534129998,None,169.0941911509999,169.0941911509999,173.0940289909995,173.0940289909995,,,,,,,,,,,88,001,0,,2024-04-15_11h46.56.884,replicate_nsd,2023.2.3,59.92647189675796,2024-04-15 11h47.11.714314 -0400,
images/image_491_seed_1.png,10,0,0,0,0,"[9, 19, 29, 39, 49, 59, 68, 69, 70, 71]",,,,,0,10,10,10,173.0940289909995,,,,,,,,,,,,,,,,,,,,,,,,,,,,,,,,,,,,,,,,,,,,,,,,173.07885565799916,173.07897379599854,173.07898861799913,173.0940289909995,173.0940289909995,174.09427910299928,174.09427910299928,177.09365764799986,177.09365764799986,177.09365764799986,177.09365764799986,177.0777004219999,None,0,None,177.0781671299992,177.07821405199866,None,177.07832910499928,177.0783858149989,None,177.07849997099947,177.07853686399903,None,,,,,,,,,,,,,,,88,001,0,,2024-04-15_11h46.56.884,replicate_nsd,2023.2.3,59.92647189675796,2024-04-15 11h47.11.714314 -0400,
images/image_234_seed_1.png,11,0,0,0,0,"[9, 19, 29, 39, 49, 59, 68, 69, 70, 71]",,,,,0,11,11,11,177.09365764799986,,,,,,,,,,,,,,,,,,,,,,,,,,,,,,,,,,,,,,,,,,,,,,,,177.07892961200014,177.07905341399965,177.0790666869998,177.09365764799986,177.09365764799986,178.09278523299872,178.09278523299872,181.09394373399846,181.09394373399846,181.09394373399846,181.09394373399846,181.07794221699987,None,0,None,181.07837935399948,181.07842349800012,None,181.07853661399895,181.07859219300008,None,181.07872023799973,181.07875830099874,None,,,,,,,,,,,,,,,88,001,0,,2024-04-15_11h46.56.884,replicate_nsd,2023.2.3,59.92647189675796,2024-04-15 11h47.11.714314 -0400,
images/image_382_seed_1.png,12,0,0,0,0,"[9, 19, 29, 39, 49, 59, 68, 69, 70, 71]",,,,,0,12,12,12,181.09394373399846,,,,,,,,,,,,,,,,,,,,,,,,,,,,,,,,,,,,,,,,,,,,,,,,181.07914974300002,181.07926855499863,181.0792818359987,181.09394373399846,181.09394373399846,182.09423913499995,182.09423913499995,185.09390034999888,185.09390034999888,185.09390034999888,185.09390034999888,185.07776454099985,None,0,None,185.07819150399882,185.0782357349999,None,185.0783500669986,185.0784064189993,None,185.07851890099846,185.07855602999916,None,,,,,,,,,,,,,,,88,001,0,,2024-04-15_11h46.56.884,replicate_nsd,2023.2.3,59.92647189675796,2024-04-15 11h47.11.714314 -0400,
images/image_58_seed_1.png,13,0,0,0,0,"[9, 19, 29, 39, 49, 59, 68, 69, 70, 71]",,,,,0,13,13,13,185.09390034999888,,,,,,,,,,,,,,,,,,,,,,,,,,,,,,,,,,,,,,,,,,,,,,,,185.07893787399917,185.07905543800007,185.07906870999977,185.09390034999888,185.09390034999888,186.09434314699865,186.09434314699865,189.0942157339996,189.0942157339996,189.0942157339996,189.0942157339996,189.07677391799916,None,0,None,189.07712271999844,189.07715746399845,None,189.07724930699987,189.07729411799846,None,189.07738415899985,189.07741408499896,None,,,,,,,,,,,,,,,88,001,0,,2024-04-15_11h46.56.884,replicate_nsd,2023.2.3,59.92647189675796,2024-04-15 11h47.11.714314 -0400,
images/image_187_seed_1.png,14,0,0,0,0,"[9, 19, 29, 39, 49, 59, 68, 69, 70, 71]",,,,,0,14,14,14,189.0942157339996,,,,,,,,,,,,,,,,,,,,,,,,,,,,,,,,,,,,,,,,,,,,,,,,189.07772146299976,189.07781490499838,189.07782565199886,189.0942157339996,189.0942157339996,190.09417984899846,190.09417984899846,193.09314993799853,193.09314993799853,193.09314993799853,193.09314993799853,193.07792409099966,None,0,None,193.07846561399856,193.07850968799903,None,193.07862284199837,193.07867874899966,None,193.07879082499858,193.07882781099943,None,,,,,,,,,,,,,,,88,001,0,,2024-04-15_11h46.56.884,replicate_nsd,2023.2.3,59.92647189675796,2024-04-15 11h47.11.714314 -0400,
images/image_293_seed_1.png,15,0,0,0,0,"[9, 19, 29, 39, 49, 59, 68, 69, 70, 71]",,,,,0,15,15,15,193.09314993799853,,,,,,,,,,,,,,,,,,,,,,,,,,,,,,,,,,,,,,,,,,,,,,,,193.0792059689993,193.07932309999887,193.079336331999,193.09314993799853,193.09314993799853,194.09668607399908,194.09668607399908,197.09353026200006,197.09353026200006,197.09353026200006,197.09353026200006,197.077644519999,None,0,None,197.0780757349985,197.07811044799928,None,197.07820080300007,197.0782453949996,None,197.07833541499895,197.07836471099836,None,,,,,,,,,,,,,,,88,001,0,,2024-04-15_11h46.56.884,replicate_nsd,2023.2.3,59.92647189675796,2024-04-15 11h47.11.714314 -0400,
images/image_623_seed_1.png,16,0,0,0,0,"[9, 19, 29, 39, 49, 59, 68, 69, 70, 71]",,,,,0,16,16,16,197.09353026200006,,,,,,,,,,,,,,,,,,,,,,,,,,,,,,,,,,,,,,,,,,,,,,,,197.07866648099844,197.07876739999847,197.07877833599923,197.09353026200006,197.09353026200006,198.09395644100005,198.09395644100005,201.09356722099983,201.09356722099983,201.09356722099983,201.09356722099983,201.07773542499854,None,0,None,201.07816478699897,201.07820803199866,None,201.0783218079996,201.078377242,None,201.07849075599916,201.0785279920001,None,,,,,,,,,,,,,,,88,001,0,,2024-04-15_11h46.56.884,replicate_nsd,2023.2.3,59.92647189675796,2024-04-15 11h47.11.714314 -0400,
images/image_338_seed_1.png,17,0,0,0,0,"[9, 19, 29, 39, 49, 59, 68, 69, 70, 71]",,,,,0,17,17,17,201.09356722099983,,,,,,,,,,,,,,,,,,,,,,,,,,,,,,,,,,,,,,,,,,,,,,,,201.07891272300003,201.0790299379987,201.0790433659986,201.09356722099983,201.09356722099983,202.09387389699987,202.09387389699987,205.09370876199864,205.09370876199864,205.09370876199864,205.09370876199864,205.07775378599945,None,0,None,205.07818648699867,205.0782295079989,None,205.07834367099895,205.0783990330001,None,205.07851100299922,205.07854760499868,None,,,,,,,,,,,,,,,88,001,0,,2024-04-15_11h46.56.884,replicate_nsd,2023.2.3,59.92647189675796,2024-04-15 11h47.11.714314 -0400,
images/image_383_seed_1.png,18,0,0,0,0,"[9, 19, 29, 39, 49, 59, 68, 69, 70, 71]",,,,,0,18,18,18,205.09370876199864,,,,,,,,,,,,,,,,,,,,,,,,,,,,,,,,,,,,,,,,,,,,,,,,205.07894714099893,205.07906456899946,205.0790779149993,205.09370876199864,205.09370876199864,206.09385539100003,206.09385539100003,209.09412272999907,209.09412272999907,209.09412272999907,209.09412272999907,209.07739657699858,None,0,None,209.07782718899944,209.07787104199997,None,209.07798464699954,209.07804052499887,None,209.0781520519995,209.0781876889996,None,,,,,,,,,,,,,,,88,001,0,,2024-04-15_11h46.56.884,replicate_nsd,2023.2.3,59.92647189675796,2024-04-15 11h47.11.714314 -0400,
blank.jpg,19,1,0,0,0,"[9, 19, 29, 39, 49, 59, 68, 69, 70, 71]",,,,,0,19,19,19,209.09412272999907,,,,,,,,,,,,,,,,,,,,,,,,,,,,,,,,,,,,,,,,,,,,,,,,209.07856768799866,209.07868573999986,209.07869889499852,,,,,,,,,209.08250116099953,None,0,None,209.08280503099922,213.07773337699837,None,213.0779473269995,213.0780078889984,None,213.07813641399844,213.07817472899842,None,209.09412272999907,209.09412272999907,213.0936653939989,213.0936653939989,,,,,,,,,,,88,001,0,,2024-04-15_11h46.56.884,replicate_nsd,2023.2.3,59.92647189675796,2024-04-15 11h47.11.714314 -0400,
images/image_250_seed_1.png,20,0,0,0,0,"[9, 19, 29, 39, 49, 59, 68, 69, 70, 71]",,,,,0,20,20,20,213.0936653939989,,,,,,,,,,,,,,,,,,,,,,,,,,,,,,,,,,,,,,,,,,,,,,,,213.0785717059989,213.07869024299907,213.07870314299907,213.0936653939989,213.0936653939989,214.0942157849986,214.0942157849986,217.09358163999968,217.09358163999968,217.09358163999968,217.09358163999968,217.07771281499845,None,0,None,217.07814208999844,217.07818814999882,None,217.07830222699886,217.07835806299954,None,217.07847310399848,217.07850986599988,None,,,,,,,,,,,,,,,88,001,0,,2024-04-15_11h46.56.884,replicate_nsd,2023.2.3,59.92647189675796,2024-04-15 11h47.11.714314 -0400,
images/image_412_seed_1.png,21,0,0,0,0,"[9, 19, 29, 39, 49, 59, 68, 69, 70, 71]",,,,,0,21,21,21,217.09358163999968,,,,,,,,,,,,,,,,,,,,,,,,,,,,,,,,,,,,,,,,,,,,,,,,217.07889077399886,217.07900960999905,217.07902468799875,217.09358163999968,217.09358163999968,218.0940281509993,218.0940281509993,221.09294537999995,221.09294537999995,221.09294537999995,221.09294537999995,221.07756808999875,None,0,None,221.078001423999,221.07804622899857,None,221.07816198299952,221.07821769199836,None,221.07833252099954,221.07836931899874,None,,,,,,,,,,,,,,,88,001,0,,2024-04-15_11h46.56.884,replicate_nsd,2023.2.3,59.92647189675796,2024-04-15 11h47.11.714314 -0400,
images/image_329_seed_1.png,22,0,0,0,0,"[9, 19, 29, 39, 49, 59, 68, 69, 70, 71]",,,,,0,22,22,22,221.09294537999995,,,,,,,,,,,,,,,,,,,,,,,,,,,,,,,,,,,,,,,,,,,,,,,,221.0787522699993,221.07889311100007,221.0789044969988,221.09294537999995,221.09294537999995,222.094118007999,222.094118007999,225.09272017900003,225.09272017900003,225.09272017900003,225.09272017900003,225.07852946099956,None,0,None,225.078729810999,225.07876715899874,None,225.07882007399894,225.07884679699964,None,225.07889815499948,225.07891544199992,None,,,,,,,,,,,,,,,88,001,0,,2024-04-15_11h46.56.884,replicate_nsd,2023.2.3,59.92647189675796,2024-04-15 11h47.11.714314 -0400,
images/image_39_seed_1.png,23,0,0,0,0,"[9, 19, 29, 39, 49, 59, 68, 69, 70, 71]",,,,,0,23,23,23,225.09272017900003,,,,,,,,,,,,,,,,,,,,,,,,,,,,,,,,,,,,,,,,,,,,,,,,225.0790933039989,225.0791476909999,225.07915365199915,225.09272017900003,225.09272017900003,226.0939082879995,226.0939082879995,229.09308938699905,229.09308938699905,229.09308938699905,229.09308938699905,229.07774781499938,None,0,None,229.07817971799886,229.07822366999972,None,229.07833976999973,229.07839700600016,None,229.0785107569991,229.07854787999895,None,,,,,,,,,,,,,,,88,001,0,,2024-04-15_11h46.56.884,replicate_nsd,2023.2.3,59.92647189675796,2024-04-15 11h47.11.714314 -0400,
images/image_650_seed_1.png,24,0,0,0,0,"[9, 19, 29, 39, 49, 59, 68, 69, 70, 71]",,,,,0,24,24,24,229.09308938699905,,,,,,,,,,,,,,,,,,,,,,,,,,,,,,,,,,,,,,,,,,,,,,,,229.0789434819999,229.07906073199956,229.07907432899992,229.09308938699905,229.09308938699905,230.09382360400014,230.09382360400014,233.09350589899987,233.09350589899987,233.09350589899987,233.09350589899987,233.07770415199957,None,0,None,233.07813457099837,233.0781787399992,None,233.0782934229992,233.0783495509986,None,233.07846268899993,233.0784997539995,None,,,,,,,,,,,,,,,88,001,0,,2024-04-15_11h46.56.884,replicate_nsd,2023.2.3,59.92647189675796,2024-04-15 11h47.11.714314 -0400,
images/image_733_seed_1.png,25,0,0,0,0,"[9, 19, 29, 39, 49, 59, 68, 69, 70, 71]",,,,,0,25,25,25,233.09350589899987,,,,,,,,,,,,,,,,,,,,,,,,,,,,,,,,,,,,,,,,,,,,,,,,233.07889321799848,233.07901092300017,233.07902421299877,233.09350589899987,233.09350589899987,234.09417638899868,234.09417638899868,237.0932288699987,237.0932288699987,237.0932288699987,237.0932288699987,237.07730206199994,None,0,None,237.07773098799953,237.07777452799928,None,237.07788786399942,237.07794332499907,None,237.07805662899955,237.07809314099904,None,,,,,,,,,,,,,,,88,001,0,,2024-04-15_11h46.56.884,replicate_nsd,2023.2.3,59.92647189675796,2024-04-15 11h47.11.714314 -0400,
images/image_512_seed_1.png,26,0,0,0,0,"[9, 19, 29, 39, 49, 59, 68, 69, 70, 71]",,,,,0,26,26,26,237.0932288699987,,,,,,,,,,,,,,,,,,,,,,,,,,,,,,,,,,,,,,,,,,,,,,,,237.0784685919989,237.07858679199853,237.07860008499847,237.0932288699987,237.0932288699987,238.093798255999,238.093798255999,241.09311572099978,241.09311572099978,241.09311572099978,241.09311572099978,241.0777360889988,None,0,None,241.07816879799975,241.07821260699893,None,241.07832661700013,241.07838258899938,None,241.07849691299998,241.078534373999,None,,,,,,,,,,,,,,,88,001,0,,2024-04-15_11h46.56.884,replicate_nsd,2023.2.3,59.92647189675796,2024-04-15 11h47.11.714314 -0400,
images/image_15_seed_1.png,27,0,0,0,0,"[9, 19, 29, 39, 49, 59, 68, 69, 70, 71]",,,,,0,27,27,27,241.09311572099978,,,,,,,,,,,,,,,,,,,,,,,,,,,,,,,,,,,,,,,,,,,,,,,,241.07893682899885,241.07905415999994,241.07906731399999,241.09311572099978,241.09311572099978,242.0939188759985,242.0939188759985,245.0935587999993,245.0935587999993,245.0935587999993,245.0935587999993,245.0776835859997,None,0,None,245.07810943299955,245.07815369699892,None,245.0782674059992,245.07832222099933,None,245.07843421500002,245.0784711139986,None,,,,,,,,,,,,,,,88,001,0,,2024-04-15_11h46.56.884,replicate_nsd,2023.2.3,59.92647189675796,2024-04-15 11h47.11.714314 -0400,
images/image_380_seed_1.png,28,0,0,0,0,"[9, 19, 29, 39, 49, 59, 68, 69, 70, 71]",,,,,0,28,28,28,245.0935587999993,,,,,,,,,,,,,,,,,,,,,,,,,,,,,,,,,,,,,,,,,,,,,,,,245.0788512349991,245.07896862399866,245.0789817299992,245.0935587999993,245.0935587999993,246.0936793159999,246.0936793159999,249.0941729949991,249.0941729949991,249.0941729949991,249.0941729949991,249.07683879099932,None,0,None,249.0772222309988,249.07725787199888,None,249.07735065899942,249.07739510699867,None,249.07748579500003,249.07751540499885,None,,,,,,,,,,,,,,,88,001,0,,2024-04-15_11h46.56.884,replicate_nsd,2023.2.3,59.92647189675796,2024-04-15 11h47.11.714314 -0400,
blank.jpg,29,1,0,0,0,"[9, 19, 29, 39, 49, 59, 68, 69, 70, 71]",,,,,0,29,29,29,249.0941729949991,,,,,,,,,,,,,,,,,,,,,,,,,,,,,,,,,,,,,,,,,,,,,,,,249.07785387900003,249.07794871799888,249.07795939199968,,,,,,,,,249.08036779099893,None,0,None,249.08064838499922,253.07755911599997,None,253.07777531099964,253.0778366659997,None,253.07796586399854,253.07800396199855,None,249.0941729949991,249.0941729949991,253.09287073499945,253.09287073499945,,,,,,,,,,,88,001,0,,2024-04-15_11h46.56.884,replicate_nsd,2023.2.3,59.92647189675796,2024-04-15 11h47.11.714314 -0400,
images/image_423_seed_1.png,30,0,0,0,0,"[9, 19, 29, 39, 49, 59, 68, 69, 70, 71]",,,,,0,30,30,30,253.09287073499945,,,,,,,,,,,,,,,,,,,,,,,,,,,,,,,,,,,,,,,,,,,,,,,,253.078401372999,253.07851950199984,253.07853283199984,253.09287073499945,253.09287073499945,254.09361979200003,254.09361979200003,257.0936825809986,257.0936825809986,257.0936825809986,257.0936825809986,257.0773437809985,None,0,None,257.07777519699994,257.07782094699905,None,257.0779350789999,257.0779915369985,None,257.0781041559985,257.07814102999873,None,,,,,,,,,,,,,,,88,001,0,,2024-04-15_11h46.56.884,replicate_nsd,2023.2.3,59.92647189675796,2024-04-15 11h47.11.714314 -0400,
images/image_712_seed_1.png,31,0,0,0,0,"[9, 19, 29, 39, 49, 59, 68, 69, 70, 71]",,,,,0,31,31,31,257.0936825809986,,,,,,,,,,,,,,,,,,,,,,,,,,,,,,,,,,,,,,,,,,,,,,,,257.07852012699914,257.0786388870001,257.0786520089987,257.0936825809986,257.0936825809986,258.0936590809997,258.0936590809997,261.0932124709998,261.0932124709998,261.0932124709998,261.0932124709998,261.0778444359985,None,0,None,261.0783864699988,261.0784307319991,None,261.0785428849995,261.07859845299936,None,261.0787106560001,261.0787481269999,None,,,,,,,,,,,,,,,88,001,0,,2024-04-15_11h46.56.884,replicate_nsd,2023.2.3,59.92647189675796,2024-04-15 11h47.11.714314 -0400,
images/image_654_seed_1.png,32,0,0,0,0,"[9, 19, 29, 39, 49, 59, 68, 69, 70, 71]",,,,,0,32,32,32,261.0932124709998,,,,,,,,,,,,,,,,,,,,,,,,,,,,,,,,,,,,,,,,,,,,,,,,261.0791283269991,261.07924767499935,261.0792624939986,261.0932124709998,261.0932124709998,262.0936480829987,262.0936480829987,265.09323846499865,265.09323846499865,265.09323846499865,265.09323846499865,265.0764052300001,None,0,None,265.0766096309999,265.07663056399906,None,265.076681646,265.07670790999873,None,265.0767583179986,265.07677599399904,None,,,,,,,,,,,,,,,88,001,0,,2024-04-15_11h46.56.884,replicate_nsd,2023.2.3,59.92647189675796,2024-04-15 11h47.11.714314 -0400,
images/image_617_seed_1.png,33,0,0,0,0,"[9, 19, 29, 39, 49, 59, 68, 69, 70, 71]",,,,,0,33,33,33,265.09323846499865,,,,,,,,,,,,,,,,,,,,,,,,,,,,,,,,,,,,,,,,,,,,,,,,265.0769529709996,265.07700747599847,265.07701348699993,265.09323846499865,265.09323846499865,266.09274371299944,266.09274371299944,269.09363570999994,269.09363570999994,269.09363570999994,269.09363570999994,269.0767148819996,None,0,None,269.077058457,269.07709303999945,None,269.077181749999,269.07722526499856,None,269.0773131899987,269.0773417780001,None,,,,,,,,,,,,,,,88,001,0,,2024-04-15_11h46.56.884,replicate_nsd,2023.2.3,59.92647189675796,2024-04-15 11h47.11.714314 -0400,
images/image_416_seed_1.png,34,0,0,0,0,"[9, 19, 29, 39, 49, 59, 68, 69, 70, 71]",,,,,0,34,34,34,269.09363570999994,,,,,,,,,,,,,,,,,,,,,,,,,,,,,,,,,,,,,,,,,,,,,,,,269.07763962399986,269.077730605999,269.07774070899904,269.09363570999994,269.09363570999994,270.09381497100003,270.09381497100003,273.09362731500005,273.09362731500005,273.09362731500005,273.09362731500005,273.07785121599954,None,0,None,273.0783939699995,273.07843849899837,None,273.07855151199874,273.0786065839984,None,273.07871934099967,273.07875624199914,None,,,,,,,,,,,,,,,88,001,0,,2024-04-15_11h46.56.884,replicate_nsd,2023.2.3,59.92647189675796,2024-04-15 11h47.11.714314 -0400,
images/image_203_seed_1.png,35,0,0,0,0,"[9, 19, 29, 39, 49, 59, 68, 69, 70, 71]",,,,,0,35,35,35,273.09362731500005,,,,,,,,,,,,,,,,,,,,,,,,,,,,,,,,,,,,,,,,,,,,,,,,273.0791376819998,273.0792563719988,273.0792710409987,273.09362731500005,273.09362731500005,274.0941415419984,274.0941415419984,277.09315323699957,277.09315323699957,277.09315323699957,277.09315323699957,277.0773509339997,None,0,None,277.0777813929999,277.07782481399954,None,277.07793905200015,277.0779932229998,None,277.07810579099896,277.07814264399894,None,,,,,,,,,,,,,,,88,001,0,,2024-04-15_11h46.56.884,replicate_nsd,2023.2.3,59.92647189675796,2024-04-15 11h47.11.714314 -0400,
images/image_316_seed_1.png,36,0,0,0,0,"[9, 19, 29, 39, 49, 59, 68, 69, 70, 71]",,,,,0,36,36,36,277.09315323699957,,,,,,,,,,,,,,,,,,,,,,,,,,,,,,,,,,,,,,,,,,,,,,,,277.078524311999,277.07864296299886,277.0786560010001,277.09315323699957,277.09315323699957,278.0964657989989,278.0964657989989,281.093415248999,281.093415248999,281.093415248999,281.093415248999,281.0771099099984,None,0,None,281.0775424299991,281.07758620799905,None,281.07769978899887,281.07775632099947,None,281.0778696019988,281.0779061919984,None,,,,,,,,,,,,,,,88,001,0,,2024-04-15_11h46.56.884,replicate_nsd,2023.2.3,59.92647189675796,2024-04-15 11h47.11.714314 -0400,
images/image_718_seed_1.png,37,0,0,0,0,"[9, 19, 29, 39, 49, 59, 68, 69, 70, 71]",,,,,0,37,37,37,281.093415248999,,,,,,,,,,,,,,,,,,,,,,,,,,,,,,,,,,,,,,,,,,,,,,,,281.0783924369989,281.0785098109991,281.07852314499905,281.093415248999,281.093415248999,282.09384324799976,282.09384324799976,285.0929556029987,285.0929556029987,285.0929556029987,285.0929556029987,285.07757664699966,None,0,None,285.078010797999,285.07805482000003,None,285.0781700869993,285.0782256099992,None,285.0783387599986,285.07837606999965,None,,,,,,,,,,,,,,,88,001,0,,2024-04-15_11h46.56.884,replicate_nsd,2023.2.3,59.92647189675796,2024-04-15 11h47.11.714314 -0400,
images/image_69_seed_1.png,38,0,0,0,0,"[9, 19, 29, 39, 49, 59, 68, 69, 70, 71]",,,,,0,38,38,38,285.0929556029987,,,,,,,,,,,,,,,,,,,,,,,,,,,,,,,,,,,,,,,,,,,,,,,,285.0787712069996,285.07888786199874,285.0789002949987,285.0929556029987,285.0929556029987,286.09408555699883,286.09408555699883,289.09414889599975,289.09414889599975,289.09414889599975,289.09414889599975,289.0772439510001,None,0,None,289.0776749249999,289.0777188920001,None,289.0778723200001,289.0779280030001,None,289.0780428019989,289.0780798959986,None,,,,,,,,,,,,,,,88,001,0,,2024-04-15_11h46.56.884,replicate_nsd,2023.2.3,59.92647189675796,2024-04-15 11h47.11.714314 -0400,
blank.jpg,39,1,0,0,0,"[9, 19, 29, 39, 49, 59, 68, 69, 70, 71]",,,,,0,39,39,39,289.09414889599975,,,,,,,,,,,,,,,,,,,,,,,,,,,,,,,,,,,,,,,,,,,,,,,,289.0784958939985,289.0786421599987,289.07865289299843,,,,,,,,,289.0820689199991,None,0,None,289.08236840599966,293.0776182619993,None,293.077831614999,293.07789174999925,None,293.0780214719998,293.078060156,None,289.09414889599975,289.09414889599975,293.09320601999934,293.09320601999934,,,,,,,,,,,88,001,0,,2024-04-15_11h46.56.884,replicate_nsd,2023.2.3,59.92647189675796,2024-04-15 11h47.11.714314 -0400,
images/image_117_seed_1.png,40,0,0,0,0,"[9, 19, 29, 39, 49, 59, 68, 69, 70, 71]",,,,,0,40,40,40,293.09320601999934,,,,,,,,,,,,,,,,,,,,,,,,,,,,,,,,,,,,,,,,,,,,,,,,293.0784556719991,293.0785717759991,293.0785849499989,293.09320601999934,293.09320601999934,294.0938957009985,294.0938957009985,297.0933956049994,297.0933956049994,297.0933956049994,297.0933956049994,297.0776195159997,None,0,None,297.0780544999998,297.07810016999974,None,297.0782162359992,297.0782727810001,None,297.0783877119993,297.0784252029989,None,,,,,,,,,,,,,,,88,001,0,,2024-04-15_11h46.56.884,replicate_nsd,2023.2.3,59.92647189675796,2024-04-15 11h47.11.714314 -0400,
images/image_447_seed_1.png,41,0,0,0,0,"[9, 19, 29, 39, 49, 59, 68, 69, 70, 71]",,,,,0,41,41,41,297.0933956049994,,,,,,,,,,,,,,,,,,,,,,,,,,,,,,,,,,,,,,,,,,,,,,,,297.0788270609992,297.07894504199976,297.0789584409995,297.0933956049994,297.0933956049994,298.0938796339997,298.0938796339997,301.09299529099917,301.09299529099917,301.09299529099917,301.09299529099917,301.07767610799965,None,0,None,301.0782153809996,301.078259676,None,301.07837255899904,301.0784283289995,None,301.07854114600013,301.07857745099864,None,,,,,,,,,,,,,,,88,001,0,,2024-04-15_11h46.56.884,replicate_nsd,2023.2.3,59.92647189675796,2024-04-15 11h47.11.714314 -0400,
images/image_366_seed_1.png,42,0,0,0,0,"[9, 19, 29, 39, 49, 59, 68, 69, 70, 71]",,,,,0,42,42,42,301.09299529099917,,,,,,,,,,,,,,,,,,,,,,,,,,,,,,,,,,,,,,,,,,,,,,,,301.07895782000014,301.07908044899887,301.0790938219998,301.09299529099917,301.09299529099917,302.09380158299973,302.09380158299973,305.0932998289991,305.0932998289991,305.0932998289991,305.0932998289991,305.0772303699996,None,0,None,305.0776599919991,305.0777041579986,None,305.07781654300015,305.0778723069998,None,305.07798476099924,305.07802186799927,None,,,,,,,,,,,,,,,88,001,0,,2024-04-15_11h46.56.884,replicate_nsd,2023.2.3,59.92647189675796,2024-04-15 11h47.11.714314 -0400,
images/image_323_seed_1.png,43,0,0,0,0,"[9, 19, 29, 39, 49, 59, 68, 69, 70, 71]",,,,,0,43,43,43,305.0932998289991,,,,,,,,,,,,,,,,,,,,,,,,,,,,,,,,,,,,,,,,,,,,,,,,305.0784001459997,305.07851987999857,305.0785332179985,305.0932998289991,305.0932998289991,306.09361548000015,306.09361548000015,309.093449435999,309.093449435999,309.093449435999,309.093449435999,309.07671584299896,None,0,None,309.0770619289997,309.07709481799975,None,309.07718299099906,309.07722681999985,None,309.0773153760001,309.0773443849994,None,,,,,,,,,,,,,,,88,001,0,,2024-04-15_11h46.56.884,replicate_nsd,2023.2.3,59.92647189675796,2024-04-15 11h47.11.714314 -0400,
images/image_324_seed_1.png,44,0,0,0,0,"[9, 19, 29, 39, 49, 59, 68, 69, 70, 71]",,,,,0,44,44,44,309.093449435999,,,,,,,,,,,,,,,,,,,,,,,,,,,,,,,,,,,,,,,,,,,,,,,,309.0776453919989,309.07774787499875,309.07775825599856,309.093449435999,309.093449435999,310.0939706989993,310.0939706989993,313.09286073600015,313.09286073600015,313.09286073600015,313.09286073600015,313.077538223999,None,0,None,313.0779662919995,313.0780102939989,None,313.078123321,313.07817822799916,None,313.0782911869992,313.0783276959992,None,,,,,,,,,,,,,,,88,001,0,,2024-04-15_11h46.56.884,replicate_nsd,2023.2.3,59.92647189675796,2024-04-15 11h47.11.714314 -0400,
images/image_607_seed_1.png,45,0,0,0,0,"[9, 19, 29, 39, 49, 59, 68, 69, 70, 71]",,,,,0,45,45,45,313.09286073600015,,,,,,,,,,,,,,,,,,,,,,,,,,,,,,,,,,,,,,,,,,,,,,,,313.0787070919996,313.0788263679988,313.07883932799996,313.09286073600015,313.09286073600015,314.09308277999844,314.09308277999844,317.0936668409995,317.0936668409995,317.0936668409995,317.0936668409995,317.07731945699925,None,0,None,317.07774756099934,317.07779184599895,None,317.0779049369994,317.0779603789997,None,317.07807261000016,317.07810993400017,None,,,,,,,,,,,,,,,88,001,0,,2024-04-15_11h46.56.884,replicate_nsd,2023.2.3,59.92647189675796,2024-04-15 11h47.11.714314 -0400,
images/image_274_seed_1.png,46,0,0,0,0,"[9, 19, 29, 39, 49, 59, 68, 69, 70, 71]",,,,,0,46,46,46,317.0936668409995,,,,,,,,,,,,,,,,,,,,,,,,,,,,,,,,,,,,,,,,,,,,,,,,317.0784890269988,317.0786077199991,317.0786208069985,317.0936668409995,317.0936668409995,318.0939287229994,318.0939287229994,321.0936538349997,321.0936538349997,321.0936538349997,321.0936538349997,321.0776079139996,None,0,None,321.07803746599893,321.078081955,None,321.078196036,321.07825203099856,None,321.07836354499887,321.0784006729991,None,,,,,,,,,,,,,,,88,001,0,,2024-04-15_11h46.56.884,replicate_nsd,2023.2.3,59.92647189675796,2024-04-15 11h47.11.714314 -0400,
images/image_385_seed_1.png,47,0,0,0,0,"[9, 19, 29, 39, 49, 59, 68, 69, 70, 71]",,,,,0,47,47,47,321.0936538349997,,,,,,,,,,,,,,,,,,,,,,,,,,,,,,,,,,,,,,,,,,,,,,,,321.07878118499866,321.0789032269986,321.0789167669991,321.0936538349997,321.0936538349997,322.093804049,322.093804049,325.093219336999,325.093219336999,325.093219336999,325.093219336999,325.0773213599987,None,0,None,325.07775842699994,325.07780208499935,None,325.07791700599955,325.0779743160001,None,325.07808775800004,325.07812470499994,None,,,,,,,,,,,,,,,88,001,0,,2024-04-15_11h46.56.884,replicate_nsd,2023.2.3,59.92647189675796,2024-04-15 11h47.11.714314 -0400,
images/image_681_seed_1.png,48,0,0,0,0,"[9, 19, 29, 39, 49, 59, 68, 69, 70, 71]",,,,,0,48,48,48,325.093219336999,,,,,,,,,,,,,,,,,,,,,,,,,,,,,,,,,,,,,,,,,,,,,,,,325.07851361199937,325.07863087699843,325.0786440309985,325.093219336999,325.093219336999,326.0927897269994,326.0927897269994,329.0930983269991,329.0930983269991,329.0930983269991,329.0930983269991,329.07699974800016,None,0,None,329.07743844200013,329.0774849999998,None,329.07760016499924,329.07765748699967,None,329.0777756949992,329.0778130789986,None,,,,,,,,,,,,,,,88,001,0,,2024-04-15_11h46.56.884,replicate_nsd,2023.2.3,59.92647189675796,2024-04-15 11h47.11.714314 -0400,
blank.jpg,49,1,0,0,0,"[9, 19, 29, 39, 49, 59, 68, 69, 70, 71]",,,,,0,49,49,49,329.0930983269991,,,,,,,,,,,,,,,,,,,,,,,,,,,,,,,,,,,,,,,,,,,,,,,,329.07819699099855,329.0783165469984,329.07832943099856,,,,,,,,,329.0819393419988,None,0,None,329.0822271249999,333.0775838209993,None,333.07779876099994,333.0778598929992,None,333.07799287299895,333.07803212399995,None,329.0930983269991,329.0930983269991,333.0933970979986,333.0933970979986,,,,,,,,,,,88,001,0,,2024-04-15_11h46.56.884,replicate_nsd,2023.2.3,59.92647189675796,2024-04-15 11h47.11.714314 -0400,
images/image_291_seed_1.png,50,0,0,0,0,"[9, 19, 29, 39, 49, 59, 68, 69, 70, 71]",,,,,0,50,50,50,333.0933970979986,,,,,,,,,,,,,,,,,,,,,,,,,,,,,,,,,,,,,,,,,,,,,,,,333.0784304239987,333.0785477339996,333.07856073399853,333.0933970979986,333.0933970979986,334.0939035579995,334.0939035579995,337.0926307369991,337.0926307369991,337.0926307369991,337.0926307369991,337.0781950799992,None,0,None,337.0783903009997,337.07841083199855,None,337.07846224700006,337.07848847399873,None,337.07854002299973,337.0785573719986,None,,,,,,,,,,,,,,,88,001,0,,2024-04-15_11h46.56.884,replicate_nsd,2023.2.3,59.92647189675796,2024-04-15 11h47.11.714314 -0400,
images/image_235_seed_1.png,51,0,0,0,0,"[9, 19, 29, 39, 49, 59, 68, 69, 70, 71]",,,,,0,51,51,51,337.0926307369991,,,,,,,,,,,,,,,,,,,,,,,,,,,,,,,,,,,,,,,,,,,,,,,,337.07873775400003,337.07879110499925,337.0787970349993,337.0926307369991,337.0926307369991,338.09370138599843,338.09370138599843,341.0932677209985,341.0932677209985,341.0932677209985,341.0932677209985,341.0770071979987,None,0,None,341.0774494819998,341.07749417299965,None,341.0776068819996,341.0776622209996,None,341.07777530400017,341.07781213899943,None,,,,,,,,,,,,,,,88,001,0,,2024-04-15_11h46.56.884,replicate_nsd,2023.2.3,59.92647189675796,2024-04-15 11h47.11.714314 -0400,
images/image_519_seed_1.png,52,0,0,0,0,"[9, 19, 29, 39, 49, 59, 68, 69, 70, 71]",,,,,0,52,52,52,341.0932677209985,,,,,,,,,,,,,,,,,,,,,,,,,,,,,,,,,,,,,,,,,,,,,,,,341.07818747499914,341.0783078959994,341.07832105499983,341.0932677209985,341.0932677209985,342.0937802979988,342.0937802979988,345.0929916619989,345.0929916619989,345.0929916619989,345.0929916619989,345.0775984599986,None,0,None,345.07802421699853,345.07806778199847,None,345.0781803989994,345.0782353079994,None,345.07834610899954,345.0783821599998,None,,,,,,,,,,,,,,,88,001,0,,2024-04-15_11h46.56.884,replicate_nsd,2023.2.3,59.92647189675796,2024-04-15 11h47.11.714314 -0400,
images/image_161_seed_1.png,53,0,0,0,0,"[9, 19, 29, 39, 49, 59, 68, 69, 70, 71]",,,,,0,53,53,53,345.0929916619989,,,,,,,,,,,,,,,,,,,,,,,,,,,,,,,,,,,,,,,,,,,,,,,,345.07876112399936,345.0789075799985,345.0789181479995,345.0929916619989,345.0929916619989,346.0934251409999,346.0934251409999,349.0933004919989,349.0933004919989,349.0933004919989,349.0933004919989,349.0774539649992,None,0,None,349.07793045499966,349.077976691,None,349.07812721199844,349.0781848789993,None,349.07830053699945,349.0783376619984,None,,,,,,,,,,,,,,,88,001,0,,2024-04-15_11h46.56.884,replicate_nsd,2023.2.3,59.92647189675796,2024-04-15 11h47.11.714314 -0400,
images/image_293_seed_1.png,54,0,1,0,0,"[9, 19, 29, 39, 49, 59, 68, 69, 70, 71]",,,,,0,54,54,54,349.0933004919989,,,,,,,,,,,,,,,,,,,,,,,,,,,,,,,,,,,,,,,,,,,,,,,,349.07876501699866,349.07892386799904,349.0789345939993,349.0933004919989,349.0933004919989,350.0938594909985,350.0938594909985,353.09333842699925,353.09333842699925,353.09333842699925,353.09333842699925,353.07728310699895,None,0,None,353.0777117239995,353.0777555229997,None,353.0778703779997,353.0779259439987,None,353.0780376799994,353.0780748599991,None,,,,,,,,,,,,,,,88,001,0,,2024-04-15_11h46.56.884,replicate_nsd,2023.2.3,59.92647189675796,2024-04-15 11h47.11.714314 -0400,
images/image_441_seed_1.png,55,0,0,0,0,"[9, 19, 29, 39, 49, 59, 68, 69, 70, 71]",,,,,0,55,55,55,353.09333842699925,,,,,,,,,,,,,,,,,,,,,,,,,,,,,,,,,,,,,,,,,,,,,,,,353.078453402999,353.0785716859991,353.0785843429985,353.09333842699925,353.09333842699925,354.09379785300007,354.09379785300007,357.09305495099943,357.09305495099943,357.09305495099943,357.09305495099943,357.0772048029994,None,0,None,357.0776329349992,357.07767698299904,None,357.07779151199975,357.07784626399916,None,357.0779591719984,357.077995742,None,,,,,,,,,,,,,,,88,001,0,,2024-04-15_11h46.56.884,replicate_nsd,2023.2.3,59.92647189675796,2024-04-15 11h47.11.714314 -0400,
images/image_578_seed_1.png,56,0,0,0,0,"[9, 19, 29, 39, 49, 59, 68, 69, 70, 71]",,,,,0,56,56,56,357.09305495099943,,,,,,,,,,,,,,,,,,,,,,,,,,,,,,,,,,,,,,,,,,,,,,,,357.07837569099866,357.07849488099964,357.0785079219986,357.09305495099943,357.09305495099943,358.0936750820001,358.0936750820001,361.0930290689994,361.0930290689994,361.0930290689994,361.0930290689994,361.0770340269992,None,0,None,361.07745934299965,361.0775029439992,None,361.0776155570002,361.0776709869988,None,361.0777834299988,361.0778197619984,None,,,,,,,,,,,,,,,88,001,0,,2024-04-15_11h46.56.884,replicate_nsd,2023.2.3,59.92647189675796,2024-04-15 11h47.11.714314 -0400,
images/image_574_seed_1.png,57,0,0,0,0,"[9, 19, 29, 39, 49, 59, 68, 69, 70, 71]",,,,,0,57,57,57,361.0930290689994,,,,,,,,,,,,,,,,,,,,,,,,,,,,,,,,,,,,,,,,,,,,,,,,361.0781992510001,361.07831642899873,361.07832905399846,361.0930290689994,361.0930290689994,362.0928419359989,362.0928419359989,365.09361690699916,365.09361690699916,365.09361690699916,365.09361690699916,365.0775834289998,None,0,None,365.0780095559985,365.0780530609991,None,365.07816751099926,365.07822317499995,None,365.07833475000007,365.0783715859998,None,,,,,,,,,,,,,,,88,001,0,,2024-04-15_11h46.56.884,replicate_nsd,2023.2.3,59.92647189675796,2024-04-15 11h47.11.714314 -0400,
images/image_122_seed_1.png,58,0,0,0,0,"[9, 19, 29, 39, 49, 59, 68, 69, 70, 71]",,,,,0,58,58,58,365.09361690699916,,,,,,,,,,,,,,,,,,,,,,,,,,,,,,,,,,,,,,,,,,,,,,,,365.0787473629989,365.07886409099956,365.07887693799967,365.09361690699916,365.09361690699916,366.0937731719987,366.0937731719987,369.0932391129991,369.0932391129991,369.0932391129991,369.0932391129991,369.0776016029995,None,0,None,369.0780347459986,369.07808016299896,None,369.0781938780001,369.0782524339993,None,369.078371014999,369.07840921800016,None,,,,,,,,,,,,,,,88,001,0,,2024-04-15_11h46.56.884,replicate_nsd,2023.2.3,59.92647189675796,2024-04-15 11h47.11.714314 -0400,
blank.jpg,59,1,0,0,0,"[9, 19, 29, 39, 49, 59, 68, 69, 70, 71]",,,,,0,59,59,59,369.0932391129991,,,,,,,,,,,,,,,,,,,,,,,,,,,,,,,,,,,,,,,,,,,,,,,,369.07879581699854,369.0789163089994,369.0789293809994,,,,,,,,,369.0825721299989,None,0,None,369.0829144949985,373.07719036599883,None,373.07740569699854,373.07746689799933,None,373.07759711499966,373.07763665699895,None,369.0932391129991,369.0932391129991,373.0927126709994,373.0927126709994,,,,,,,,,,,88,001,0,,2024-04-15_11h46.56.884,replicate_nsd,2023.2.3,59.92647189675796,2024-04-15 11h47.11.714314 -0400,
images/image_339_seed_1.png,60,0,0,0,0,"[9, 19, 29, 39, 49, 59, 68, 69, 70, 71]",,,,,0,60,60,60,373.0927126709994,,,,,,,,,,,,,,,,,,,,,,,,,,,,,,,,,,,,,,,,,,,,,,,,373.0780391619992,373.07815664400005,373.07816980200005,373.0927126709994,373.0927126709994,374.0928185590001,374.0928185590001,377.0932752959998,377.0932752959998,377.0932752959998,377.0932752959998,377.07727301199884,None,0,None,377.07769759999974,377.07774202399924,None,377.07785368999976,377.07790910699987,None,377.0780217299998,377.07805980800003,None,,,,,,,,,,,,,,,88,001,0,,2024-04-15_11h46.56.884,replicate_nsd,2023.2.3,59.92647189675796,2024-04-15 11h47.11.714314 -0400,
images/image_441_seed_1.png,61,0,1,0,0,"[9, 19, 29, 39, 49, 59, 68, 69, 70, 71]",,,,,0,61,61,61,377.0932752959998,,,,,,,,,,,,,,,,,,,,,,,,,,,,,,,,,,,,,,,,,,,,,,,,377.07843774999856,377.0785565289989,377.0785695169998,377.0932752959998,377.0932752959998,378.0935303089991,378.0935303089991,381.0932483789984,381.0932483789984,381.0932483789984,381.0932483789984,381.0772989899997,None,0,None,381.0777248719987,381.0777693199998,None,381.07788348599934,381.0779388239989,None,381.07805125199957,381.0780880249986,None,,,,,,,,,,,,,,,88,001,0,,2024-04-15_11h46.56.884,replicate_nsd,2023.2.3,59.92647189675796,2024-04-15 11h47.11.714314 -0400,
images/image_515_seed_1.png,62,0,0,0,0,"[9, 19, 29, 39, 49, 59, 68, 69, 70, 71]",,,,,0,62,62,62,381.0932483789984,,,,,,,,,,,,,,,,,,,,,,,,,,,,,,,,,,,,,,,,,,,,,,,,381.0784686429997,381.07858532799946,381.07859815199845,381.0932483789984,381.0932483789984,382.0937785779988,382.0937785779988,385.09291639799994,385.09291639799994,385.09291639799994,385.09291639799994,385.07654820300013,None,0,None,385.0768443319994,385.0768739979994,None,385.07694961800007,385.076986828999,None,385.0770610969994,385.0770860039993,None,,,,,,,,,,,,,,,88,001,0,,2024-04-15_11h46.56.884,replicate_nsd,2023.2.3,59.92647189675796,2024-04-15 11h47.11.714314 -0400,
images/image_736_seed_1.png,63,0,0,0,0,"[9, 19, 29, 39, 49, 59, 68, 69, 70, 71]",,,,,0,63,63,63,385.09291639799994,,,,,,,,,,,,,,,,,,,,,,,,,,,,,,,,,,,,,,,,,,,,,,,,385.07734445499955,385.07742569999937,385.0774340019998,385.09291639799994,385.09291639799994,386.0938055489987,386.0938055489987,389.09308048599996,389.09308048599996,389.09308048599996,389.09308048599996,389.0772186739996,None,0,None,389.07764571000007,389.07768923000003,None,389.0778023469993,389.0778572579984,None,389.0779682399989,389.07800494599906,None,,,,,,,,,,,,,,,88,001,0,,2024-04-15_11h46.56.884,replicate_nsd,2023.2.3,59.92647189675796,2024-04-15 11h47.11.714314 -0400,
images/image_137_seed_1.png,64,0,0,0,0,"[9, 19, 29, 39, 49, 59, 68, 69, 70, 71]",,,,,0,64,64,64,389.09308048599996,,,,,,,,,,,,,,,,,,,,,,,,,,,,,,,,,,,,,,,,,,,,,,,,389.07838480399914,389.0785028199989,389.0785160999985,389.09308048599996,389.09308048599996,390.09349974199904,390.09349974199904,393.0926130839998,393.0926130839998,393.0926130839998,393.0926130839998,393.07592164499874,None,0,None,393.076117953,393.07613815199875,None,393.0761899680001,393.0762160769991,None,393.0762672129986,393.07628452099925,None,,,,,,,,,,,,,,,88,001,0,,2024-04-15_11h46.56.884,replicate_nsd,2023.2.3,59.92647189675796,2024-04-15 11h47.11.714314 -0400,
images/image_608_seed_1.png,65,0,0,0,0,"[9, 19, 29, 39, 49, 59, 68, 69, 70, 71]",,,,,0,65,65,65,393.0926130839998,,,,,,,,,,,,,,,,,,,,,,,,,,,,,,,,,,,,,,,,,,,,,,,,393.0764612559997,393.0765151529995,393.07652119199884,393.0926130839998,393.0926130839998,394.0937607039996,394.0937607039996,397.0931818279987,397.0931818279987,397.0931818279987,397.0931818279987,397.0772496109985,None,0,None,397.07767794999927,397.0777215219987,None,397.07783348799967,397.07788882800014,None,397.07800006099933,397.0780368830001,None,,,,,,,,,,,,,,,88,001,0,,2024-04-15_11h46.56.884,replicate_nsd,2023.2.3,59.92647189675796,2024-04-15 11h47.11.714314 -0400,
images/image_653_seed_1.png,66,0,0,0,0,"[9, 19, 29, 39, 49, 59, 68, 69, 70, 71]",,,,,0,66,66,66,397.0931818279987,,,,,,,,,,,,,,,,,,,,,,,,,,,,,,,,,,,,,,,,,,,,,,,,397.07841407499836,397.0785332809992,397.07854594299897,397.0931818279987,397.0931818279987,398.09370376399966,398.09370376399966,401.0930757369988,401.0930757369988,401.0930757369988,401.0930757369988,401.0771014389993,None,0,None,401.07755029500004,401.0775976169989,None,401.07771127399974,401.0777667019993,None,401.07787848099906,401.0779154259999,None,,,,,,,,,,,,,,,88,001,0,,2024-04-15_11h46.56.884,replicate_nsd,2023.2.3,59.92647189675796,2024-04-15 11h47.11.714314 -0400,
images/image_345_seed_1.png,67,0,0,0,0,"[9, 19, 29, 39, 49, 59, 68, 69, 70, 71]",,,,,0,67,67,67,401.0930757369988,,,,,,,,,,,,,,,,,,,,,,,,,,,,,,,,,,,,,,,,,,,,,,,,401.07829666999896,401.07841851800003,401.0784316049994,401.0930757369988,401.0930757369988,402.09368936399915,402.09368936399915,405.09331114999986,405.09331114999986,405.09331114999986,405.09331114999986,405.0772158669988,None,0,None,405.0776417599991,405.0776842769992,None,405.0777954239984,405.0778506049992,None,405.0779617349999,405.0779985099998,None,,,,,,,,,,,,,,,88,001,0,,2024-04-15_11h46.56.884,replicate_nsd,2023.2.3,59.92647189675796,2024-04-15 11h47.11.714314 -0400,
blank.jpg,68,1,0,0,0,"[9, 19, 29, 39, 49, 59, 68, 69, 70, 71]",,,,,0,68,68,68,405.09331114999986,,,,,,,,,,,,,,,,,,,,,,,,,,,,,,,,,,,,,,,,,,,,,,,,405.0783744199998,405.0784927169989,405.0785054029984,,,,,,,,,405.0823717179992,None,0,None,405.08272728099837,409.07737378599995,None,409.0776859789985,409.07777779999924,None,409.07799289600007,409.0780313359992,None,405.09331114999986,405.09331114999986,409.093405263,409.093405263,,,,,,,,,,,88,001,0,,2024-04-15_11h46.56.884,replicate_nsd,2023.2.3,59.92647189675796,2024-04-15 11h47.11.714314 -0400,
blank.jpg,69,1,0,0,0,"[9, 19, 29, 39, 49, 59, 68, 69, 70, 71]",,,,,0,69,69,69,409.093405263,,,,,,,,,,,,,,,,,,,,,,,,,,,,,,,,,,,,,,,,,,,,,,,,409.0784267679992,409.0785444969988,409.0785571939996,,,,,,,,,409.0810829309994,None,0,None,409.0814405299989,413.0772341439988,None,413.077448213,413.07750819899957,None,413.07763815999897,413.07767563000016,None,409.093405263,409.093405263,413.093770038,413.093770038,,,,,,,,,,,88,001,0,,2024-04-15_11h46.56.884,replicate_nsd,2023.2.3,59.92647189675796,2024-04-15 11h47.11.714314 -0400,
blank.jpg,70,1,0,0,0,"[9, 19, 29, 39, 49, 59, 68, 69, 70, 71]",,,,,0,70,70,70,413.093770038,,,,,,,,,,,,,,,,,,,,,,,,,,,,,,,,,,,,,,,,,,,,,,,,413.0780718189999,413.0781899929989,413.0782030999999,,,,,,,,,413.0804446819984,None,0,None,413.08072823699877,417.07710415099973,None,417.0773178629988,417.0773782799988,None,417.0775059609987,417.0775442519989,None,413.093770038,413.093770038,417.0934486369988,417.0934486369988,,,,,,,,,,,88,001,0,,2024-04-15_11h46.56.884,replicate_nsd,2023.2.3,59.92647189675796,2024-04-15 11h47.11.714314 -0400,
blank.jpg,71,1,0,1,0,"[9, 19, 29, 39, 49, 59, 68, 69, 70, 71]",,,,,0,71,71,71,417.0934486369988,,,,,,,,,,,,,,,,,,,,,,,,,,,,,,,,,,,,,,,,,,,,,,,,417.077943332999,417.078061831,417.07807469,,,,,,,,,417.0805095099986,None,0,None,417.08079154000006,421.0771470339987,None,421.0773602319987,451.8934730149995,1,451.89434205199905,455.52611419299865,equal,417.0934486369988,417.0934486369988,421.0952061929984,421.0952061929984,421.0952061929984,421.0952061929984,30.78304811899943,None,451.91412908099846,451.91412908099846,3.604312342000412,None,,,88,001,0,,2024-04-15_11h46.56.884,replicate_nsd,2023.2.3,59.92647189675796,2024-04-15 11h47.11.714314 -0400,
images/image_242_seed_1.png,0,0,0,0,1,"[9, 19, 31, 42, 56, 68, 69, 70, 71]",,,,,0,72,72,72,455.54307866199997,,,,,,,,,,,,,,,,,,,,,,,,,,,,,,,,,,,,,,,,,,,,,,,,455.52713767899877,455.52721853899857,455.52722731599897,455.54307866199997,455.54307866199997,456.54348395299894,456.54348395299894,459.5427209199988,459.5427209199988,459.5427209199988,459.5427209199988,459.5272738399999,1,1,None,459.5286790579994,459.528727945999,None,459.5288425660001,459.5289030059994,None,459.5290154260001,459.5290547079985,None,,,,,,,,,,,,,2.4347649709998223,None,88,001,0,,2024-04-15_11h46.56.884,replicate_nsd,2023.2.3,59.92647189675796,2024-04-15 11h47.11.714314 -0400,
images/image_399_seed_1.png,1,0,0,0,1,"[9, 19, 31, 42, 56, 68, 69, 70, 71]",,,,,0,73,73,73,459.5427209199988,,,,,,,,,,,,,,,,,,,,,,,,,,,,,,,,,,,,,,,,,,,,,,,,459.5294670869989,459.52956379199895,459.5295741739992,459.5427209199988,459.5427209199988,460.543380993,460.543380993,463.542702024999,463.542702024999,463.542702024999,463.542702024999,463.5270446499999,None,0,None,463.52757713999927,463.52762230999906,None,463.5277361979988,463.52779386399925,None,463.5279059299992,463.5279423609991,None,,,,,,,,,,,,,,,88,001,0,,2024-04-15_11h46.56.884,replicate_nsd,2023.2.3,59.92647189675796,2024-04-15 11h47.11.714314 -0400,
images/image_173_seed_1.png,2,0,0,0,1,"[9, 19, 31, 42, 56, 68, 69, 70, 71]",,,,,0,74,74,74,463.542702024999,,,,,,,,,,,,,,,,,,,,,,,,,,,,,,,,,,,,,,,,,,,,,,,,463.5283194499989,463.5284372249989,463.5284498739984,463.542702024999,463.542702024999,464.54270775499936,464.54270775499936,467.5428017209997,467.5428017209997,467.5428017209997,467.5428017209997,467.52720265899916,None,0,None,467.5276298279987,467.5276729069992,None,467.52778421399853,467.5278413299984,None,467.527953761999,467.52799087399944,None,,,,,,,,,,,,,,,88,001,0,,2024-04-15_11h46.56.884,replicate_nsd,2023.2.3,59.92647189675796,2024-04-15 11h47.11.714314 -0400,
images/image_626_seed_1.png,3,0,0,0,1,"[9, 19, 31, 42, 56, 68, 69, 70, 71]",,,,,0,75,75,75,467.5428017209997,,,,,,,,,,,,,,,,,,,,,,,,,,,,,,,,,,,,,,,,,,,,,,,,467.52836398899854,467.5284829989996,467.52849577399866,467.5428017209997,467.5428017209997,468.5437015889984,468.5437015889984,471.54252795699904,471.54252795699904,471.54252795699904,471.54252795699904,471.5272562959999,None,0,None,471.5276807779992,471.52772547099994,None,471.5278386149985,471.52789690899954,None,471.52800953399856,471.5280469619993,None,,,,,,,,,,,,,,,88,001,0,,2024-04-15_11h46.56.884,replicate_nsd,2023.2.3,59.92647189675796,2024-04-15 11h47.11.714314 -0400,
images/image_151_seed_1.png,4,0,0,0,1,"[9, 19, 31, 42, 56, 68, 69, 70, 71]",,,,,0,76,76,76,471.54252795699904,,,,,,,,,,,,,,,,,,,,,,,,,,,,,,,,,,,,,,,,,,,,,,,,471.52842522799983,471.52854336699966,471.52855623199866,471.54252795699904,471.54252795699904,472.5434075029989,472.5434075029989,475.54255527199894,475.54255527199894,475.54255527199894,475.54255527199894,475.527243569999,None,0,None,475.5276691649997,475.5277121119998,None,475.52782493299856,475.52788149299886,None,475.5279942649995,475.528031111,None,,,,,,,,,,,,,,,88,001,0,,2024-04-15_11h46.56.884,replicate_nsd,2023.2.3,59.92647189675796,2024-04-15 11h47.11.714314 -0400,
images/image_190_seed_1.png,5,0,0,0,1,"[9, 19, 31, 42, 56, 68, 69, 70, 71]",,,,,0,77,77,77,475.54255527199894,,,,,,,,,,,,,,,,,,,,,,,,,,,,,,,,,,,,,,,,,,,,,,,,475.52840872199886,475.5285267929994,475.5285399229997,475.54255527199894,475.54255527199894,476.5422781919988,476.5422781919988,479.542767506,479.542767506,479.542767506,479.542767506,479.5267324939996,None,0,None,479.52715965099924,479.5272030369997,None,479.5273168369986,479.52737419499863,None,479.52748598799917,479.52752260799934,None,,,,,,,,,,,,,,,88,001,0,,2024-04-15_11h46.56.884,replicate_nsd,2023.2.3,59.92647189675796,2024-04-15 11h47.11.714314 -0400,
images/image_357_seed_1.png,6,0,0,0,1,"[9, 19, 31, 42, 56, 68, 69, 70, 71]",,,,,0,78,78,78,479.542767506,,,,,,,,,,,,,,,,,,,,,,,,,,,,,,,,,,,,,,,,,,,,,,,,479.52789948399914,479.5280208129989,479.5280338569992,479.542767506,479.542767506,480.54340340399904,480.54340340399904,483.54314242599867,483.54314242599867,483.54314242599867,483.54314242599867,483.5272299009994,None,0,None,483.5276558459991,483.52769984099905,None,483.52781246299855,483.52787066899873,None,483.5279833709992,483.52802062999945,None,,,,,,,,,,,,,,,88,001,0,,2024-04-15_11h46.56.884,replicate_nsd,2023.2.3,59.92647189675796,2024-04-15 11h47.11.714314 -0400,
images/image_515_seed_1.png,7,0,1,0,1,"[9, 19, 31, 42, 56, 68, 69, 70, 71]",,,,,0,79,79,79,483.54314242599867,,,,,,,,,,,,,,,,,,,,,,,,,,,,,,,,,,,,,,,,,,,,,,,,483.52840071899845,483.52851972999997,483.528532499,483.54314242599867,483.54314242599867,484.5434183289999,484.5434183289999,487.54229949399996,487.54229949399996,487.54229949399996,487.54229949399996,487.5268648559995,None,0,None,487.5272993309991,487.52734328399856,None,487.52745751199836,487.5275152209997,None,487.52762791199893,487.52766547699866,None,,,,,,,,,,,,,,,88,001,0,,2024-04-15_11h46.56.884,replicate_nsd,2023.2.3,59.92647189675796,2024-04-15 11h47.11.714314 -0400,
images/image_113_seed_1.png,8,0,0,0,1,"[9, 19, 31, 42, 56, 68, 69, 70, 71]",,,,,0,80,80,80,487.54229949399996,,,,,,,,,,,,,,,,,,,,,,,,,,,,,,,,,,,,,,,,,,,,,,,,487.5280479039993,487.5281657099986,487.5281790359986,487.54229949399996,487.54229949399996,488.54373496100015,488.54373496100015,491.54300941399924,491.54300941399924,491.54300941399924,491.54300941399924,491.52693222499875,None,0,None,491.5273604409995,491.52740367499973,None,491.5275169769993,491.5275742549984,None,491.52768766199915,491.52772548199937,None,,,,,,,,,,,,,,,88,001,0,,2024-04-15_11h46.56.884,replicate_nsd,2023.2.3,59.92647189675796,2024-04-15 11h47.11.714314 -0400,
blank.jpg,9,1,0,0,1,"[9, 19, 31, 42, 56, 68, 69, 70, 71]",,,,,0,81,81,81,491.54300941399924,,,,,,,,,,,,,,,,,,,,,,,,,,,,,,,,,,,,,,,,,,,,,,,,491.5281040159989,491.5282187599987,491.52823186099886,,,,,,,,,491.53278270899864,None,0,None,491.53316419600014,495.52708428000005,None,495.5272991359998,495.5273614259986,None,495.5274895099992,495.5275284629988,None,491.54300941399924,491.54300941399924,495.5426130249998,495.5426130249998,,,,,,,,,,,88,001,0,,2024-04-15_11h46.56.884,replicate_nsd,2023.2.3,59.92647189675796,2024-04-15 11h47.11.714314 -0400,
images/image_603_seed_1.png,10,0,0,0,1,"[9, 19, 31, 42, 56, 68, 69, 70, 71]",,,,,0,82,82,82,495.5426130249998,,,,,,,,,,,,,,,,,,,,,,,,,,,,,,,,,,,,,,,,,,,,,,,,495.52792849699836,495.5280464419993,495.5280594119995,495.5426130249998,495.5426130249998,496.5436673539989,496.5436673539989,499.54266242799895,499.54266242799895,499.54266242799895,499.54266242799895,499.5271879109987,None,0,None,499.5276147549994,499.5276601099995,None,499.5277732689992,499.5278297719997,None,499.5279420859988,499.52797895799995,None,,,,,,,,,,,,,,,88,001,0,,2024-04-15_11h46.56.884,replicate_nsd,2023.2.3,59.92647189675796,2024-04-15 11h47.11.714314 -0400,
images/image_649_seed_1.png,11,0,0,0,1,"[9, 19, 31, 42, 56, 68, 69, 70, 71]",,,,,0,83,83,83,499.54266242799895,,,,,,,,,,,,,,,,,,,,,,,,,,,,,,,,,,,,,,,,,,,,,,,,499.5283554409998,499.5284734559991,499.52848635899863,499.54266242799895,499.54266242799895,500.5434685929995,500.5434685929995,503.542748681999,503.542748681999,503.542748681999,503.542748681999,503.5270432019988,None,0,None,503.52748045799854,503.52752544399846,None,503.5276502959987,503.52770861799945,None,503.5278329619996,503.5278705799992,None,,,,,,,,,,,,,,,88,001,0,,2024-04-15_11h46.56.884,replicate_nsd,2023.2.3,59.92647189675796,2024-04-15 11h47.11.714314 -0400,
images/image_261_seed_1.png,12,0,0,0,1,"[9, 19, 31, 42, 56, 68, 69, 70, 71]",,,,,0,84,84,84,503.542748681999,,,,,,,,,,,,,,,,,,,,,,,,,,,,,,,,,,,,,,,,,,,,,,,,503.5282567569993,503.5283746969999,503.52838800399877,503.542748681999,503.542748681999,504.54365137700006,504.54365137700006,507.5423526179984,507.5423526179984,507.5423526179984,507.5423526179984,507.52729486299904,None,0,None,507.52792698699886,507.52796931899866,None,507.5280820529988,507.5281390309992,None,507.5282514619994,507.52828841099836,None,,,,,,,,,,,,,,,88,001,0,,2024-04-15_11h46.56.884,replicate_nsd,2023.2.3,59.92647189675796,2024-04-15 11h47.11.714314 -0400,
images/image_502_seed_1.png,13,0,0,0,1,"[9, 19, 31, 42, 56, 68, 69, 70, 71]",,,,,0,85,85,85,507.5423526179984,,,,,,,,,,,,,,,,,,,,,,,,,,,,,,,,,,,,,,,,,,,,,,,,507.52866746200016,507.5287857059993,507.52879852599835,507.5423526179984,507.5423526179984,508.54335627399996,508.54335627399996,511.5426844899994,511.5426844899994,511.5426844899994,511.5426844899994,511.5268960169997,None,0,None,511.52732406799987,511.5273675799999,None,511.52748022599917,511.52753782199943,None,511.5276499039992,511.5276867859993,None,,,,,,,,,,,,,,,88,001,0,,2024-04-15_11h46.56.884,replicate_nsd,2023.2.3,59.92647189675796,2024-04-15 11h47.11.714314 -0400,
images/image_46_seed_1.png,14,0,0,0,1,"[9, 19, 31, 42, 56, 68, 69, 70, 71]",,,,,0,86,86,86,511.5426844899994,,,,,,,,,,,,,,,,,,,,,,,,,,,,,,,,,,,,,,,,,,,,,,,,511.52806348299964,511.5281829579999,511.528196158999,511.5426844899994,511.5426844899994,512.5433396669996,512.5433396669996,515.5427461039999,515.5427461039999,515.5427461039999,515.5427461039999,515.5272075689991,None,0,None,515.5276404169999,515.5276855559987,None,515.5277993599993,515.5278568199992,None,515.5279710679988,515.5280076039999,None,,,,,,,,,,,,,,,88,001,0,,2024-04-15_11h46.56.884,replicate_nsd,2023.2.3,59.92647189675796,2024-04-15 11h47.11.714314 -0400,
images/image_681_seed_1.png,15,0,1,0,1,"[9, 19, 31, 42, 56, 68, 69, 70, 71]",,,,,0,87,87,87,515.5427461039999,,,,,,,,,,,,,,,,,,,,,,,,,,,,,,,,,,,,,,,,,,,,,,,,515.5283874489996,515.5285052290001,515.528518277999,515.5427461039999,515.5427461039999,516.5431460899999,516.5431460899999,519.5428469339986,519.5428469339986,519.5428469339986,519.5428469339986,519.5270380319998,None,0,None,519.5275945069989,519.5276389729988,None,519.5277527629987,519.5278097800001,None,519.5279231759996,519.5279595129996,None,,,,,,,,,,,,,,,88,001,0,,2024-04-15_11h46.56.884,replicate_nsd,2023.2.3,59.92647189675796,2024-04-15 11h47.11.714314 -0400,
images/image_168_seed_1.png,16,0,0,0,1,"[9, 19, 31, 42, 56, 68, 69, 70, 71]",,,,,0,88,88,88,519.5428469339986,,,,,,,,,,,,,,,,,,,,,,,,,,,,,,,,,,,,,,,,,,,,,,,,519.528336202,519.5284530999998,519.5284655649994,519.5428469339986,519.5428469339986,520.5430708019994,520.5430708019994,523.5423726869994,523.5423726869994,523.5423726869994,523.5423726869994,523.526711261,None,0,None,523.5271373069991,523.5271818679994,None,523.5272949549999,523.5273535409997,None,523.5274667180001,523.5275037809988,None,,,,,,,,,,,,,,,88,001,0,,2024-04-15_11h46.56.884,replicate_nsd,2023.2.3,59.92647189675796,2024-04-15 11h47.11.714314 -0400,
images/image_462_seed_1.png,17,0,0,0,1,"[9, 19, 31, 42, 56, 68, 69, 70, 71]",,,,,0,89,89,89,523.5423726869994,,,,,,,,,,,,,,,,,,,,,,,,,,,,,,,,,,,,,,,,,,,,,,,,523.5278858729998,523.528004071999,523.5280169869984,523.5423726869994,523.5423726869994,524.5422390499989,524.5422390499989,527.5422761049995,527.5422761049995,527.5422761049995,527.5422761049995,527.5268594249992,None,0,None,527.5272868060001,527.5273302499991,None,527.527443641,527.5275005949989,None,527.527612119,527.5276493309993,None,,,,,,,,,,,,,,,88,001,0,,2024-04-15_11h46.56.884,replicate_nsd,2023.2.3,59.92647189675796,2024-04-15 11h47.11.714314 -0400,
images/image_4_seed_1.png,18,0,0,0,1,"[9, 19, 31, 42, 56, 68, 69, 70, 71]",,,,,0,90,90,90,527.5422761049995,,,,,,,,,,,,,,,,,,,,,,,,,,,,,,,,,,,,,,,,,,,,,,,,527.52802668,527.5281441539992,527.528156901999,527.5422761049995,527.5422761049995,528.5431109689998,528.5431109689998,531.5434142449994,531.5434142449994,531.5434142449994,531.5434142449994,531.5268643660002,None,0,None,531.5272872269998,531.5273304549992,None,531.52744274,531.5274992659997,None,531.5276100829997,531.5276467659987,None,,,,,,,,,,,,,,,88,001,0,,2024-04-15_11h46.56.884,replicate_nsd,2023.2.3,59.92647189675796,2024-04-15 11h47.11.714314 -0400,
blank.jpg,19,1,0,0,1,"[9, 19, 31, 42, 56, 68, 69, 70, 71]",,,,,0,91,91,91,531.5434142449994,,,,,,,,,,,,,,,,,,,,,,,,,,,,,,,,,,,,,,,,,,,,,,,,531.5280230649987,531.528140638,531.5281534419992,,,,,,,,,531.5322810279995,None,0,None,531.5326715279989,535.5268113080001,None,535.5270237479999,535.5270852630001,None,535.5272133859999,535.5272514659991,None,531.5434142449994,531.5434142449994,535.542320433,535.542320433,,,,,,,,,,,88,001,0,,2024-04-15_11h46.56.884,replicate_nsd,2023.2.3,59.92647189675796,2024-04-15 11h47.11.714314 -0400,
images/image_647_seed_1.png,20,0,0,0,1,"[9, 19, 31, 42, 56, 68, 69, 70, 71]",,,,,0,92,92,92,535.542320433,,,,,,,,,,,,,,,,,,,,,,,,,,,,,,,,,,,,,,,,,,,,,,,,535.5276446859989,535.5277632029993,535.5277767529988,535.542320433,535.542320433,536.5433246129996,536.5433246129996,539.5427609990002,539.5427609990002,539.5427609990002,539.5427609990002,539.5268404649996,None,0,None,539.5272667909994,539.5273116029985,None,539.527423603,539.527481101999,None,539.5275921100001,539.5276281159986,None,,,,,,,,,,,,,,,88,001,0,,2024-04-15_11h46.56.884,replicate_nsd,2023.2.3,59.92647189675796,2024-04-15 11h47.11.714314 -0400,
images/image_109_seed_1.png,21,0,0,0,1,"[9, 19, 31, 42, 56, 68, 69, 70, 71]",,,,,0,93,93,93,539.5427609990002,,,,,,,,,,,,,,,,,,,,,,,,,,,,,,,,,,,,,,,,,,,,,,,,539.5280045209984,539.5281228879994,539.5281355689986,539.5427609990002,539.5427609990002,540.5433236059998,540.5433236059998,543.5423856509988,543.5423856509988,543.5423856509988,543.5423856509988,543.5272911939992,None,0,None,543.5278284229989,543.5278720869992,None,543.5279837580001,543.528039842,None,543.5281504289997,543.5281871729985,None,,,,,,,,,,,,,,,88,001,0,,2024-04-15_11h46.56.884,replicate_nsd,2023.2.3,59.92647189675796,2024-04-15 11h47.11.714314 -0400,
images/image_344_seed_1.png,22,0,0,0,1,"[9, 19, 31, 42, 56, 68, 69, 70, 71]",,,,,0,94,94,94,543.5423856509988,,,,,,,,,,,,,,,,,,,,,,,,,,,,,,,,,,,,,,,,,,,,,,,,543.5285619919996,543.5286804709995,543.5286934489995,543.5423856509988,543.5423856509988,544.5433951549985,544.5433951549985,547.5426935750002,547.5426935750002,547.5426935750002,547.5426935750002,547.5267047839989,None,0,None,547.5271359009985,547.527179834,None,547.5272942510001,547.5273502829987,None,547.5274627069994,547.5274992759987,None,,,,,,,,,,,,,,,88,001,0,,2024-04-15_11h46.56.884,replicate_nsd,2023.2.3,59.92647189675796,2024-04-15 11h47.11.714314 -0400,
images/image_219_seed_1.png,23,0,0,0,1,"[9, 19, 31, 42, 56, 68, 69, 70, 71]",,,,,0,95,95,95,547.5426935750002,,,,,,,,,,,,,,,,,,,,,,,,,,,,,,,,,,,,,,,,,,,,,,,,547.5278789409986,547.5279965729987,547.5280097559989,547.5426935750002,547.5426935750002,548.5433525889985,548.5433525889985,551.5424796999996,551.5424796999996,551.5424796999996,551.5424796999996,551.5267934979984,None,0,None,551.5272216189987,551.5272648239988,None,551.5273752339999,551.5274332219997,None,551.5275439429988,551.5275808539991,None,,,,,,,,,,,,,,,88,001,0,,2024-04-15_11h46.56.884,replicate_nsd,2023.2.3,59.92647189675796,2024-04-15 11h47.11.714314 -0400,
images/image_230_seed_1.png,24,0,0,0,1,"[9, 19, 31, 42, 56, 68, 69, 70, 71]",,,,,0,96,96,96,551.5424796999996,,,,,,,,,,,,,,,,,,,,,,,,,,,,,,,,,,,,,,,,,,,,,,,,551.5279616959997,551.5280802159996,551.5280931050002,551.5424796999996,551.5424796999996,552.5433105769989,552.5433105769989,555.5439757759996,555.5439757759996,555.5439757759996,555.5439757759996,555.5292988199999,None,0,None,555.5298438369991,555.5299178799996,None,555.530073861999,555.5301320199997,None,555.5302405819984,555.5302768779984,None,,,,,,,,,,,,,,,88,001,0,,2024-04-15_11h46.56.884,replicate_nsd,2023.2.3,59.92647189675796,2024-04-15 11h47.11.714314 -0400,
images/image_188_seed_1.png,25,0,0,0,1,"[9, 19, 31, 42, 56, 68, 69, 70, 71]",,,,,0,97,97,97,555.5439757759996,,,,,,,,,,,,,,,,,,,,,,,,,,,,,,,,,,,,,,,,,,,,,,,,555.530652043999,555.5307743509984,555.530787742,555.5439757759996,555.5439757759996,556.5433173349993,556.5433173349993,559.5426130489996,559.5426130489996,559.5426130489996,559.5426130489996,559.5271344100001,None,0,None,559.5275558039993,559.5275991729995,None,559.5277110469997,559.5277681749994,None,559.5278787019997,559.5279161449998,None,,,,,,,,,,,,,,,88,001,0,,2024-04-15_11h46.56.884,replicate_nsd,2023.2.3,59.92647189675796,2024-04-15 11h47.11.714314 -0400,
images/image_514_seed_1.png,26,0,0,0,1,"[9, 19, 31, 42, 56, 68, 69, 70, 71]",,,,,0,98,98,98,559.5426130489996,,,,,,,,,,,,,,,,,,,,,,,,,,,,,,,,,,,,,,,,,,,,,,,,559.528293718,559.5284108569995,559.5284241419995,559.5426130489996,559.5426130489996,560.5433166139992,560.5433166139992,563.5430854689985,563.5430854689985,563.5430854689985,563.5430854689985,563.5267519499994,None,0,None,563.5271776659993,563.527221065,None,563.5273328639996,563.527389900999,None,563.5275006189986,563.527536747999,None,,,,,,,,,,,,,,,88,001,0,,2024-04-15_11h46.56.884,replicate_nsd,2023.2.3,59.92647189675796,2024-04-15 11h47.11.714314 -0400,
images/image_356_seed_1.png,27,0,0,0,1,"[9, 19, 31, 42, 56, 68, 69, 70, 71]",,,,,0,99,99,99,563.5430854689985,,,,,,,,,,,,,,,,,,,,,,,,,,,,,,,,,,,,,,,,,,,,,,,,563.5279141390001,563.5280334929994,563.5280462739993,563.5430854689985,563.5430854689985,564.5433430539997,564.5433430539997,567.5420305930002,567.5420305930002,567.5420305930002,567.5420305930002,567.5259769099994,None,0,None,567.5262324059986,567.5262574379994,None,567.5263189419984,567.5263513379996,None,567.5264122689987,567.5264323749998,None,,,,,,,,,,,,,,,88,001,0,,2024-04-15_11h46.56.884,replicate_nsd,2023.2.3,59.92647189675796,2024-04-15 11h47.11.714314 -0400,
images/image_634_seed_1.png,28,0,0,0,1,"[9, 19, 31, 42, 56, 68, 69, 70, 71]",,,,,0,100,100,100,567.5420305930002,,,,,,,,,,,,,,,,,,,,,,,,,,,,,,,,,,,,,,,,,,,,,,,,567.5266433739998,567.5267120059998,567.5267192020001,567.5420305930002,567.5420305930002,568.5431454230002,568.5431454230002,571.5426794949999,571.5426794949999,571.5426794949999,571.5426794949999,571.5267388109987,None,0,None,571.5271658329984,571.5272098339992,None,571.527323201999,571.5273802719985,None,571.5274917259994,571.5275279069992,None,,,,,,,,,,,,,,,88,001,0,,2024-04-15_11h46.56.884,replicate_nsd,2023.2.3,59.92647189675796,2024-04-15 11h47.11.714314 -0400,
images/image_137_seed_1.png,29,0,1,0,1,"[9, 19, 31, 42, 56, 68, 69, 70, 71]",,,,,0,101,101,101,571.5426794949999,,,,,,,,,,,,,,,,,,,,,,,,,,,,,,,,,,,,,,,,,,,,,,,,571.5279067229985,571.5280249970001,571.528037742999,571.5426794949999,571.5426794949999,572.5433100319988,572.5433100319988,575.5425675419992,575.5425675419992,575.5425675419992,575.5425675419992,575.5267783660001,None,0,None,575.5272071979998,575.527250531999,None,575.5273633739998,575.5274200690001,None,575.5275300859994,575.527566925999,None,,,,,,,,,,,,,,,88,001,0,,2024-04-15_11h46.56.884,replicate_nsd,2023.2.3,59.92647189675796,2024-04-15 11h47.11.714314 -0400,
images/image_58_seed_1.png,30,0,1,0,1,"[9, 19, 31, 42, 56, 68, 69, 70, 71]",,,,,0,102,102,102,575.5425675419992,,,,,,,,,,,,,,,,,,,,,,,,,,,,,,,,,,,,,,,,,,,,,,,,575.527944817999,575.5280631810001,575.5280759729994,575.5425675419992,575.5425675419992,576.5426308030001,576.5426308030001,579.5431247469987,579.5431247469987,579.5431247469987,579.5431247469987,579.5268739759995,None,0,None,579.5274119749993,579.5274553619984,None,579.5275672339994,579.527623979,None,579.5277365499987,579.5277724970001,None,,,,,,,,,,,,,,,88,001,0,,2024-04-15_11h46.56.884,replicate_nsd,2023.2.3,59.92647189675796,2024-04-15 11h47.11.714314 -0400,
blank.jpg,31,1,0,0,1,"[9, 19, 31, 42, 56, 68, 69, 70, 71]",,,,,0,103,103,103,579.5431247469987,,,,,,,,,,,,,,,,,,,,,,,,,,,,,,,,,,,,,,,,,,,,,,,,579.5281481729999,579.5282672929989,579.5282798949993,,,,,,,,,579.5323098629997,None,0,None,579.5326902059987,583.5266927809989,None,583.5269065199991,583.5269691739995,None,583.5270989049986,583.5271367699988,None,579.5431247469987,579.5431247469987,583.5429634369993,583.5429634369993,,,,,,,,,,,88,001,0,,2024-04-15_11h46.56.884,replicate_nsd,2023.2.3,59.92647189675796,2024-04-15 11h47.11.714314 -0400,
images/image_431_seed_1.png,32,0,0,0,1,"[9, 19, 31, 42, 56, 68, 69, 70, 71]",,,,,0,104,104,104,583.5429634369993,,,,,,,,,,,,,,,,,,,,,,,,,,,,,,,,,,,,,,,,,,,,,,,,583.5275411179991,583.5276593459985,583.5276722939998,583.5429634369993,583.5429634369993,584.5430130959994,584.5430130959994,587.5422503669997,587.5422503669997,587.5422503669997,587.5422503669997,587.5267753439985,None,0,None,587.5272016999988,587.5272464549998,None,587.5273595339986,587.5274167659991,None,587.527529166,587.5275656619997,None,,,,,,,,,,,,,,,88,001,0,,2024-04-15_11h46.56.884,replicate_nsd,2023.2.3,59.92647189675796,2024-04-15 11h47.11.714314 -0400,
images/image_250_seed_1.png,33,0,1,0,1,"[9, 19, 31, 42, 56, 68, 69, 70, 71]",,,,,0,105,105,105,587.5422503669997,,,,,,,,,,,,,,,,,,,,,,,,,,,,,,,,,,,,,,,,,,,,,,,,587.5279434690001,587.5280605669996,587.5280733439995,587.5422503669997,587.5422503669997,588.5432027799998,588.5432027799998,591.5426834499995,591.5426834499995,591.5426834499995,591.5426834499995,591.526761907,None,0,None,591.5271877039995,591.5272313819987,None,591.5273452539986,591.5274027299984,None,591.5275145649994,591.5275523370001,None,,,,,,,,,,,,,,,88,001,0,,2024-04-15_11h46.56.884,replicate_nsd,2023.2.3,59.92647189675796,2024-04-15 11h47.11.714314 -0400,
images/image_321_seed_1.png,34,0,0,0,1,"[9, 19, 31, 42, 56, 68, 69, 70, 71]",,,,,0,106,106,106,591.5426834499995,,,,,,,,,,,,,,,,,,,,,,,,,,,,,,,,,,,,,,,,,,,,,,,,591.5279294960001,591.5280474739993,591.5280604309992,591.5426834499995,591.5426834499995,592.5431876409984,592.5431876409984,595.5422499739998,595.5422499739998,595.5422499739998,595.5422499739998,595.5267662899987,None,0,None,595.5271892349992,595.5272327999992,None,595.5273437830001,595.5274007029984,None,595.5275104499997,595.5275471549994,None,,,,,,,,,,,,,,,88,001,0,,2024-04-15_11h46.56.884,replicate_nsd,2023.2.3,59.92647189675796,2024-04-15 11h47.11.714314 -0400,
images/image_187_seed_1.png,35,0,1,0,1,"[9, 19, 31, 42, 56, 68, 69, 70, 71]",,,,,0,107,107,107,595.5422499739998,,,,,,,,,,,,,,,,,,,,,,,,,,,,,,,,,,,,,,,,,,,,,,,,595.5279249089999,595.5280429189988,595.5280553249995,595.5422499739998,595.5422499739998,596.5432594180002,596.5432594180002,599.5426460549988,599.5426460549988,599.5426460549988,599.5426460549988,599.5267066389988,None,0,None,599.5271325619997,599.5271758959989,None,599.527288923,599.5273470849988,None,599.5274573039987,599.5274930899996,None,,,,,,,,,,,,,,,88,001,0,,2024-04-15_11h46.56.884,replicate_nsd,2023.2.3,59.92647189675796,2024-04-15 11h47.11.714314 -0400,
images/image_427_seed_1.png,36,0,0,0,1,"[9, 19, 31, 42, 56, 68, 69, 70, 71]",,,,,0,108,108,108,599.5426460549988,,,,,,,,,,,,,,,,,,,,,,,,,,,,,,,,,,,,,,,,,,,,,,,,599.5278706939989,599.5279886279986,599.5280014439995,599.5426460549988,599.5426460549988,600.5432065969999,600.5432065969999,603.542204678999,603.542204678999,603.542204678999,603.542204678999,603.5267214679989,None,0,None,603.5271481639993,603.5271915539997,None,603.5273033069989,603.5273607109993,None,603.5274719149984,603.5275078219984,None,,,,,,,,,,,,,,,88,001,0,,2024-04-15_11h46.56.884,replicate_nsd,2023.2.3,59.92647189675796,2024-04-15 11h47.11.714314 -0400,
images/image_226_seed_1.png,37,0,0,0,1,"[9, 19, 31, 42, 56, 68, 69, 70, 71]",,,,,0,109,109,109,603.542204678999,,,,,,,,,,,,,,,,,,,,,,,,,,,,,,,,,,,,,,,,,,,,,,,,603.5278823899989,603.5279997649995,603.5280129429993,603.542204678999,603.542204678999,604.543228478,604.543228478,607.5432309589996,607.5432309589996,607.5432309589996,607.5432309589996,607.5287517829984,None,0,None,607.5291901669989,607.5292357029994,None,607.5293501119995,607.5294084589987,None,607.529523833,607.529561637999,None,,,,,,,,,,,,,,,88,001,0,,2024-04-15_11h46.56.884,replicate_nsd,2023.2.3,59.92647189675796,2024-04-15 11h47.11.714314 -0400,
images/image_445_seed_1.png,38,0,0,0,1,"[9, 19, 31, 42, 56, 68, 69, 70, 71]",,,,,0,110,110,110,607.5432309589996,,,,,,,,,,,,,,,,,,,,,,,,,,,,,,,,,,,,,,,,,,,,,,,,607.5299414609999,607.5300619699992,607.530074974,607.5432309589996,607.5432309589996,608.5432542899998,608.5432542899998,611.5427722109998,611.5427722109998,611.5427722109998,611.5427722109998,611.5267597599995,None,0,None,611.5271910319989,611.5272347969985,None,611.5273475969989,611.5274045229999,None,611.5275171949997,611.5275544489996,None,,,,,,,,,,,,,,,88,001,0,,2024-04-15_11h46.56.884,replicate_nsd,2023.2.3,59.92647189675796,2024-04-15 11h47.11.714314 -0400,
images/image_28_seed_1.png,39,0,0,0,1,"[9, 19, 31, 42, 56, 68, 69, 70, 71]",,,,,0,111,111,111,611.5427722109998,,,,,,,,,,,,,,,,,,,,,,,,,,,,,,,,,,,,,,,,,,,,,,,,611.5279320479985,611.5280480499987,611.5280610289992,611.5427722109998,611.5427722109998,612.5432492689997,612.5432492689997,615.5421996879995,615.5421996879995,615.5421996879995,615.5421996879995,615.5267301549993,None,0,None,615.5271581729994,615.5272024309998,None,615.5273165809995,615.5273739939985,None,615.5274867479984,615.527523843999,None,,,,,,,,,,,,,,,88,001,0,,2024-04-15_11h46.56.884,replicate_nsd,2023.2.3,59.92647189675796,2024-04-15 11h47.11.714314 -0400,
images/image_389_seed_1.png,40,0,0,0,1,"[9, 19, 31, 42, 56, 68, 69, 70, 71]",,,,,0,112,112,112,615.5421996879995,,,,,,,,,,,,,,,,,,,,,,,,,,,,,,,,,,,,,,,,,,,,,,,,615.5279048399989,615.5280227219992,615.5280358179989,615.5421996879995,615.5421996879995,616.5432074929995,616.5432074929995,619.5425900039991,619.5425900039991,619.5425900039991,619.5425900039991,619.526760711,None,0,None,619.5271843229984,619.527227311999,None,619.5273383139993,619.5273952089992,None,619.527505054999,619.5275406059991,None,,,,,,,,,,,,,,,88,001,0,,2024-04-15_11h46.56.884,replicate_nsd,2023.2.3,59.92647189675796,2024-04-15 11h47.11.714314 -0400,
images/image_160_seed_1.png,41,0,0,0,1,"[9, 19, 31, 42, 56, 68, 69, 70, 71]",,,,,0,113,113,113,619.5425900039991,,,,,,,,,,,,,,,,,,,,,,,,,,,,,,,,,,,,,,,,,,,,,,,,619.5279150489987,619.5280324589985,619.5280452759998,619.5425900039991,619.5425900039991,620.5432692279992,620.5432692279992,623.5429941059992,623.5429941059992,623.5429941059992,623.5429941059992,623.5267528079985,None,0,None,623.5271812880001,623.5272247749999,None,623.5273372939992,623.527395445999,None,623.5275058939988,623.5275422249997,None,,,,,,,,,,,,,,,88,001,0,,2024-04-15_11h46.56.884,replicate_nsd,2023.2.3,59.92647189675796,2024-04-15 11h47.11.714314 -0400,
blank.jpg,42,1,0,0,1,"[9, 19, 31, 42, 56, 68, 69, 70, 71]",,,,,0,114,114,114,623.5429941059992,,,,,,,,,,,,,,,,,,,,,,,,,,,,,,,,,,,,,,,,,,,,,,,,623.5279207399999,623.5280396819999,623.5280528139992,,,,,,,,,623.5316507569987,None,0,None,623.5319590589988,627.525364608,None,627.5254665859993,627.525496536,None,627.525555192,627.5255733869999,None,623.5429941059992,623.5429941059992,627.542117944,627.542117944,,,,,,,,,,,88,001,0,,2024-04-15_11h46.56.884,replicate_nsd,2023.2.3,59.92647189675796,2024-04-15 11h47.11.714314 -0400,
images/image_48_seed_1.png,43,0,0,0,1,"[9, 19, 31, 42, 56, 68, 69, 70, 71]",,,,,0,115,115,115,627.542117944,,,,,,,,,,,,,,,,,,,,,,,,,,,,,,,,,,,,,,,,,,,,,,,,627.5257608359989,627.5258183799997,627.525824508999,627.542117944,627.542117944,628.542457870999,628.542457870999,631.5418056149992,631.5418056149992,631.5418056149992,631.5418056149992,631.5254891199984,None,0,None,631.5256950799994,631.5257164750001,None,631.5257667319984,631.5257941069995,None,631.5258437809989,631.5258609129996,None,,,,,,,,,,,,,,,88,001,0,,2024-04-15_11h46.56.884,replicate_nsd,2023.2.3,59.92647189675796,2024-04-15 11h47.11.714314 -0400,
images/image_657_seed_1.png,44,0,0,0,1,"[9, 19, 31, 42, 56, 68, 69, 70, 71]",,,,,0,116,116,116,631.5418056149992,,,,,,,,,,,,,,,,,,,,,,,,,,,,,,,,,,,,,,,,,,,,,,,,631.5260382219985,631.526095407,631.5261013299987,631.5418056149992,631.5418056149992,632.5430642390002,632.5430642390002,635.5427244469993,635.5427244469993,635.5427244469993,635.5427244469993,635.5267722809986,None,0,None,635.5271930589988,635.5272363859985,None,635.5273480279993,635.5274058939995,None,635.5275176139985,635.5275538219994,None,,,,,,,,,,,,,,,88,001,0,,2024-04-15_11h46.56.884,replicate_nsd,2023.2.3,59.92647189675796,2024-04-15 11h47.11.714314 -0400,
images/image_395_seed_1.png,45,0,0,0,1,"[9, 19, 31, 42, 56, 68, 69, 70, 71]",,,,,0,117,117,117,635.5427244469993,,,,,,,,,,,,,,,,,,,,,,,,,,,,,,,,,,,,,,,,,,,,,,,,635.5279291019997,635.5280487669988,635.5280616389991,635.5427244469993,635.5427244469993,636.5432707109994,636.5432707109994,639.5422533069996,639.5422533069996,639.5422533069996,639.5422533069996,639.5267831299989,None,0,None,639.5272072099997,639.5272504329987,None,639.5273611029988,639.5274191319986,None,639.5275291299986,639.5275670309984,None,,,,,,,,,,,,,,,88,001,0,,2024-04-15_11h46.56.884,replicate_nsd,2023.2.3,59.92647189675796,2024-04-15 11h47.11.714314 -0400,
images/image_72_seed_1.png,46,0,0,0,1,"[9, 19, 31, 42, 56, 68, 69, 70, 71]",,,,,0,118,118,118,639.5422533069996,,,,,,,,,,,,,,,,,,,,,,,,,,,,,,,,,,,,,,,,,,,,,,,,639.5279432039988,639.5280632309987,639.5280762369985,639.5422533069996,639.5422533069996,640.5421438719986,640.5421438719986,643.5426933669987,643.5426933669987,643.5426933669987,643.5426933669987,643.5268138020001,None,0,None,643.5273447949985,643.527389031,None,643.5275040729994,643.5275619409986,None,643.5276714259999,643.5277075859995,None,,,,,,,,,,,,,,,88,001,0,,2024-04-15_11h46.56.884,replicate_nsd,2023.2.3,59.92647189675796,2024-04-15 11h47.11.714314 -0400,
images/image_353_seed_1.png,47,0,0,0,1,"[9, 19, 31, 42, 56, 68, 69, 70, 71]",,,,,0,119,119,119,643.5426933669987,,,,,,,,,,,,,,,,,,,,,,,,,,,,,,,,,,,,,,,,,,,,,,,,643.5280803369988,643.5281983709992,643.5282114209986,643.5426933669987,643.5426933669987,644.5428281309996,644.5428281309996,647.5426399099997,647.5426399099997,647.5426399099997,647.5426399099997,647.5267674279985,None,0,None,647.5271874800001,647.5272313459991,None,647.5273418969991,647.5273991409995,None,647.527509309999,647.5275462409991,None,,,,,,,,,,,,,,,88,001,0,,2024-04-15_11h46.56.884,replicate_nsd,2023.2.3,59.92647189675796,2024-04-15 11h47.11.714314 -0400,
images/image_16_seed_1.png,48,0,0,0,1,"[9, 19, 31, 42, 56, 68, 69, 70, 71]",,,,,0,120,120,120,647.5426399099997,,,,,,,,,,,,,,,,,,,,,,,,,,,,,,,,,,,,,,,,,,,,,,,,647.5279200179993,647.5280386279992,647.5280516599996,647.5426399099997,647.5426399099997,648.5431842559992,648.5431842559992,651.5422801229997,651.5422801229997,651.5422801229997,651.5422801229997,651.5267817949989,None,0,None,651.5272035739999,651.5272478259994,None,651.5273586769999,651.5274155299994,None,651.52752444,651.527561036999,None,,,,,,,,,,,,,,,88,001,0,,2024-04-15_11h46.56.884,replicate_nsd,2023.2.3,59.92647189675796,2024-04-15 11h47.11.714314 -0400,
images/image_244_seed_1.png,49,0,0,0,1,"[9, 19, 31, 42, 56, 68, 69, 70, 71]",,,,,0,121,121,121,651.5422801229997,,,,,,,,,,,,,,,,,,,,,,,,,,,,,,,,,,,,,,,,,,,,,,,,651.5279318180001,651.5280501819998,651.5280633639995,651.5422801229997,651.5422801229997,652.543186285,652.543186285,655.5428572729998,655.5428572729998,655.5428572729998,655.5428572729998,655.5267811679987,None,0,None,655.5272068809991,655.5272504449986,None,655.5273623789999,655.5274204229991,None,655.5275316709995,655.5275685469987,None,,,,,,,,,,,,,,,88,001,0,,2024-04-15_11h46.56.884,replicate_nsd,2023.2.3,59.92647189675796,2024-04-15 11h47.11.714314 -0400,
images/image_453_seed_1.png,50,0,0,0,1,"[9, 19, 31, 42, 56, 68, 69, 70, 71]",,,,,0,122,122,122,655.5428572729998,,,,,,,,,,,,,,,,,,,,,,,,,,,,,,,,,,,,,,,,,,,,,,,,655.5279447289995,655.5280651839985,655.5280776599993,655.5428572729998,655.5428572729998,656.5429935039992,656.5429935039992,659.5420217689989,659.5420217689989,659.5420217689989,659.5420217689989,659.5268176879999,None,0,None,659.5273534949993,659.5273964279986,None,659.5275085289995,659.5275657629991,None,659.5276760749985,659.5277135569995,None,,,,,,,,,,,,,,,88,001,0,,2024-04-15_11h46.56.884,replicate_nsd,2023.2.3,59.92647189675796,2024-04-15 11h47.11.714314 -0400,
images/image_727_seed_1.png,51,0,0,0,1,"[9, 19, 31, 42, 56, 68, 69, 70, 71]",,,,,0,123,123,123,659.5420217689989,,,,,,,,,,,,,,,,,,,,,,,,,,,,,,,,,,,,,,,,,,,,,,,,659.5280887239987,659.5282060709997,659.5282189809986,659.5420217689989,659.5420217689989,660.5428418779993,660.5428418779993,663.542260799999,663.542260799999,663.542260799999,663.542260799999,663.5267645149997,None,0,None,663.5271869009994,663.5272300460001,None,663.5273420319991,663.5273992099992,None,663.5275088869985,663.527545809,None,,,,,,,,,,,,,,,88,001,0,,2024-04-15_11h46.56.884,replicate_nsd,2023.2.3,59.92647189675796,2024-04-15 11h47.11.714314 -0400,
images/image_374_seed_1.png,52,0,0,0,1,"[9, 19, 31, 42, 56, 68, 69, 70, 71]",,,,,0,124,124,124,663.542260799999,,,,,,,,,,,,,,,,,,,,,,,,,,,,,,,,,,,,,,,,,,,,,,,,663.527918103,663.5280361810001,663.5280491159992,663.542260799999,663.542260799999,664.5428584879992,664.5428584879992,667.5426112280002,667.5426112280002,667.5426112280002,667.5426112280002,667.5267045979999,None,0,None,667.527129701999,667.5271743559988,None,667.5272852509988,667.5273425259984,None,667.5274511669995,667.527487596999,None,,,,,,,,,,,,,,,88,001,0,,2024-04-15_11h46.56.884,replicate_nsd,2023.2.3,59.92647189675796,2024-04-15 11h47.11.714314 -0400,
images/image_59_seed_1.png,53,0,0,0,1,"[9, 19, 31, 42, 56, 68, 69, 70, 71]",,,,,0,125,125,125,667.5426112280002,,,,,,,,,,,,,,,,,,,,,,,,,,,,,,,,,,,,,,,,,,,,,,,,667.5278613209994,667.5279791679986,667.5279920089997,667.5426112280002,667.5426112280002,668.5428677999989,668.5428677999989,671.5424645319999,671.5424645319999,671.5424645319999,671.5424645319999,671.5267718169998,None,0,None,671.5271980919988,671.5272417669985,None,671.527354246,671.5274129139998,None,671.5275247609989,671.5275617859988,None,,,,,,,,,,,,,,,88,001,0,,2024-04-15_11h46.56.884,replicate_nsd,2023.2.3,59.92647189675796,2024-04-15 11h47.11.714314 -0400,
images/image_625_seed_1.png,54,0,0,0,1,"[9, 19, 31, 42, 56, 68, 69, 70, 71]",,,,,0,126,126,126,671.5424645319999,,,,,,,,,,,,,,,,,,,,,,,,,,,,,,,,,,,,,,,,,,,,,,,,671.527942752,671.5280613849991,671.5280745849996,671.5424645319999,671.5424645319999,672.5427530769994,672.5427530769994,675.5420926569986,675.5420926569986,675.5420926569986,675.5420926569986,675.5255592159992,None,0,None,675.5257691539991,675.5257896109997,None,675.525840835,675.5258680499992,None,675.525918497,675.5259351999994,None,,,,,,,,,,,,,,,88,001,0,,2024-04-15_11h46.56.884,replicate_nsd,2023.2.3,59.92647189675796,2024-04-15 11h47.11.714314 -0400,
images/image_274_seed_1.png,55,0,1,0,1,"[9, 19, 31, 42, 56, 68, 69, 70, 71]",,,,,0,127,127,127,675.5420926569986,,,,,,,,,,,,,,,,,,,,,,,,,,,,,,,,,,,,,,,,,,,,,,,,675.5261097679995,675.526164809,675.5261705829998,675.5420926569986,675.5420926569986,676.5428271329984,676.5428271329984,679.5426759859984,679.5426759859984,679.5426759859984,679.5426759859984,679.5267336769994,None,0,None,679.527157954999,679.5272010399985,None,679.5273134299987,679.5273706909993,None,679.5274805709996,679.5275173519985,None,,,,,,,,,,,,,,,88,001,0,,2024-04-15_11h46.56.884,replicate_nsd,2023.2.3,59.92647189675796,2024-04-15 11h47.11.714314 -0400,
blank.jpg,56,1,0,0,1,"[9, 19, 31, 42, 56, 68, 69, 70, 71]",,,,,0,128,128,128,679.5426759859984,,,,,,,,,,,,,,,,,,,,,,,,,,,,,,,,,,,,,,,,,,,,,,,,679.5278934419985,679.5280139629995,679.5280271899992,,,,,,,,,679.5321396299987,None,0,None,679.53251748,683.5266839179985,None,683.5268957039989,683.5269580349996,None,683.527085923999,683.527124917,None,679.5426759859984,679.5426759859984,683.541933430999,683.541933430999,,,,,,,,,,,88,001,0,,2024-04-15_11h46.56.884,replicate_nsd,2023.2.3,59.92647189675796,2024-04-15 11h47.11.714314 -0400,
images/image_26_seed_1.png,57,0,0,0,1,"[9, 19, 31, 42, 56, 68, 69, 70, 71]",,,,,0,129,129,129,683.541933430999,,,,,,,,,,,,,,,,,,,,,,,,,,,,,,,,,,,,,,,,,,,,,,,,683.5275141429993,683.5276337809992,683.5276466949999,683.541933430999,683.541933430999,684.5431790399998,684.5431790399998,687.5422331089994,687.5422331089994,687.5422331089994,687.5422331089994,687.5266801549988,None,0,None,687.5271009069984,687.5271449439988,None,687.5272572329995,687.5273147659991,None,687.5274263539995,687.5274627639992,None,,,,,,,,,,,,,,,88,001,0,,2024-04-15_11h46.56.884,replicate_nsd,2023.2.3,59.92647189675796,2024-04-15 11h47.11.714314 -0400,
images/image_621_seed_1.png,58,0,0,0,1,"[9, 19, 31, 42, 56, 68, 69, 70, 71]",,,,,0,130,130,130,687.5422331089994,,,,,,,,,,,,,,,,,,,,,,,,,,,,,,,,,,,,,,,,,,,,,,,,687.5278336269985,687.5279527219991,687.5279657989995,687.5422331089994,687.5422331089994,688.5428023549994,688.5428023549994,691.542243943999,691.542243943999,691.542243943999,691.542243943999,691.5267292600001,None,0,None,691.5271503259992,691.5271928459988,None,691.5273038989999,691.5273611879984,None,691.5274713819999,691.5275081599993,None,,,,,,,,,,,,,,,88,001,0,,2024-04-15_11h46.56.884,replicate_nsd,2023.2.3,59.92647189675796,2024-04-15 11h47.11.714314 -0400,
images/image_390_seed_1.png,59,0,0,0,1,"[9, 19, 31, 42, 56, 68, 69, 70, 71]",,,,,0,131,131,131,691.542243943999,,,,,,,,,,,,,,,,,,,,,,,,,,,,,,,,,,,,,,,,,,,,,,,,691.5278859549999,691.5280062379989,691.5280194229999,691.542243943999,691.542243943999,692.5432003119986,692.5432003119986,695.5419333009995,695.5419333009995,695.5419333009995,695.5419333009995,695.5263795939991,None,0,None,695.5268012379984,695.5268444979993,None,695.5269563129987,695.5270140039993,None,695.5271248999998,695.5271617909984,None,,,,,,,,,,,,,,,88,001,0,,2024-04-15_11h46.56.884,replicate_nsd,2023.2.3,59.92647189675796,2024-04-15 11h47.11.714314 -0400,
images/image_403_seed_1.png,60,0,0,0,1,"[9, 19, 31, 42, 56, 68, 69, 70, 71]",,,,,0,132,132,132,695.5419333009995,,,,,,,,,,,,,,,,,,,,,,,,,,,,,,,,,,,,,,,,,,,,,,,,695.5275378669994,695.5276567319997,695.5276705969991,695.5419333009995,695.5419333009995,696.5430131699995,696.5430131699995,699.5420070229993,699.5420070229993,699.5420070229993,699.5420070229993,699.5289335419984,None,0,None,699.5294471519992,699.5295026519998,None,699.5296294629989,699.5296922179987,None,699.5298086779985,699.5298464509997,None,,,,,,,,,,,,,,,88,001,0,,2024-04-15_11h46.56.884,replicate_nsd,2023.2.3,59.92647189675796,2024-04-15 11h47.11.714314 -0400,
images/image_689_seed_1.png,61,0,0,0,1,"[9, 19, 31, 42, 56, 68, 69, 70, 71]",,,,,0,133,133,133,699.5420070229993,,,,,,,,,,,,,,,,,,,,,,,,,,,,,,,,,,,,,,,,,,,,,,,,699.5302346939989,699.5303624179996,699.5303755619989,699.5420070229993,699.5420070229993,700.5428106309992,700.5428106309992,703.5419287579989,703.5419287579989,703.5419287579989,703.5419287579989,703.5262618699999,None,0,None,703.5266832119996,703.5267267749987,None,703.5268376579988,703.5268954369985,None,703.5270050889994,703.5270423949987,None,,,,,,,,,,,,,,,88,001,0,,2024-04-15_11h46.56.884,replicate_nsd,2023.2.3,59.92647189675796,2024-04-15 11h47.11.714314 -0400,
images/image_303_seed_1.png,62,0,0,0,1,"[9, 19, 31, 42, 56, 68, 69, 70, 71]",,,,,0,134,134,134,703.5419287579989,,,,,,,,,,,,,,,,,,,,,,,,,,,,,,,,,,,,,,,,,,,,,,,,703.5274200059994,703.5275378389997,703.5275505589998,703.5419287579989,703.5419287579989,704.5426766929995,704.5426766929995,707.5420004499993,707.5420004499993,707.5420004499993,707.5420004499993,707.526851433,None,0,None,707.5273809929986,707.5274244639986,None,707.5275342739988,707.5275917089984,None,707.527701641,707.5277387629994,None,,,,,,,,,,,,,,,88,001,0,,2024-04-15_11h46.56.884,replicate_nsd,2023.2.3,59.92647189675796,2024-04-15 11h47.11.714314 -0400,
images/image_624_seed_1.png,63,0,0,0,1,"[9, 19, 31, 42, 56, 68, 69, 70, 71]",,,,,0,135,135,135,707.5420004499993,,,,,,,,,,,,,,,,,,,,,,,,,,,,,,,,,,,,,,,,,,,,,,,,707.528112394999,707.5282303779986,707.5282429569997,707.5420004499993,707.5420004499993,708.5428573419995,708.5428573419995,711.5421972489985,711.5421972489985,711.5421972489985,711.5421972489985,711.5256966669986,None,0,None,711.526097512,711.5261415559999,None,711.5262536999999,711.5263117369996,None,711.526422474999,711.5264593669999,None,,,,,,,,,,,,,,,88,001,0,,2024-04-15_11h46.56.884,replicate_nsd,2023.2.3,59.92647189675796,2024-04-15 11h47.11.714314 -0400,
images/image_438_seed_1.png,64,0,1,0,1,"[9, 19, 31, 42, 56, 68, 69, 70, 71]",,,,,0,136,136,136,711.5421972489985,,,,,,,,,,,,,,,,,,,,,,,,,,,,,,,,,,,,,,,,,,,,,,,,711.5268265149989,711.5269178669987,711.5269280109987,711.5421972489985,711.5421972489985,712.542608452999,712.542608452999,715.5425489939989,715.5425489939989,715.5425489939989,715.5425489939989,715.5266745959998,None,0,None,715.5270988989996,715.5271418949997,None,715.5272530900002,715.5273105259985,None,715.5274214429992,715.5274577249984,None,,,,,,,,,,,,,,,88,001,0,,2024-04-15_11h46.56.884,replicate_nsd,2023.2.3,59.92647189675796,2024-04-15 11h47.11.714314 -0400,
