current_image,trial_index,is_blank_trial,is_repeat,is_new_run,run_num,all_blanks_list,practice.thisRepN,practice.thisTrialN,practice.thisN,practice.thisIndex,loop_all_images.thisRepN,loop_all_images.thisTrialN,loop_all_images.thisN,loop_all_images.thisIndex,thisRow.t,notes,set_up.started,set_up.stopped,practice_continue.started,key_resp_6.started,text_6.started,practice_continue.stopped,key_resp_6.keys,key_resp_6.rt,key_resp_6.duration,set_skips_and_correct_key_2.started,set_skips_and_correct_key_2.stopped,practice_trial.started,polygon_3.started,all_keys_pressed_2.started,image_2.started,press_if_repeat_2.started,image_2.stopped,press_if_repeat_2.stopped,polygon_3.stopped,all_keys_pressed_2.stopped,practice_trial.stopped,press_if_repeat_2.keys,press_if_repeat_2.corr,press_if_repeat_2.rt,press_if_repeat_2.duration,all_keys_pressed_2.keys,blank_trial_2.started,blank_trial_2.stopped,polygon_4.started,polygon_4.stopped,testing_continue.started,key_resp_7.started,text_7.started,testing_continue.stopped,key_resp_7.keys,key_resp_7.rt,key_resp_7.duration,waiting_fmri.started,key_resp_2.started,text_3.started,waiting_fmri.stopped,key_resp_2.keys,key_resp_2.rt,key_resp_2.duration,set_skips_and_correct_key.started,set_skips_and_correct_key.stopped,trial.started,polygon.started,all_keys_pressed.started,image.started,press_if_repeat.started,image.stopped,press_if_repeat.stopped,polygon.stopped,all_keys_pressed.stopped,trial.stopped,press_if_repeat.keys,press_if_repeat.corr,press_if_repeat.rt,press_if_repeat.duration,all_keys_pressed.keys,blank_trial.started,blank_trial.stopped,blank_trial_testing_keys.keys,run_wait2_2.started,run_wait2_2.stopped,key_resp_5.keys,waiting_fmri_2.started,waiting_fmri_2.stopped,key_resp_4.keys,blank_trial_testing_keys.started,polygon_2.started,blank_trial_testing_keys.stopped,polygon_2.stopped,all_keys_pressed.rt,all_keys_pressed.duration,key_resp_5.started,text_5.started,key_resp_5.rt,key_resp_5.duration,key_resp_4.started,text_4.started,key_resp_4.rt,key_resp_4.duration,participant,session,starting_run,,date,expName,psychopyVersion,frameRate,expStart,
,,,,,,,,,,,,,,,,,0.02759153799706837,0.027839894999488024,0.027861986996867927,0.0482132899996941,0.0482132899996941,240.16707191599926,4,240.10969022100107,None,,,,,,,,,,,,,,,,,,,,,,,,,,,,,,,,,,,,,,,,,,,,,,,,,,,,,,,,,,,,,,,,,,,,,,,,,,,,97,001,0,,2024-04-13_12h09.34.424,replicate_nsd,2023.2.3,60.844381039993614,2024-04-13 12h10.47.544552 -0400,
practice_images/paired_image_15_1.png,0,0,,,,,0,0,0,0,,,,,240.20259023499966,,,,,,,,,,,240.17584685899783,240.1759100039999,240.17591869699754,240.20259023499966,240.20259023499966,241.2009094069981,241.2009094069981,244.20065982699816,244.20065982699816,244.20065982699816,244.20065982699816,244.1843079959981,2,0,1.7609834670001874,None,None,244.18531718499798,244.1853597909976,,,,,,,,,,,,,,,,,,,,,,,,,,,,,,,,,,,,,,,,,,,,,,,,,,,,,,,,,97,001,0,,2024-04-13_12h09.34.424,replicate_nsd,2023.2.3,60.844381039993614,2024-04-13 12h10.47.544552 -0400,
practice_images/paired_image_18_1.png,1,0,,,,,0,1,1,1,,,,,244.20065982699816,,,,,,,,,,,244.1856404129976,244.185726427997,244.18573788799767,244.20065982699816,244.20065982699816,245.20092083499912,245.20092083499912,248.200307359999,248.200307359999,248.200307359999,248.200307359999,248.18434375799916,None,0,,,None,248.184771729997,248.18481128999701,,,,,,,,,,,,,,,,,,,,,,,,,,,,,,,,,,,,,,,,,,,,,,,,,,,,,,,,,97,001,0,,2024-04-13_12h09.34.424,replicate_nsd,2023.2.3,60.844381039993614,2024-04-13 12h10.47.544552 -0400,
practice_images/paired_image_15_2.png,2,0,,,,,0,2,2,2,,,,,248.200307359999,,,,,,,,,,,248.18509344599806,248.18517772199993,248.18518929299898,248.200307359999,248.200307359999,249.20090248899942,249.20090248899942,252.1999087089971,252.1999087089971,252.1999087089971,252.1999087089971,252.184188979998,None,0,,,None,252.18461901899718,252.18466091299706,,,,,,,,,,,,,,,,,,,,,,,,,,,,,,,,,,,,,,,,,,,,,,,,,,,,,,,,,97,001,0,,2024-04-13_12h09.34.424,replicate_nsd,2023.2.3,60.844381039993614,2024-04-13 12h10.47.544552 -0400,
practice_images/paired_image_19_1.png,3,0,,,,,0,3,3,3,,,,,252.1999087089971,,,,,,,,,,,252.18494041799931,252.1850259979983,252.18503713399696,252.1999087089971,252.1999087089971,253.20092994099832,253.20092994099832,256.2002073980002,256.2002073980002,256.2002073980002,256.2002073980002,256.1839442729979,None,0,,,None,256.1843699469973,256.18441013399934,,,,,,,,,,,,,,,,,,,,,,,,,,,,,,,,,,,,,,,,,,,,,,,,,,,,,,,,,97,001,0,,2024-04-13_12h09.34.424,replicate_nsd,2023.2.3,60.844381039993614,2024-04-13 12h10.47.544552 -0400,
practice_images/paired_image_27_1.png,4,0,,,,,0,4,4,4,,,,,256.2002073980002,,,,,,,,,,,256.1846882259997,256.18477181599883,256.1847832179992,256.2002073980002,256.2002073980002,257.2005159699984,257.2005159699984,260.19998997699804,260.19998997699804,260.19998997699804,260.19998997699804,260.18430575899765,None,0,,,None,260.1847336619976,260.1847738039978,,,,,,,,,,,,,,,,,,,,,,,,,,,,,,,,,,,,,,,,,,,,,,,,,,,,,,,,,97,001,0,,2024-04-13_12h09.34.424,replicate_nsd,2023.2.3,60.844381039993614,2024-04-13 12h10.47.544552 -0400,
practice_images/paired_image_30_1.png,5,0,,,,,0,5,5,5,,,,,260.19998997699804,,,,,,,,,,,260.1850535989979,260.1851374409998,260.18514896299894,260.19998997699804,260.19998997699804,261.2009035329975,261.2009035329975,264.20020686899807,264.20020686899807,264.20020686899807,264.20020686899807,264.1840963750001,None,0,,,None,264.1845489949992,264.18459384499874,,,,,,,,,,,,,,,,,,,,,,,,,,,,,,,,,,,,,,,,,,,,,,,,,,,,,,,,,97,001,0,,2024-04-13_12h09.34.424,replicate_nsd,2023.2.3,60.844381039993614,2024-04-13 12h10.47.544552 -0400,
practice_images/paired_image_36_1.png,6,0,,,,,0,6,6,6,,,,,264.20020686899807,,,,,,,,,,,264.18488174899903,264.18497279099756,264.1849847489975,264.20020686899807,264.20020686899807,265.1998268879979,265.1998268879979,268.20028004199776,268.20028004199776,268.20028004199776,268.20028004199776,268.1843133379989,None,0,,,None,268.1847379639985,268.18477769299716,,,,,,,,,,,,,,,,,,,,,,,,,,,,,,,,,,,,,,,,,,,,,,,,,,,,,,,,,97,001,0,,2024-04-13_12h09.34.424,replicate_nsd,2023.2.3,60.844381039993614,2024-04-13 12h10.47.544552 -0400,
practice_images/paired_image_4_2.png,7,0,,,,,0,7,7,7,,,,,268.20028004199776,,,,,,,,,,,268.1850731099985,268.18536543499795,268.18537839299825,268.20028004199776,268.20028004199776,269.2008390009978,269.2008390009978,272.2000553910002,272.2000553910002,272.2000553910002,272.2000553910002,272.184179762,None,0,,,None,272.18461100499917,272.18465193799784,,,,,,,,,,,,,,,,,,,,,,,,,,,,,,,,,,,,,,,,,,,,,,,,,,,,,,,,,97,001,0,,2024-04-13_12h09.34.424,replicate_nsd,2023.2.3,60.844381039993614,2024-04-13 12h10.47.544552 -0400,
practice_images/paired_image_12_1.png,8,0,,,,,0,8,8,8,,,,,272.2000553910002,,,,,,,,,,,272.1849337169988,272.185019327997,272.18503083199903,272.2000553910002,272.2000553910002,273.20086479399833,273.20086479399833,276.200016494,276.200016494,276.200016494,276.200016494,276.18422321899925,None,0,,,None,276.1846389829989,276.1846770259981,,,,,,,,,,,,,,,,,,,,,,,,,,,,,,,,,,,,,,,,,,,,,,,,,,,,,,,,,97,001,0,,2024-04-13_12h09.34.424,replicate_nsd,2023.2.3,60.844381039993614,2024-04-13 12h10.47.544552 -0400,
practice_images/paired_image_2_1.png,9,0,,,,,0,9,9,9,,,,,276.200016494,,,,,,,,,,,276.1849493619993,276.18503162199704,276.18504267499884,276.200016494,276.200016494,277.2008759370001,277.2008759370001,280.2003211239971,280.2003211239971,280.2003211239971,280.2003211239971,280.1843117749995,None,0,,,None,280.18474150600014,280.18478139299987,,,,,,,,,,,,,,,,,,,,,,,,,,,,,,,,,,,,,,,,,,,,,,,,,,,,,,,,,97,001,0,,2024-04-13_12h09.34.424,replicate_nsd,2023.2.3,60.844381039993614,2024-04-13 12h10.47.544552 -0400,
blank.jpg,10,1,,,,,0,10,10,10,,,,,280.2003211239971,,,,,,,,,,,280.1850583919986,280.1851437089972,280.1851551289983,,,,,,,,,280.1912504269967,None,0,,,None,280.19155908099856,284.2510176839969,280.2003211239971,284.26655883999774,,,,,,,,,,,,,,,,,,,,,,,,,,,,,,,,,,,,,,,,,,,,,,,,,,,,,,,97,001,0,,2024-04-13_12h09.34.424,replicate_nsd,2023.2.3,60.844381039993614,2024-04-13 12h10.47.544552 -0400,
practice_images/paired_image_28_1.png,11,0,,,,,0,11,11,11,,,,,284.26655883999774,,,,,,,,,,,284.2514013049986,284.25148614499994,284.25149791199874,284.26655883999774,284.26655883999774,285.26724223199926,285.26724223199926,288.26699179599746,288.26699179599746,288.26699179599746,288.26699179599746,288.2510636499974,None,0,,,None,288.25149170499935,288.2515337169971,,,,,,,,,,,,,,,,,,,,,,,,,,,,,,,,,,,,,,,,,,,,,,,,,,,,,,,,,97,001,0,,2024-04-13_12h09.34.424,replicate_nsd,2023.2.3,60.844381039993614,2024-04-13 12h10.47.544552 -0400,
practice_images/paired_image_21_2.png,12,0,,,,,0,12,12,12,,,,,288.26699179599746,,,,,,,,,,,288.25181435299965,288.2518997139996,288.2519111299989,288.26699179599746,288.26699179599746,289.2672494649996,289.2672494649996,292.2663455229995,292.2663455229995,292.2663455229995,292.2663455229995,292.2497391830002,None,0,,,None,292.2499563579986,292.24997468199945,,,,,,,,,,,,,,,,,,,,,,,,,,,,,,,,,,,,,,,,,,,,,,,,,,,,,,,,,97,001,0,,2024-04-13_12h09.34.424,replicate_nsd,2023.2.3,60.844381039993614,2024-04-13 12h10.47.544552 -0400,
practice_images/paired_image_25_2.png,13,0,,,,,0,13,13,13,,,,,292.2663455229995,,,,,,,,,,,292.2502389589972,292.2502774349996,292.2502827399985,292.2663455229995,292.2663455229995,293.267310387997,293.267310387997,296.26639115399666,296.26639115399666,296.26639115399666,296.26639115399666,296.2507337279967,None,0,,,None,296.2511644649967,296.25120438599697,,,,,,,,,,,,,,,,,,,,,,,,,,,,,,,,,,,,,,,,,,,,,,,,,,,,,,,,,97,001,0,,2024-04-13_12h09.34.424,replicate_nsd,2023.2.3,60.844381039993614,2024-04-13 12h10.47.544552 -0400,
practice_images/paired_image_33_1.png,14,0,,,,,0,14,14,14,,,,,296.26639115399666,,,,,,,,,,,296.2514839849973,296.2515690449982,296.2515805969997,296.26639115399666,296.26639115399666,297.2672735679989,297.2672735679989,300.2662911249972,300.2662911249972,300.2662911249972,300.2662911249972,300.2508546809986,None,0,,,None,300.2513984469988,300.2514388290001,,,,,,,,,,,,,,,,,,,,,,,,,,,,,,,,,,,,,,,,,,,,,,,,,,,,,,,,,97,001,0,,2024-04-13_12h09.34.424,replicate_nsd,2023.2.3,60.844381039993614,2024-04-13 12h10.47.544552 -0400,
practice_images/paired_image_22_2.png,15,0,,,,,0,15,15,15,,,,,300.2662911249972,,,,,,,,,,,300.25171537299684,300.251800324997,300.25181206999696,300.2662911249972,300.2662911249972,301.2672988279992,301.2672988279992,304.266908106998,304.266908106998,304.266908106998,304.266908106998,304.25067356199725,None,0,,,None,304.2510975009973,304.25113645999954,,,,,,,,,,,,,,,,,,,,,,,,,,,,,,,,,,,,,,,,,,,,,,,,,,,,,,,,,97,001,0,,2024-04-13_12h09.34.424,replicate_nsd,2023.2.3,60.844381039993614,2024-04-13 12h10.47.544552 -0400,
practice_images/paired_image_6_2.png,16,0,,,,,0,16,16,16,,,,,304.266908106998,,,,,,,,,,,304.25140804499824,304.2514747059977,304.2514836959999,304.266908106998,304.266908106998,305.267214907999,305.267214907999,308.26629218299786,308.26629218299786,308.26629218299786,308.26629218299786,308.2508489719985,None,0,,,None,308.25127502599935,308.2513145929988,,,,,,,,,,,,,,,,,,,,,,,,,,,,,,,,,,,,,,,,,,,,,,,,,,,,,,,,,97,001,0,,2024-04-13_12h09.34.424,replicate_nsd,2023.2.3,60.844381039993614,2024-04-13 12h10.47.544552 -0400,
practice_images/paired_image_24_1.png,17,0,,,,,0,17,17,17,,,,,308.26629218299786,,,,,,,,,,,308.25159565799913,308.25167960699764,308.2516912029969,308.26629218299786,308.26629218299786,309.2672975059977,309.2672975059977,312.26626147799834,312.26626147799834,312.26626147799834,312.26626147799834,312.25087428199913,None,0,,,None,312.25141755000004,312.25145795999924,,,,,,,,,,,,,,,,,,,,,,,,,,,,,,,,,,,,,,,,,,,,,,,,,,,,,,,,,97,001,0,,2024-04-13_12h09.34.424,replicate_nsd,2023.2.3,60.844381039993614,2024-04-13 12h10.47.544552 -0400,
practice_images/paired_image_20_2.png,18,0,,,,,0,18,18,18,,,,,312.26626147799834,,,,,,,,,,,312.2517364159976,312.25182156699884,312.25183280099736,312.26626147799834,312.26626147799834,313.2672695009969,313.2672695009969,316.2669354569989,316.2669354569989,316.2669354569989,316.2669354569989,316.25091000599787,None,0,,,None,316.2513369929984,316.2513778419998,,,,,,,,,,,,,,,,,,,,,,,,,,,,,,,,,,,,,,,,,,,,,,,,,,,,,,,,,97,001,0,,2024-04-13_12h09.34.424,replicate_nsd,2023.2.3,60.844381039993614,2024-04-13 12h10.47.544552 -0400,
practice_images/paired_image_36_2.png,19,0,,,,,0,19,19,19,,,,,316.2669354569989,,,,,,,,,,,316.2516565779988,316.2517420209988,316.2517535529987,316.2669354569989,316.2669354569989,317.2671913839986,317.2671913839986,320.2695947719985,320.2695947719985,320.2695947719985,320.2695947719985,320.250700452998,None,0,,,None,320.2511281019979,320.25116825799705,,,,,,,,,,,,,,,,,,,,,,,,,,,,,,,,,,,,,,,,,,,,,,,,,,,,,,,,,97,001,0,,2024-04-13_12h09.34.424,replicate_nsd,2023.2.3,60.844381039993614,2024-04-13 12h10.47.544552 -0400,
,,,,,,,,,,,,,,,,,,,,,,,,,,,,,,,,,,,,,,,,,,,,,,,320.25122968899814,320.2695947719985,320.2695947719985,326.1001250369991,4,5.824318627001048,None,,,,,,,,,,,,,,,,,,,,,,,,,,,,,,,,,,,,,,,,,,,,,,,,97,001,0,,2024-04-13_12h09.34.424,replicate_nsd,2023.2.3,60.844381039993614,2024-04-13 12h10.47.544552 -0400,
,,,,,,,,,,,,,,,,,,,,,,,,,,,,,,,,,,,,,,,,,,,,,,,,,,,,,,326.1001649739992,326.1168086459984,326.1168086459984,328.3501045489975,equal,2.2251145510017523,None,,,,,,,,,,,,,,,,,,,,,,,,,,,,,,,,,,,,,,,,,97,001,0,,2024-04-13_12h09.34.424,replicate_nsd,2023.2.3,60.844381039993614,2024-04-13 12h10.47.544552 -0400,
images/image_320_seed_1.png,0,0,0,0,0,"[9, 19, 29, 39, 49, 59, 68, 69, 70, 71]",,,,,0,0,0,0,328.46620118099963,,,,,,,,,,,,,,,,,,,,,,,,,,,,,,,,,,,,,,,,,,,,,,328.4312608449982,328.4313629009994,328.43137031199876,328.46620118099963,328.46620118099963,329.45034357999975,329.45034357999975,332.45057667499714,332.45057667499714,332.45057667499714,332.45057667499714,332.43399758399755,1,1,2.067395411999314,None,None,332.4368424289969,332.43688461299826,None,332.4375969419998,332.4376495129982,None,332.438347547999,332.4383837449968,None,,,,,,,,,,,,,,,97,001,0,,2024-04-13_12h09.34.424,replicate_nsd,2023.2.3,60.844381039993614,2024-04-13 12h10.47.544552 -0400,
images/image_351_seed_1.png,1,0,0,0,0,"[9, 19, 29, 39, 49, 59, 68, 69, 70, 71]",,,,,0,1,1,1,332.45057667499714,,,,,,,,,,,,,,,,,,,,,,,,,,,,,,,,,,,,,,,,,,,,,,332.43928778400004,332.43936154799667,332.43937014799667,332.45057667499714,332.45057667499714,333.4503820350001,333.4503820350001,336.4497893339976,336.4497893339976,336.4497893339976,336.4497893339976,336.4337997169969,None,0,,,None,336.434379585,336.4344279449979,None,336.43454462299997,336.4345979419995,None,336.4347125099994,336.43474858699847,None,,,,,,,,,,,,,,,97,001,0,,2024-04-13_12h09.34.424,replicate_nsd,2023.2.3,60.844381039993614,2024-04-13 12h10.47.544552 -0400,
images/image_135_seed_1.png,2,0,0,0,0,"[9, 19, 29, 39, 49, 59, 68, 69, 70, 71]",,,,,0,2,2,2,336.4497893339976,,,,,,,,,,,,,,,,,,,,,,,,,,,,,,,,,,,,,,,,,,,,,,336.4351469289977,336.4352537779996,336.4352663309983,336.4497893339976,336.4497893339976,337.45077242799744,337.45077242799744,340.4500412369998,340.4500412369998,340.4500412369998,340.4500412369998,340.4340402050002,None,0,,,None,340.434589389999,340.43463740899824,None,340.43475423499694,340.4348080749987,None,340.4349238229988,340.43496027499714,None,,,,,,,,,,,,,,,97,001,0,,2024-04-13_12h09.34.424,replicate_nsd,2023.2.3,60.844381039993614,2024-04-13 12h10.47.544552 -0400,
images/image_113_seed_1.png,3,0,0,0,0,"[9, 19, 29, 39, 49, 59, 68, 69, 70, 71]",,,,,0,3,3,3,340.4500412369998,,,,,,,,,,,,,,,,,,,,,,,,,,,,,,,,,,,,,,,,,,,,,,340.43535152599725,340.4354620719969,340.4354721949967,340.4500412369998,340.4500412369998,341.450723078,341.450723078,344.4499988309981,344.4499988309981,344.4499988309981,344.4499988309981,344.4339923819971,None,0,,,None,344.4345245299992,344.4345701209968,None,344.43468331799886,344.43473661999815,None,344.4348489829972,344.43488435499967,None,,,,,,,,,,,,,,,97,001,0,,2024-04-13_12h09.34.424,replicate_nsd,2023.2.3,60.844381039993614,2024-04-13 12h10.47.544552 -0400,
images/image_62_seed_1.png,4,0,0,0,0,"[9, 19, 29, 39, 49, 59, 68, 69, 70, 71]",,,,,0,4,4,4,344.4499988309981,,,,,,,,,,,,,,,,,,,,,,,,,,,,,,,,,,,,,,,,,,,,,,344.4352610319984,344.43536571799996,344.43537823299994,344.4499988309981,344.4499988309981,345.45031845399717,345.45031845399717,348.4496329649992,348.4496329649992,348.4496329649992,348.4496329649992,348.4336366439966,None,0,,,None,348.43442990199765,348.4344789099996,None,348.43459618499764,348.4346501439977,None,348.4347653759978,348.4348022109989,None,,,,,,,,,,,,,,,97,001,0,,2024-04-13_12h09.34.424,replicate_nsd,2023.2.3,60.844381039993614,2024-04-13 12h10.47.544552 -0400,
images/image_663_seed_1.png,5,0,0,0,0,"[9, 19, 29, 39, 49, 59, 68, 69, 70, 71]",,,,,0,5,5,5,348.4496329649992,,,,,,,,,,,,,,,,,,,,,,,,,,,,,,,,,,,,,,,,,,,,,,348.4351698529972,348.4352561709966,348.43526649299747,348.4496329649992,348.4496329649992,349.4503555559968,349.4503555559968,352.44934665399705,352.44934665399705,352.44934665399705,352.44934665399705,352.4352629169989,None,0,,,None,352.43558454699814,352.43561117999707,None,352.4356733229979,352.4357041609983,None,352.4357650649981,352.4357845630002,None,,,,,,,,,,,,,,,97,001,0,,2024-04-13_12h09.34.424,replicate_nsd,2023.2.3,60.844381039993614,2024-04-13 12h10.47.544552 -0400,
images/image_669_seed_1.png,6,0,0,0,0,"[9, 19, 29, 39, 49, 59, 68, 69, 70, 71]",,,,,0,6,6,6,352.44934665399705,,,,,,,,,,,,,,,,,,,,,,,,,,,,,,,,,,,,,,,,,,,,,,352.43599814799745,352.4360577399966,352.43606460199953,352.44934665399705,352.44934665399705,353.45196085599673,353.45196085599673,356.4496136989983,356.4496136989983,356.4496136989983,356.4496136989983,356.4329840729988,None,0,,,None,356.43324597699757,356.433268159999,None,356.4333204639988,356.4333462959985,None,356.43339732299864,356.43341378699915,None,,,,,,,,,,,,,,,97,001,0,,2024-04-13_12h09.34.424,replicate_nsd,2023.2.3,60.844381039993614,2024-04-13 12h10.47.544552 -0400,
images/image_580_seed_1.png,7,0,0,0,0,"[9, 19, 29, 39, 49, 59, 68, 69, 70, 71]",,,,,0,7,7,7,356.4496136989983,,,,,,,,,,,,,,,,,,,,,,,,,,,,,,,,,,,,,,,,,,,,,,356.43359177099774,356.4336408749987,356.4336467510002,356.4496136989983,356.4496136989983,357.4504015229977,357.4504015229977,360.4498000679996,360.4498000679996,360.4498000679996,360.4498000679996,360.43360164600017,None,0,,,None,360.4341223049996,360.43416873899696,None,360.434282127997,360.4343342949978,None,360.4344448669981,360.43447902499975,None,,,,,,,,,,,,,,,97,001,0,,2024-04-13_12h09.34.424,replicate_nsd,2023.2.3,60.844381039993614,2024-04-13 12h10.47.544552 -0400,
images/image_339_seed_1.png,8,0,0,0,0,"[9, 19, 29, 39, 49, 59, 68, 69, 70, 71]",,,,,0,8,8,8,360.4498000679996,,,,,,,,,,,,,,,,,,,,,,,,,,,,,,,,,,,,,,,,,,,,,,360.4351136209989,360.4352249409967,360.4352374459995,360.4498000679996,360.4498000679996,361.45036597999933,361.45036597999933,364.4503614109999,364.4503614109999,364.4503614109999,364.4503614109999,364.43369269999675,None,0,,,None,364.4342711029967,364.43431804099964,None,364.43443669299813,364.43448984899806,None,364.43460503299866,364.4346406689983,None,,,,,,,,,,,,,,,97,001,0,,2024-04-13_12h09.34.424,replicate_nsd,2023.2.3,60.844381039993614,2024-04-13 12h10.47.544552 -0400,
blank.jpg,9,1,0,0,0,"[9, 19, 29, 39, 49, 59, 68, 69, 70, 71]",,,,,0,9,9,9,364.4503614109999,,,,,,,,,,,,,,,,,,,,,,,,,,,,,,,,,,,,,,,,,,,,,,364.4350285929977,364.43513581599836,364.4351485529987,,,,,,,,,364.43890647999797,None,0,,,None,364.4391979819993,368.43367276199933,None,368.43393505699714,368.4340250969981,None,368.43422390199703,368.43428203099757,None,364.4503614109999,364.4503614109999,368.44963430999996,368.44963430999996,,,,,,,,,,,97,001,0,,2024-04-13_12h09.34.424,replicate_nsd,2023.2.3,60.844381039993614,2024-04-13 12h10.47.544552 -0400,
images/image_54_seed_1.png,10,0,0,0,0,"[9, 19, 29, 39, 49, 59, 68, 69, 70, 71]",,,,,0,10,10,10,368.44963430999996,,,,,,,,,,,,,,,,,,,,,,,,,,,,,,,,,,,,,,,,,,,,,,368.43474844999946,368.43486504999964,368.43487772799926,368.44963430999996,368.44963430999996,369.45037972099817,369.45037972099817,372.4497304519973,372.4497304519973,372.4497304519973,372.4497304519973,372.43388055499963,None,0,,,None,372.4344140359972,372.4344617969982,None,372.4345737659969,372.4346257849975,None,372.4347376379992,372.4347734799994,None,,,,,,,,,,,,,,,97,001,0,,2024-04-13_12h09.34.424,replicate_nsd,2023.2.3,60.844381039993614,2024-04-13 12h10.47.544552 -0400,
images/image_273_seed_1.png,11,0,0,0,0,"[9, 19, 29, 39, 49, 59, 68, 69, 70, 71]",,,,,0,11,11,11,372.4497304519973,,,,,,,,,,,,,,,,,,,,,,,,,,,,,,,,,,,,,,,,,,,,,,372.43517189699924,372.4352780479967,372.4352903109975,372.4497304519973,372.4497304519973,373.4503514959979,373.4503514959979,376.4496814289996,376.4496814289996,376.4496814289996,376.4496814289996,376.43364008799836,None,0,,,None,376.43421261599724,376.4342588139989,None,376.43437100499796,376.4344234599994,None,376.4345346409973,376.43456998799957,None,,,,,,,,,,,,,,,97,001,0,,2024-04-13_12h09.34.424,replicate_nsd,2023.2.3,60.844381039993614,2024-04-13 12h10.47.544552 -0400,
images/image_399_seed_1.png,12,0,0,0,0,"[9, 19, 29, 39, 49, 59, 68, 69, 70, 71]",,,,,0,12,12,12,376.4496814289996,,,,,,,,,,,,,,,,,,,,,,,,,,,,,,,,,,,,,,,,,,,,,,376.4349456459968,376.4350537909995,376.43506631799755,376.4496814289996,376.4496814289996,377.45036205299766,377.45036205299766,380.4492638619995,380.4492638619995,380.4492638619995,380.4492638619995,380.4336691769968,None,0,,,None,380.4342183769986,380.43426704599915,None,380.4343804209966,380.43443471599676,None,380.43454551899777,380.43458066699895,None,,,,,,,,,,,,,,,97,001,0,,2024-04-13_12h09.34.424,replicate_nsd,2023.2.3,60.844381039993614,2024-04-13 12h10.47.544552 -0400,
images/image_174_seed_1.png,13,0,0,0,0,"[9, 19, 29, 39, 49, 59, 68, 69, 70, 71]",,,,,0,13,13,13,380.4492638619995,,,,,,,,,,,,,,,,,,,,,,,,,,,,,,,,,,,,,,,,,,,,,,380.43496001099993,380.435067118,380.4350794689999,380.4492638619995,380.4492638619995,381.45041167999807,381.45041167999807,384.4493198129967,384.4493198129967,384.4493198129967,384.4493198129967,384.4339665399966,None,0,,,None,384.43449199099996,384.43453876799686,None,384.43465455899786,384.4347084379988,None,384.43482313999993,384.4348599719997,None,,,,,,,,,,,,,,,97,001,0,,2024-04-13_12h09.34.424,replicate_nsd,2023.2.3,60.844381039993614,2024-04-13 12h10.47.544552 -0400,
images/image_359_seed_1.png,14,0,0,0,0,"[9, 19, 29, 39, 49, 59, 68, 69, 70, 71]",,,,,0,14,14,14,384.4493198129967,,,,,,,,,,,,,,,,,,,,,,,,,,,,,,,,,,,,,,,,,,,,,,384.43525226499696,384.4353529509972,384.4353628659992,384.4493198129967,384.4493198129967,385.45032811099736,385.45032811099736,388.45011670599706,388.45011670599706,388.45011670599706,388.45011670599706,388.4339822469992,None,0,,,None,388.43452031999914,388.43456856699777,None,388.43468608299736,388.4347400709994,None,388.4348553279997,388.43489232199863,None,,,,,,,,,,,,,,,97,001,0,,2024-04-13_12h09.34.424,replicate_nsd,2023.2.3,60.844381039993614,2024-04-13 12h10.47.544552 -0400,
images/image_733_seed_1.png,15,0,0,0,0,"[9, 19, 29, 39, 49, 59, 68, 69, 70, 71]",,,,,0,15,15,15,388.45011670599706,,,,,,,,,,,,,,,,,,,,,,,,,,,,,,,,,,,,,,,,,,,,,,388.43527461899794,388.4353812079971,388.4353938280001,388.45011670599706,388.45011670599706,389.4501239249985,389.4501239249985,392.4490754219987,392.4490754219987,392.4490754219987,392.4490754219987,392.433652099,None,0,,,None,392.4344202249995,392.4344712159982,None,392.4345836679968,392.4346364029989,None,392.4347487999985,392.43478380799934,None,,,,,,,,,,,,,,,97,001,0,,2024-04-13_12h09.34.424,replicate_nsd,2023.2.3,60.844381039993614,2024-04-13 12h10.47.544552 -0400,
images/image_571_seed_1.png,16,0,0,0,0,"[9, 19, 29, 39, 49, 59, 68, 69, 70, 71]",,,,,0,16,16,16,392.4490754219987,,,,,,,,,,,,,,,,,,,,,,,,,,,,,,,,,,,,,,,,,,,,,,392.4351640939967,392.4352742109986,392.4352867549969,392.4490754219987,392.4490754219987,393.45033868399696,393.45033868399696,396.44923580999966,396.44923580999966,396.44923580999966,396.44923580999966,396.4335518879998,None,0,,,None,396.43416160599736,396.43421257299997,None,396.43432576099804,396.4343795479981,None,396.4344909529973,396.4345261239978,None,,,,,,,,,,,,,,,97,001,0,,2024-04-13_12h09.34.424,replicate_nsd,2023.2.3,60.844381039993614,2024-04-13 12h10.47.544552 -0400,
images/image_321_seed_1.png,17,0,0,0,0,"[9, 19, 29, 39, 49, 59, 68, 69, 70, 71]",,,,,0,17,17,17,396.44923580999966,,,,,,,,,,,,,,,,,,,,,,,,,,,,,,,,,,,,,,,,,,,,,,396.43490091799686,396.43502778699985,396.43503782100015,396.44923580999966,396.44923580999966,397.4503524389984,397.4503524389984,400.4496363170001,400.4496363170001,400.4496363170001,400.4496363170001,400.43365149300007,None,0,,,None,400.43423003899807,400.434278419998,None,400.43439437899724,400.4344471289987,None,400.4345618189982,400.4345977949997,None,,,,,,,,,,,,,,,97,001,0,,2024-04-13_12h09.34.424,replicate_nsd,2023.2.3,60.844381039993614,2024-04-13 12h10.47.544552 -0400,
images/image_610_seed_1.png,18,0,0,0,0,"[9, 19, 29, 39, 49, 59, 68, 69, 70, 71]",,,,,0,18,18,18,400.4496363170001,,,,,,,,,,,,,,,,,,,,,,,,,,,,,,,,,,,,,,,,,,,,,,400.43499645299744,400.435081378997,400.43509144499694,400.4496363170001,400.4496363170001,401.4504056259975,401.4504056259975,404.4502524719974,404.4502524719974,404.4502524719974,404.4502524719974,404.43347927799914,None,0,,,None,404.4340675389976,404.43411562599795,None,404.43422960799944,404.43428294899786,None,404.4343952859999,404.43443058699995,None,,,,,,,,,,,,,,,97,001,0,,2024-04-13_12h09.34.424,replicate_nsd,2023.2.3,60.844381039993614,2024-04-13 12h10.47.544552 -0400,
blank.jpg,19,1,0,0,0,"[9, 19, 29, 39, 49, 59, 68, 69, 70, 71]",,,,,0,19,19,19,404.4502524719974,,,,,,,,,,,,,,,,,,,,,,,,,,,,,,,,,,,,,,,,,,,,,,404.4348064929982,404.4349291990002,404.4349391509968,,,,,,,,,404.4386811339973,None,0,,,None,404.4389692259974,408.433477691,None,408.43370973199853,408.43377244099975,None,408.43390820499917,408.43394655599695,None,404.4502524719974,404.4502524719974,408.4495699219988,408.4495699219988,,,,,,,,,,,97,001,0,,2024-04-13_12h09.34.424,replicate_nsd,2023.2.3,60.844381039993614,2024-04-13 12h10.47.544552 -0400,
images/image_251_seed_1.png,20,0,0,0,0,"[9, 19, 29, 39, 49, 59, 68, 69, 70, 71]",,,,,0,20,20,20,408.4495699219988,,,,,,,,,,,,,,,,,,,,,,,,,,,,,,,,,,,,,,,,,,,,,,408.43435363099707,408.4344715189982,408.43448426199757,408.4495699219988,408.4495699219988,409.4503472109973,409.4503472109973,412.4497126419992,412.4497126419992,412.4497126419992,412.4497126419992,412.43340414699924,None,0,,,None,412.43395952799983,412.43401187400013,None,412.43413019999934,412.434185326998,None,412.4343009589975,412.434338103998,None,,,,,,,,,,,,,,,97,001,0,,2024-04-13_12h09.34.424,replicate_nsd,2023.2.3,60.844381039993614,2024-04-13 12h10.47.544552 -0400,
images/image_43_seed_1.png,21,0,0,0,0,"[9, 19, 29, 39, 49, 59, 68, 69, 70, 71]",,,,,0,21,21,21,412.4497126419992,,,,,,,,,,,,,,,,,,,,,,,,,,,,,,,,,,,,,,,,,,,,,,412.43472663599823,412.4348151319973,412.4348252939999,412.4497126419992,412.4497126419992,413.45035899399954,413.45035899399954,416.44919759599725,416.44919759599725,416.44919759599725,416.44919759599725,416.43258435999815,None,0,,,None,416.4328374359975,416.43285961699803,None,416.4329120109978,416.4329377799986,None,416.43298924499686,416.4330056869985,None,,,,,,,,,,,,,,,97,001,0,,2024-04-13_12h09.34.424,replicate_nsd,2023.2.3,60.844381039993614,2024-04-13 12h10.47.544552 -0400,
images/image_604_seed_1.png,22,0,0,0,0,"[9, 19, 29, 39, 49, 59, 68, 69, 70, 71]",,,,,0,22,22,22,416.44919759599725,,,,,,,,,,,,,,,,,,,,,,,,,,,,,,,,,,,,,,,,,,,,,,416.43318525799987,416.43323396399865,416.4332396589998,416.44919759599725,416.44919759599725,417.45030164299897,417.45030164299897,420.4497312120002,420.4497312120002,420.4497312120002,420.4497312120002,420.43376156199884,None,0,,,None,420.4343214519977,420.43437192499914,None,420.4344879119999,420.434542398998,None,420.434657040998,420.43470084599903,None,,,,,,,,,,,,,,,97,001,0,,2024-04-13_12h09.34.424,replicate_nsd,2023.2.3,60.844381039993614,2024-04-13 12h10.47.544552 -0400,
images/image_467_seed_1.png,23,0,0,0,0,"[9, 19, 29, 39, 49, 59, 68, 69, 70, 71]",,,,,0,23,23,23,420.4497312120002,,,,,,,,,,,,,,,,,,,,,,,,,,,,,,,,,,,,,,,,,,,,,,420.43508802999713,420.4352001199986,420.43521283599694,420.4497312120002,420.4497312120002,421.450212243999,421.450212243999,424.44991170399953,424.44991170399953,424.44991170399953,424.44991170399953,424.43358302999695,None,0,,,None,424.43413309399693,424.43418171699886,None,424.434299302,424.4343534159998,None,424.4344682069968,424.4345044659967,None,,,,,,,,,,,,,,,97,001,0,,2024-04-13_12h09.34.424,replicate_nsd,2023.2.3,60.844381039993614,2024-04-13 12h10.47.544552 -0400,
images/image_229_seed_1.png,24,0,0,0,0,"[9, 19, 29, 39, 49, 59, 68, 69, 70, 71]",,,,,0,24,24,24,424.44991170399953,,,,,,,,,,,,,,,,,,,,,,,,,,,,,,,,,,,,,,,,,,,,,,424.43489056199905,424.43499954199797,424.4350122399992,424.44991170399953,424.44991170399953,425.45028362499943,425.45028362499943,428.4501162029992,428.4501162029992,428.4501162029992,428.4501162029992,428.4336063269984,None,0,,,None,428.4341690759975,428.43422089399974,None,428.43433814499804,428.43439177599794,None,428.43450885199854,428.4345457339987,None,,,,,,,,,,,,,,,97,001,0,,2024-04-13_12h09.34.424,replicate_nsd,2023.2.3,60.844381039993614,2024-04-13 12h10.47.544552 -0400,
images/image_128_seed_1.png,25,0,0,0,0,"[9, 19, 29, 39, 49, 59, 68, 69, 70, 71]",,,,,0,25,25,25,428.4501162029992,,,,,,,,,,,,,,,,,,,,,,,,,,,,,,,,,,,,,,,,,,,,,,428.43493432099785,428.435073638997,428.43508991899944,428.4501162029992,428.4501162029992,429.4502285339986,429.4502285339986,432.4504043379966,432.4504043379966,432.4504043379966,432.4504043379966,432.433556734999,1,1,1.1156205110019073,None,"['1', '1']",432.43599847099904,432.43603820299904,None,432.4361410149977,432.43618564499775,None,432.43627913699675,432.43630828499954,None,,,,,"[0.635605832998408, 0.8356139520001307]","[None, None]",,,,,,,,,97,001,0,,2024-04-13_12h09.34.424,replicate_nsd,2023.2.3,60.844381039993614,2024-04-13 12h10.47.544552 -0400,
images/image_408_seed_1.png,26,0,0,0,0,"[9, 19, 29, 39, 49, 59, 68, 69, 70, 71]",,,,,0,26,26,26,432.4504043379966,,,,,,,,,,,,,,,,,,,,,,,,,,,,,,,,,,,,,,,,,,,,,,432.43661218099805,432.4366976459969,432.4367077479983,432.4504043379966,432.4504043379966,433.4502110229987,433.4502110229987,436.44959280299736,436.44959280299736,436.44959280299736,436.44959280299736,436.432949389,None,0,,,None,436.43349727199893,436.43354805499985,None,436.4336676899984,436.43372034599815,None,436.4338341619987,436.433876359999,None,,,,,,,,,,,,,,,97,001,0,,2024-04-13_12h09.34.424,replicate_nsd,2023.2.3,60.844381039993614,2024-04-13 12h10.47.544552 -0400,
images/image_508_seed_1.png,27,0,0,0,0,"[9, 19, 29, 39, 49, 59, 68, 69, 70, 71]",,,,,0,27,27,27,436.44959280299736,,,,,,,,,,,,,,,,,,,,,,,,,,,,,,,,,,,,,,,,,,,,,,436.43421127799957,436.43429913399814,436.43430921099934,436.44959280299736,436.44959280299736,437.449863171998,437.449863171998,440.44983420899734,440.44983420899734,440.44983420899734,440.44983420899734,440.43346640299933,None,0,,,None,440.4339085469983,440.4339463669967,None,440.43403933699665,440.43408330499733,None,440.43417434599905,440.43420316399715,None,,,,,,,,,,,,,,,97,001,0,,2024-04-13_12h09.34.424,replicate_nsd,2023.2.3,60.844381039993614,2024-04-13 12h10.47.544552 -0400,
images/image_359_seed_1.png,28,0,1,0,0,"[9, 19, 29, 39, 49, 59, 68, 69, 70, 71]",,,,,0,28,28,28,440.44983420899734,,,,,,,,,,,,,,,,,,,,,,,,,,,,,,,,,,,,,,,,,,,,,,440.4345111719995,440.4345971419971,440.4346074259993,440.44983420899734,440.44983420899734,441.4502573599966,441.4502573599966,444.44948505199864,444.44948505199864,444.44948505199864,444.44948505199864,444.43355783399966,None,0,,,None,444.4341354520002,444.4341832029968,None,444.4342985009971,444.4343515569999,None,444.434464275997,444.4345002439986,None,,,,,,,,,,,,,,,97,001,0,,2024-04-13_12h09.34.424,replicate_nsd,2023.2.3,60.844381039993614,2024-04-13 12h10.47.544552 -0400,
blank.jpg,29,1,0,0,0,"[9, 19, 29, 39, 49, 59, 68, 69, 70, 71]",,,,,0,29,29,29,444.44948505199864,,,,,,,,,,,,,,,,,,,,,,,,,,,,,,,,,,,,,,,,,,,,,,444.43487728099717,444.43498537199775,444.43499768799666,,,,,,,,,444.4386989659979,None,0,,,None,444.4389760619997,448.4336059149973,None,448.43382244999884,448.43388157499794,None,448.43401705499855,448.4340546989988,None,444.44948505199864,444.44948505199864,448.4495128189992,448.4495128189992,,,,,,,,,,,97,001,0,,2024-04-13_12h09.34.424,replicate_nsd,2023.2.3,60.844381039993614,2024-04-13 12h10.47.544552 -0400,
images/image_494_seed_1.png,30,0,0,0,0,"[9, 19, 29, 39, 49, 59, 68, 69, 70, 71]",,,,,0,30,30,30,448.4495128189992,,,,,,,,,,,,,,,,,,,,,,,,,,,,,,,,,,,,,,,,,,,,,,448.43445256999985,448.43457361299807,448.43458666399965,448.4495128189992,448.4495128189992,449.4501289559994,449.4501289559994,452.4490971849991,452.4490971849991,452.4490971849991,452.4490971849991,452.4335314780001,None,0,,,None,452.4340817379998,452.4341305389971,None,452.434244672997,452.4342980179972,None,452.4344103489966,452.4344449599994,None,,,,,,,,,,,,,,,97,001,0,,2024-04-13_12h09.34.424,replicate_nsd,2023.2.3,60.844381039993614,2024-04-13 12h10.47.544552 -0400,
images/image_730_seed_1.png,31,0,0,0,0,"[9, 19, 29, 39, 49, 59, 68, 69, 70, 71]",,,,,0,31,31,31,452.4490971849991,,,,,,,,,,,,,,,,,,,,,,,,,,,,,,,,,,,,,,,,,,,,,,452.4348205039969,452.4349268099977,452.434939210998,452.4490971849991,452.4490971849991,453.45011781099674,453.45011781099674,456.4491157609991,456.4491157609991,456.4491157609991,456.4491157609991,456.4335752709994,None,0,,,None,456.4343725769977,456.4344189589974,None,456.43453334399965,456.4345856889995,None,456.434697536999,456.4347329589982,None,,,,,,,,,,,,,,,97,001,0,,2024-04-13_12h09.34.424,replicate_nsd,2023.2.3,60.844381039993614,2024-04-13 12h10.47.544552 -0400,
images/image_461_seed_1.png,32,0,0,0,0,"[9, 19, 29, 39, 49, 59, 68, 69, 70, 71]",,,,,0,32,32,32,456.4491157609991,,,,,,,,,,,,,,,,,,,,,,,,,,,,,,,,,,,,,,,,,,,,,,456.4351092689976,456.4352321369988,456.4352423199998,456.4491157609991,456.4491157609991,457.450240760998,457.450240760998,460.44987570899684,460.44987570899684,460.44987570899684,460.44987570899684,460.4335620649981,None,0,,,None,460.43411821399786,460.4341679079989,None,460.4342810909984,460.4343329129988,None,460.43444378799904,460.4344786299989,None,,,,,,,,,,,,,,,97,001,0,,2024-04-13_12h09.34.424,replicate_nsd,2023.2.3,60.844381039993614,2024-04-13 12h10.47.544552 -0400,
images/image_662_seed_1.png,33,0,0,0,0,"[9, 19, 29, 39, 49, 59, 68, 69, 70, 71]",,,,,0,33,33,33,460.44987570899684,,,,,,,,,,,,,,,,,,,,,,,,,,,,,,,,,,,,,,,,,,,,,,460.43485646099725,460.434966048997,460.4349790439992,460.44987570899684,460.44987570899684,461.4501804679967,461.4501804679967,464.44953604499824,464.44953604499824,464.44953604499824,464.44953604499824,464.43350143299904,None,0,,,None,464.4340944629985,464.43414461700013,None,464.4342607789986,464.43431465199683,None,464.4344293469985,464.4344662980002,None,,,,,,,,,,,,,,,97,001,0,,2024-04-13_12h09.34.424,replicate_nsd,2023.2.3,60.844381039993614,2024-04-13 12h10.47.544552 -0400,
images/image_97_seed_1.png,34,0,0,0,0,"[9, 19, 29, 39, 49, 59, 68, 69, 70, 71]",,,,,0,34,34,34,464.44953604499824,,,,,,,,,,,,,,,,,,,,,,,,,,,,,,,,,,,,,,,,,,,,,,464.43485817599867,464.4349731739967,464.43498625899883,464.44953604499824,464.44953604499824,465.44978582699696,465.44978582699696,468.45018348399753,468.45018348399753,468.45018348399753,468.45018348399753,468.4334911659971,None,0,,,None,468.43405060499936,468.43410300999676,None,468.43421654399936,468.4342694199986,None,468.43438020999747,468.4344147979973,None,,,,,,,,,,,,,,,97,001,0,,2024-04-13_12h09.34.424,replicate_nsd,2023.2.3,60.844381039993614,2024-04-13 12h10.47.544552 -0400,
images/image_642_seed_1.png,35,0,0,0,0,"[9, 19, 29, 39, 49, 59, 68, 69, 70, 71]",,,,,0,35,35,35,468.45018348399753,,,,,,,,,,,,,,,,,,,,,,,,,,,,,,,,,,,,,,,,,,,,,,468.4347906570001,468.43514082299953,468.43515403499987,468.45018348399753,468.45018348399753,469.44872613199914,469.44872613199914,472.4491309999976,472.4491309999976,472.4491309999976,472.4491309999976,472.4334918459972,None,0,,,None,472.4340484119966,472.43409883799904,None,472.4342109099998,472.4342638369999,None,472.43437431799975,472.43440998799997,None,,,,,,,,,,,,,,,97,001,0,,2024-04-13_12h09.34.424,replicate_nsd,2023.2.3,60.844381039993614,2024-04-13 12h10.47.544552 -0400,
images/image_623_seed_1.png,36,0,0,0,0,"[9, 19, 29, 39, 49, 59, 68, 69, 70, 71]",,,,,0,36,36,36,472.4491309999976,,,,,,,,,,,,,,,,,,,,,,,,,,,,,,,,,,,,,,,,,,,,,,472.43478413499906,472.4348918919968,472.4349043000002,472.4491309999976,472.4491309999976,473.4497764509979,473.4497764509979,476.4492626479987,476.4492626479987,476.4492626479987,476.4492626479987,476.433529963997,None,0,,,None,476.4341091030001,476.43416275199706,None,476.4342790869996,476.43433206499685,None,476.4344447659969,476.4344810409966,None,,,,,,,,,,,,,,,97,001,0,,2024-04-13_12h09.34.424,replicate_nsd,2023.2.3,60.844381039993614,2024-04-13 12h10.47.544552 -0400,
images/image_487_seed_1.png,37,0,0,0,0,"[9, 19, 29, 39, 49, 59, 68, 69, 70, 71]",,,,,0,37,37,37,476.4492626479987,,,,,,,,,,,,,,,,,,,,,,,,,,,,,,,,,,,,,,,,,,,,,,476.4348740099995,476.43498845700014,476.4350008709989,476.4492626479987,476.4492626479987,477.4502216089968,477.4502216089968,480.4493645529983,480.4493645529983,480.4493645529983,480.4493645529983,480.4335336160002,None,0,,,None,480.4341629929986,480.4342125459989,None,480.4343251449973,480.43437800599713,None,480.4344899179996,480.43452521499785,None,,,,,,,,,,,,,,,97,001,0,,2024-04-13_12h09.34.424,replicate_nsd,2023.2.3,60.844381039993614,2024-04-13 12h10.47.544552 -0400,
images/image_234_seed_1.png,38,0,0,0,0,"[9, 19, 29, 39, 49, 59, 68, 69, 70, 71]",,,,,0,38,38,38,480.4493645529983,,,,,,,,,,,,,,,,,,,,,,,,,,,,,,,,,,,,,,,,,,,,,,480.4348989889986,480.4350062839985,480.4350186119991,480.4493645529983,480.4493645529983,481.4500808979974,481.4500808979974,484.4501146029979,484.4501146029979,484.4501146029979,484.4501146029979,484.4335263899993,None,0,,,None,484.434068306,484.43411520099835,None,484.43422977599766,484.4342827389992,None,484.43439418900016,484.43442955299906,None,,,,,,,,,,,,,,,97,001,0,,2024-04-13_12h09.34.424,replicate_nsd,2023.2.3,60.844381039993614,2024-04-13 12h10.47.544552 -0400,
blank.jpg,39,1,0,0,0,"[9, 19, 29, 39, 49, 59, 68, 69, 70, 71]",,,,,0,39,39,39,484.4501146029979,,,,,,,,,,,,,,,,,,,,,,,,,,,,,,,,,,,,,,,,,,,,,,484.434827623998,484.43491277799694,484.4349231149972,,,,,,,,,484.4375726049984,None,0,,,None,484.43788985899664,488.4335822699977,None,488.43379629399715,488.4338556579969,None,488.4339875549995,488.43402446599794,None,484.4501146029979,484.4501146029979,488.44959771199865,488.44959771199865,,,,,,,,,,,97,001,0,,2024-04-13_12h09.34.424,replicate_nsd,2023.2.3,60.844381039993614,2024-04-13 12h10.47.544552 -0400,
images/image_257_seed_1.png,40,0,0,0,0,"[9, 19, 29, 39, 49, 59, 68, 69, 70, 71]",,,,,0,40,40,40,488.44959771199865,,,,,,,,,,,,,,,,,,,,,,,,,,,,,,,,,,,,,,,,,,,,,,488.4344185079972,488.4345327359988,488.43454529099836,488.44959771199865,488.44959771199865,489.45014770299895,489.45014770299895,492.4488953279979,492.4488953279979,492.4488953279979,492.4488953279979,492.43352025199783,None,0,,,None,492.4341308139992,492.43418380599906,None,492.434297030999,492.4343498299968,None,492.43446004699945,492.43449486199825,None,,,,,,,,,,,,,,,97,001,0,,2024-04-13_12h09.34.424,replicate_nsd,2023.2.3,60.844381039993614,2024-04-13 12h10.47.544552 -0400,
images/image_645_seed_1.png,41,0,0,0,0,"[9, 19, 29, 39, 49, 59, 68, 69, 70, 71]",,,,,0,41,41,41,492.4488953279979,,,,,,,,,,,,,,,,,,,,,,,,,,,,,,,,,,,,,,,,,,,,,,492.4348758349988,492.4349871329978,492.434999623998,492.4488953279979,492.4488953279979,493.4498285009977,493.4498285009977,496.449481716998,496.449481716998,496.449481716998,496.449481716998,496.4334800999968,None,0,,,None,496.43409471999985,496.4341483019998,None,496.4342650269973,496.43432009099706,None,496.4344340259995,496.43446987399875,None,,,,,,,,,,,,,,,97,001,0,,2024-04-13_12h09.34.424,replicate_nsd,2023.2.3,60.844381039993614,2024-04-13 12h10.47.544552 -0400,
images/image_272_seed_1.png,42,0,0,0,0,"[9, 19, 29, 39, 49, 59, 68, 69, 70, 71]",,,,,0,42,42,42,496.449481716998,,,,,,,,,,,,,,,,,,,,,,,,,,,,,,,,,,,,,,,,,,,,,,496.4348549699971,496.43496773699735,496.4349803320001,496.449481716998,496.449481716998,497.4497634929976,497.4497634929976,500.44956267799716,500.44956267799716,500.44956267799716,500.44956267799716,500.4331817120001,None,0,,,None,500.4337336969984,500.433785899997,None,500.4339018929968,500.4339554319995,None,500.43406578699796,500.4341003729969,None,,,,,,,,,,,,,,,97,001,0,,2024-04-13_12h09.34.424,replicate_nsd,2023.2.3,60.844381039993614,2024-04-13 12h10.47.544552 -0400,
images/image_204_seed_1.png,43,0,0,0,0,"[9, 19, 29, 39, 49, 59, 68, 69, 70, 71]",,,,,0,43,43,43,500.44956267799716,,,,,,,,,,,,,,,,,,,,,,,,,,,,,,,,,,,,,,,,,,,,,,500.434475889997,500.43458706699676,500.4345995149997,500.44956267799716,500.44956267799716,501.4501056809968,501.4501056809968,504.4492064659971,504.4492064659971,504.4492064659971,504.4492064659971,504.4335061940001,None,0,,,None,504.4340427440002,504.4340898649971,None,504.43420308699933,504.4342561939993,None,504.4343682259969,504.4344031999972,None,,,,,,,,,,,,,,,97,001,0,,2024-04-13_12h09.34.424,replicate_nsd,2023.2.3,60.844381039993614,2024-04-13 12h10.47.544552 -0400,
images/image_688_seed_1.png,44,0,0,0,0,"[9, 19, 29, 39, 49, 59, 68, 69, 70, 71]",,,,,0,44,44,44,504.4492064659971,,,,,,,,,,,,,,,,,,,,,,,,,,,,,,,,,,,,,,,,,,,,,,504.4347776379982,504.4348863319974,504.4348990929975,504.4492064659971,504.4492064659971,505.45012556299844,505.45012556299844,508.449658087,508.449658087,508.449658087,508.449658087,508.43354227099917,None,0,,,None,508.4340987329997,508.4341504209988,None,508.4342643909986,508.43431784899803,None,508.4344289119981,508.43446419599786,None,,,,,,,,,,,,,,,97,001,0,,2024-04-13_12h09.34.424,replicate_nsd,2023.2.3,60.844381039993614,2024-04-13 12h10.47.544552 -0400,
images/image_141_seed_1.png,45,0,0,0,0,"[9, 19, 29, 39, 49, 59, 68, 69, 70, 71]",,,,,0,45,45,45,508.449658087,,,,,,,,,,,,,,,,,,,,,,,,,,,,,,,,,,,,,,,,,,,,,,508.4348427429977,508.43495216500014,508.43496455700006,508.449658087,508.449658087,509.44986250299917,509.44986250299917,512.4490677009999,512.4490677009999,512.4490677009999,512.4490677009999,512.4349562229982,None,0,,,None,512.4352685429985,512.4352951849978,None,512.4353587429978,512.4353892049985,None,512.4354519579974,512.4354717279966,None,,,,,,,,,,,,,,,97,001,0,,2024-04-13_12h09.34.424,replicate_nsd,2023.2.3,60.844381039993614,2024-04-13 12h10.47.544552 -0400,
images/image_464_seed_1.png,46,0,0,0,0,"[9, 19, 29, 39, 49, 59, 68, 69, 70, 71]",,,,,0,46,46,46,512.4490677009999,,,,,,,,,,,,,,,,,,,,,,,,,,,,,,,,,,,,,,,,,,,,,,512.4356859549989,512.4357451369979,512.4357519489968,512.4490677009999,512.4490677009999,513.4498422619981,513.4498422619981,516.4494956729977,516.4494956729977,516.4494956729977,516.4494956729977,516.432955242999,None,0,,,None,516.433515441,516.4335640569989,None,516.4336798969998,516.4337336110002,None,516.4338482549974,516.4338834679984,None,,,,,,,,,,,,,,,97,001,0,,2024-04-13_12h09.34.424,replicate_nsd,2023.2.3,60.844381039993614,2024-04-13 12h10.47.544552 -0400,
images/image_392_seed_1.png,47,0,0,0,0,"[9, 19, 29, 39, 49, 59, 68, 69, 70, 71]",,,,,0,47,47,47,516.4494956729977,,,,,,,,,,,,,,,,,,,,,,,,,,,,,,,,,,,,,,,,,,,,,,516.4342593719994,516.4343677939978,516.4343800799979,516.4494956729977,516.4494956729977,517.4497301800002,517.4497301800002,520.4494493509992,520.4494493509992,520.4494493509992,520.4494493509992,520.4334424589979,None,0,,,None,520.4340188839997,520.4340715459984,None,520.4341906909976,520.4342453619975,None,520.4343622809974,520.4343985069972,None,,,,,,,,,,,,,,,97,001,0,,2024-04-13_12h09.34.424,replicate_nsd,2023.2.3,60.844381039993614,2024-04-13 12h10.47.544552 -0400,
images/image_489_seed_1.png,48,0,0,0,0,"[9, 19, 29, 39, 49, 59, 68, 69, 70, 71]",,,,,0,48,48,48,520.4494493509992,,,,,,,,,,,,,,,,,,,,,,,,,,,,,,,,,,,,,,,,,,,,,,520.4347931569973,520.4349063129994,520.4349190559988,520.4494493509992,520.4494493509992,521.4497419359977,521.4497419359977,524.4497924339994,524.4497924339994,524.4497924339994,524.4497924339994,524.433182337998,None,0,,,None,524.4337928809982,524.4338504819971,None,524.4339795999986,524.4340349369995,None,524.4341501809977,524.4341870209973,None,,,,,,,,,,,,,,,97,001,0,,2024-04-13_12h09.34.424,replicate_nsd,2023.2.3,60.844381039993614,2024-04-13 12h10.47.544552 -0400,
blank.jpg,49,1,0,0,0,"[9, 19, 29, 39, 49, 59, 68, 69, 70, 71]",,,,,0,49,49,49,524.4497924339994,,,,,,,,,,,,,,,,,,,,,,,,,,,,,,,,,,,,,,,,,,,,,,524.4345750619977,524.4346925379978,524.4347106679998,,,,,,,,,524.437941729997,None,0,,,None,524.4382276629985,528.433149368997,None,528.4333736209992,528.4334356839972,None,528.433573721999,528.4336118009996,None,524.4497924339994,524.4497924339994,528.4491297139975,528.4491297139975,,,,,,,,,,,97,001,0,,2024-04-13_12h09.34.424,replicate_nsd,2023.2.3,60.844381039993614,2024-04-13 12h10.47.544552 -0400,
images/image_150_seed_1.png,50,0,0,0,0,"[9, 19, 29, 39, 49, 59, 68, 69, 70, 71]",,,,,0,50,50,50,528.4491297139975,,,,,,,,,,,,,,,,,,,,,,,,,,,,,,,,,,,,,,,,,,,,,,528.434027113999,528.4341517149987,528.4341643319967,528.4491297139975,528.4491297139975,529.4497648069992,529.4497648069992,532.4495471759983,532.4495471759983,532.4495471759983,532.4495471759983,532.4334721769992,None,0,,,None,532.4340146549985,532.4340632979984,None,532.4341771479994,532.4342287499967,None,532.4343408549976,532.4343758519972,None,,,,,,,,,,,,,,,97,001,0,,2024-04-13_12h09.34.424,replicate_nsd,2023.2.3,60.844381039993614,2024-04-13 12h10.47.544552 -0400,
images/image_739_seed_1.png,51,0,0,0,0,"[9, 19, 29, 39, 49, 59, 68, 69, 70, 71]",,,,,0,51,51,51,532.4495471759983,,,,,,,,,,,,,,,,,,,,,,,,,,,,,,,,,,,,,,,,,,,,,,532.4347537839967,532.434861103,532.4348737509972,532.4495471759983,532.4495471759983,533.4497435689991,533.4497435689991,536.4493603479968,536.4493603479968,536.4493603479968,536.4493603479968,536.4333996209971,None,0,,,None,536.4339540839974,536.4340043739976,None,536.4341208079968,536.4341749609994,None,536.4342890609987,536.4343253979969,None,,,,,,,,,,,,,,,97,001,0,,2024-04-13_12h09.34.424,replicate_nsd,2023.2.3,60.844381039993614,2024-04-13 12h10.47.544552 -0400,
images/image_680_seed_1.png,52,0,0,0,0,"[9, 19, 29, 39, 49, 59, 68, 69, 70, 71]",,,,,0,52,52,52,536.4493603479968,,,,,,,,,,,,,,,,,,,,,,,,,,,,,,,,,,,,,,,,,,,,,,536.4347147269982,536.4348237189988,536.4348364339967,536.4493603479968,536.4493603479968,537.449757260998,537.449757260998,540.4495533289992,540.4495533289992,540.4495533289992,540.4495533289992,540.4334056480002,None,0,,,None,540.433954459997,540.4340036209978,None,540.4341158199968,540.4341684009996,None,540.4342801589992,540.434315620998,None,,,,,,,,,,,,,,,97,001,0,,2024-04-13_12h09.34.424,replicate_nsd,2023.2.3,60.844381039993614,2024-04-13 12h10.47.544552 -0400,
images/image_391_seed_1.png,53,0,0,0,0,"[9, 19, 29, 39, 49, 59, 68, 69, 70, 71]",,,,,0,53,53,53,540.4495533289992,,,,,,,,,,,,,,,,,,,,,,,,,,,,,,,,,,,,,,,,,,,,,,540.4346926319995,540.4348005459979,540.4348127429985,540.4495533289992,540.4495533289992,541.4496648109998,541.4496648109998,544.4491256119982,544.4491256119982,544.4491256119982,544.4491256119982,544.4334455489989,None,0,,,None,544.4340246089996,544.4340766789974,None,544.4341900849977,544.4342435779981,None,544.4343543469986,544.4343901639986,None,,,,,,,,,,,,,,,97,001,0,,2024-04-13_12h09.34.424,replicate_nsd,2023.2.3,60.844381039993614,2024-04-13 12h10.47.544552 -0400,
images/image_120_seed_1.png,54,0,0,0,0,"[9, 19, 29, 39, 49, 59, 68, 69, 70, 71]",,,,,0,54,54,54,544.4491256119982,,,,,,,,,,,,,,,,,,,,,,,,,,,,,,,,,,,,,,,,,,,,,,544.4347686259971,544.4348804459987,544.4348929959997,544.4491256119982,544.4491256119982,545.4497012669999,545.4497012669999,548.4489491059976,548.4489491059976,548.4489491059976,548.4489491059976,548.4331478349995,None,0,,,None,548.4338505019987,548.4339015099977,None,548.4340169949974,548.4340694779967,None,548.4341820659974,548.4342168769981,None,,,,,,,,,,,,,,,97,001,0,,2024-04-13_12h09.34.424,replicate_nsd,2023.2.3,60.844381039993614,2024-04-13 12h10.47.544552 -0400,
images/image_468_seed_1.png,55,0,0,0,0,"[9, 19, 29, 39, 49, 59, 68, 69, 70, 71]",,,,,0,55,55,55,548.4489491059976,,,,,,,,,,,,,,,,,,,,,,,,,,,,,,,,,,,,,,,,,,,,,,548.4345945389978,548.4347038349988,548.4347160749967,548.4489491059976,548.4489491059976,549.450019811,549.450019811,552.448777712998,552.448777712998,552.448777712998,552.448777712998,552.4334315669985,None,0,,,None,552.4339955249998,552.4340461969987,None,552.4341611489981,552.4342154289989,None,552.4343288189993,552.4343655119992,None,,,,,,,,,,,,,,,97,001,0,,2024-04-13_12h09.34.424,replicate_nsd,2023.2.3,60.844381039993614,2024-04-13 12h10.47.544552 -0400,
images/image_235_seed_1.png,56,0,0,0,0,"[9, 19, 29, 39, 49, 59, 68, 69, 70, 71]",,,,,0,56,56,56,552.448777712998,,,,,,,,,,,,,,,,,,,,,,,,,,,,,,,,,,,,,,,,,,,,,,552.4347464429993,552.4348574879987,552.4348700989976,552.448777712998,552.448777712998,553.4500562119974,553.4500562119974,556.4487067099981,556.4487067099981,556.4487067099981,556.4487067099981,556.4333100149997,None,0,,,None,556.4338591989981,556.4339104719984,None,556.4340234889969,556.434075232999,None,556.4341843459988,556.4342186919966,None,,,,,,,,,,,,,,,97,001,0,,2024-04-13_12h09.34.424,replicate_nsd,2023.2.3,60.844381039993614,2024-04-13 12h10.47.544552 -0400,
images/image_728_seed_1.png,57,0,0,0,0,"[9, 19, 29, 39, 49, 59, 68, 69, 70, 71]",,,,,0,57,57,57,556.4487067099981,,,,,,,,,,,,,,,,,,,,,,,,,,,,,,,,,,,,,,,,,,,,,,556.4345875159997,556.4346987209974,556.4347108999973,556.4487067099981,556.4487067099981,557.4496357019998,557.4496357019998,560.4486774629986,560.4486774629986,560.4486774629986,560.4486774629986,560.4331705849982,None,0,,,None,560.4337500609981,560.4338094679988,None,560.4339286569993,560.4339826649993,None,560.4340933530002,560.4341282269997,None,,,,,,,,,,,,,,,97,001,0,,2024-04-13_12h09.34.424,replicate_nsd,2023.2.3,60.844381039993614,2024-04-13 12h10.47.544552 -0400,
images/image_518_seed_1.png,58,0,0,0,0,"[9, 19, 29, 39, 49, 59, 68, 69, 70, 71]",,,,,0,58,58,58,560.4486774629986,,,,,,,,,,,,,,,,,,,,,,,,,,,,,,,,,,,,,,,,,,,,,,560.4345054519981,560.434622351997,560.4346346159982,560.4486774629986,560.4486774629986,561.4497435519988,561.4497435519988,564.4496874099968,564.4496874099968,564.4496874099968,564.4496874099968,564.4331330099994,None,0,,,None,564.433729565997,564.4337829819997,None,564.4339053799995,564.433959799997,None,564.4340720319997,564.4341077439967,None,,,,,,,,,,,,,,,97,001,0,,2024-04-13_12h09.34.424,replicate_nsd,2023.2.3,60.844381039993614,2024-04-13 12h10.47.544552 -0400,
blank.jpg,59,1,0,0,0,"[9, 19, 29, 39, 49, 59, 68, 69, 70, 71]",,,,,0,59,59,59,564.4496874099968,,,,,,,,,,,,,,,,,,,,,,,,,,,,,,,,,,,,,,,,,,,,,,564.4344898309973,564.4346329459986,564.4346433689971,,,,,,,,,564.4375207279991,None,0,,,None,564.4378765539986,568.433101407998,None,568.4333259099985,568.4333889009977,None,568.433523771997,568.4335630459973,None,564.4496874099968,564.4496874099968,568.4490937089977,568.4490937089977,,,,,,,,,,,97,001,0,,2024-04-13_12h09.34.424,replicate_nsd,2023.2.3,60.844381039993614,2024-04-13 12h10.47.544552 -0400,
images/image_282_seed_1.png,60,0,0,0,0,"[9, 19, 29, 39, 49, 59, 68, 69, 70, 71]",,,,,0,60,60,60,568.4490937089977,,,,,,,,,,,,,,,,,,,,,,,,,,,,,,,,,,,,,,,,,,,,,,568.4339701779973,568.4340914079985,568.4341040399995,568.4490937089977,568.4490937089977,569.4496461509989,569.4496461509989,572.4488216719983,572.4488216719983,572.4488216719983,572.4488216719983,572.4333874039985,None,0,,,None,572.4339350359987,572.4339857139967,None,572.4340997229992,572.4341523269977,None,572.4342633369997,572.4342988739991,None,,,,,,,,,,,,,,,97,001,0,,2024-04-13_12h09.34.424,replicate_nsd,2023.2.3,60.844381039993614,2024-04-13 12h10.47.544552 -0400,
images/image_386_seed_1.png,61,0,0,0,0,"[9, 19, 29, 39, 49, 59, 68, 69, 70, 71]",,,,,0,61,61,61,572.4488216719983,,,,,,,,,,,,,,,,,,,,,,,,,,,,,,,,,,,,,,,,,,,,,,572.4346704719974,572.4347771609973,572.4347896009967,572.4488216719983,572.4488216719983,573.4497097249987,573.4497097249987,576.4486313689995,576.4486313689995,576.4486313689995,576.4486313689995,576.4342953549967,None,0,,,None,576.4345743189988,576.4345996919983,None,576.4346621269979,576.4346921869983,None,576.4347539169976,576.4347741679994,None,,,,,,,,,,,,,,,97,001,0,,2024-04-13_12h09.34.424,replicate_nsd,2023.2.3,60.844381039993614,2024-04-13 12h10.47.544552 -0400,
images/image_639_seed_1.png,62,0,0,0,0,"[9, 19, 29, 39, 49, 59, 68, 69, 70, 71]",,,,,0,62,62,62,576.4486313689995,,,,,,,,,,,,,,,,,,,,,,,,,,,,,,,,,,,,,,,,,,,,,,576.4349845759971,576.4350526739981,576.4350597949997,576.4486313689995,576.4486313689995,577.4497139369996,577.4497139369996,580.4491112119977,580.4491112119977,580.4491112119977,580.4491112119977,580.4331803919995,None,0,,,None,580.4338024489989,580.4338595249974,None,580.4339922049985,580.4340487219997,None,580.4341664379972,580.4342036939997,None,,,,,,,,,,,,,,,97,001,0,,2024-04-13_12h09.34.424,replicate_nsd,2023.2.3,60.844381039993614,2024-04-13 12h10.47.544552 -0400,
images/image_168_seed_1.png,63,0,0,0,0,"[9, 19, 29, 39, 49, 59, 68, 69, 70, 71]",,,,,0,63,63,63,580.4491112119977,,,,,,,,,,,,,,,,,,,,,,,,,,,,,,,,,,,,,,,,,,,,,,580.4346030409979,580.4347185939987,580.4347314649967,580.4491112119977,580.4491112119977,581.4496497049986,581.4496497049986,584.4490050719978,584.4490050719978,584.4490050719978,584.4490050719978,584.4331400109986,None,0,,,None,584.4338449909992,584.433894472997,None,584.4340061219991,584.4340579649979,None,584.4341677550001,584.4342024139987,None,,,,,,,,,,,,,,,97,001,0,,2024-04-13_12h09.34.424,replicate_nsd,2023.2.3,60.844381039993614,2024-04-13 12h10.47.544552 -0400,
images/image_471_seed_1.png,64,0,0,0,0,"[9, 19, 29, 39, 49, 59, 68, 69, 70, 71]",,,,,0,64,64,64,584.4490050719978,,,,,,,,,,,,,,,,,,,,,,,,,,,,,,,,,,,,,,,,,,,,,,584.4345757800002,584.434685510998,584.434697763998,584.4490050719978,584.4490050719978,585.4496066929969,585.4496066929969,588.4490925409991,588.4490925409991,588.4490925409991,588.4490925409991,588.4328303949987,None,0,,,None,588.4334192919996,588.4334744089974,None,588.4335931829992,588.4336472529976,None,588.4337600170002,588.4337954219991,None,,,,,,,,,,,,,,,97,001,0,,2024-04-13_12h09.34.424,replicate_nsd,2023.2.3,60.844381039993614,2024-04-13 12h10.47.544552 -0400,
images/image_381_seed_1.png,65,0,0,0,0,"[9, 19, 29, 39, 49, 59, 68, 69, 70, 71]",,,,,0,65,65,65,588.4490925409991,,,,,,,,,,,,,,,,,,,,,,,,,,,,,,,,,,,,,,,,,,,,,,588.4341784579992,588.4342954469976,588.4343082129999,588.4490925409991,588.4490925409991,589.449272152,589.449272152,592.4491124719971,592.4491124719971,592.4491124719971,592.4491124719971,592.4331403669967,None,0,,,None,592.4336776389973,592.4337293190001,None,592.4338465459987,592.4339002359993,None,592.4340127979995,592.4340477799997,None,,,,,,,,,,,,,,,97,001,0,,2024-04-13_12h09.34.424,replicate_nsd,2023.2.3,60.844381039993614,2024-04-13 12h10.47.544552 -0400,
images/image_475_seed_1.png,66,0,0,0,0,"[9, 19, 29, 39, 49, 59, 68, 69, 70, 71]",,,,,0,66,66,66,592.4491124719971,,,,,,,,,,,,,,,,,,,,,,,,,,,,,,,,,,,,,,,,,,,,,,592.4344254059979,592.4345397979996,592.4345521340001,592.4491124719971,592.4491124719971,593.4487454969967,593.4487454969967,596.4491160789985,596.4491160789985,596.4491160789985,596.4491160789985,596.4330952899982,None,0,,,None,596.433662853,596.4337159049974,None,596.4338290279993,596.4338822869977,None,596.4339936879987,596.4340296519986,None,,,,,,,,,,,,,,,97,001,0,,2024-04-13_12h09.34.424,replicate_nsd,2023.2.3,60.844381039993614,2024-04-13 12h10.47.544552 -0400,
images/image_585_seed_1.png,67,0,0,0,0,"[9, 19, 29, 39, 49, 59, 68, 69, 70, 71]",,,,,0,67,67,67,596.4491160789985,,,,,,,,,,,,,,,,,,,,,,,,,,,,,,,,,,,,,,,,,,,,,,596.4344065099976,596.4345204199999,596.434532821997,596.4491160789985,596.4491160789985,597.4496830319986,597.4496830319986,600.4496051269998,600.4496051269998,600.4496051269998,600.4496051269998,600.4331125190001,None,0,,,None,600.4336948249984,600.4337435229972,None,600.4338590979969,600.4339120379991,None,600.4340236709977,600.4340591189975,None,,,,,,,,,,,,,,,97,001,0,,2024-04-13_12h09.34.424,replicate_nsd,2023.2.3,60.844381039993614,2024-04-13 12h10.47.544552 -0400,
blank.jpg,68,1,0,0,0,"[9, 19, 29, 39, 49, 59, 68, 69, 70, 71]",,,,,0,68,68,68,600.4496051269998,,,,,,,,,,,,,,,,,,,,,,,,,,,,,,,,,,,,,,,,,,,,,,600.4344495579971,600.434536681998,600.4345465879996,,,,,,,,,600.4384072349967,None,0,,,None,600.4387533459994,604.4332235049988,None,604.433528841997,604.4336277080001,None,604.4337637359968,604.4338010389984,None,600.4496051269998,600.4496051269998,604.4493567929967,604.4493567929967,,,,,,,,,,,97,001,0,,2024-04-13_12h09.34.424,replicate_nsd,2023.2.3,60.844381039993614,2024-04-13 12h10.47.544552 -0400,
blank.jpg,69,1,0,0,0,"[9, 19, 29, 39, 49, 59, 68, 69, 70, 71]",,,,,0,69,69,69,604.4493567929967,,,,,,,,,,,,,,,,,,,,,,,,,,,,,,,,,,,,,,,,,,,,,,604.4341972519978,604.4343174499991,604.4343300119981,,,,,,,,,604.4367797339983,None,0,,,None,604.437132840998,608.4330806609978,None,608.4332979909996,608.433357812999,None,608.433489322997,608.4335270299998,None,604.4493567929967,604.4493567929967,608.4491302099996,608.4491302099996,,,,,,,,,,,97,001,0,,2024-04-13_12h09.34.424,replicate_nsd,2023.2.3,60.844381039993614,2024-04-13 12h10.47.544552 -0400,
blank.jpg,70,1,0,0,0,"[9, 19, 29, 39, 49, 59, 68, 69, 70, 71]",,,,,0,70,70,70,608.4491302099996,,,,,,,,,,,,,,,,,,,,,,,,,,,,,,,,,,,,,,,,,,,,,,608.4339251989986,608.434044046,608.43405661,,,,,,,,,608.4363158149972,None,0,,,None,608.4365895899973,612.4330867359968,None,612.4333069249988,612.4333664179976,None,612.4334993960001,612.433537560999,None,608.4491302099996,608.4491302099996,612.449647939,612.449647939,,,,,,,,,,,97,001,0,,2024-04-13_12h09.34.424,replicate_nsd,2023.2.3,60.844381039993614,2024-04-13 12h10.47.544552 -0400,
blank.jpg,71,1,0,1,0,"[9, 19, 29, 39, 49, 59, 68, 69, 70, 71]",,,,,0,71,71,71,612.449647939,,,,,,,,,,,,,,,,,,,,,,,,,,,,,,,,,,,,,,,,,,,,,,612.433937157999,612.4340570789973,612.4340696439976,,,,,,,,,612.436327176998,None,0,,,None,612.4366005459997,616.4330280269969,None,616.4332463559986,645.7819906989971,1,645.7828116909986,655.1323061639996,equal,612.449647939,612.449647939,616.4492897799973,616.4492897799973,,,616.4492897799973,616.4492897799973,29.328508352002245,None,645.799156582998,645.799156582998,9.322739768002066,None,97,001,0,,2024-04-13_12h09.34.424,replicate_nsd,2023.2.3,60.844381039993614,2024-04-13 12h10.47.544552 -0400,
images/image_233_seed_1.png,0,0,0,0,1,"[9, 19, 31, 42, 56, 68, 69, 70, 71]",,,,,0,72,72,72,655.148641861997,,,,,,,,,,,,,,,,,,,,,,,,,,,,,,,,,,,,,,,,,,,,,,655.1333769849989,655.1334587159981,655.1334674879981,655.148641861997,655.148641861997,656.1493981179992,656.1493981179992,659.1595419199984,659.1595419199984,659.1595419199984,659.1595419199984,659.1330480709985,None,0,,,None,659.1336544209989,659.1337126259968,None,659.1338339169997,659.1486629199972,None,659.1487812219966,659.1488066689999,None,,,,,,,,,,,,,,,97,001,0,,2024-04-13_12h09.34.424,replicate_nsd,2023.2.3,60.844381039993614,2024-04-13 12h10.47.544552 -0400,
,,,,,,,,,,,,,,,659.1595419199984,,,,,,,,,,,,,,,,,,,,,,,,,,,,,,,,,,,,,,,,,,,,,,659.1490654149966,659.1491457969969,659.149153954997,659.1595419199984,659.1595419199984,660.1492116640002,660.1492116640002,,,,,,,,,,,,,,,,,,,,,,,,,,,,,,,,,,,,,,,,,,,
