current_image,is_repeat,trial_index,is_blank_trial,is_new_run,run_num,all_blanks_list,loop_all_images.thisRepN,loop_all_images.thisTrialN,loop_all_images.thisN,loop_all_images.thisIndex,thisRow.t,notes,set_up.started,set_up.stopped,waiting_fmri.started,key_resp_2.started,text_3.started,waiting_fmri.stopped,key_resp_2.keys,key_resp_2.rt,key_resp_2.duration,set_skips_and_correct_key.started,set_skips_and_correct_key.stopped,trial.started,polygon.started,image.started,press_if_repeat.started,image.stopped,press_if_repeat.stopped,polygon.stopped,trial.stopped,press_if_repeat.keys,press_if_repeat.corr,blank_trial.started,blank_trial.stopped,key_resp_3.keys,run_wait2.started,run_wait2.stopped,key_resp_5.keys,waiting_fmri_2.started,waiting_fmri_2.stopped,key_resp_4.keys,press_if_repeat.rt,press_if_repeat.duration,key_resp_3.started,polygon_2.started,key_resp_3.stopped,polygon_2.stopped,key_resp_3.rt,key_resp_3.duration,key_resp_5.started,text_5.started,key_resp_5.rt,key_resp_5.duration,key_resp_4.started,text_4.started,key_resp_4.rt,key_resp_4.duration,participant,session,starting_run,,date,expName,psychopyVersion,frameRate,expStart,
,,,,,,,,,,,,,0.04579839200050628,0.0459545320009056,0.045968352000272716,0.05641048300094553,0.05641048300094553,4.4073301759999595,5,4.348179018999872,None,,,,,,,,,,,,,,,,,,,,,,,,,,,,,,,,,,,,,,9,001,0,,2024-04-11_15h11.30.511,replicate_nsd,2023.2.3,60.97184920623016,2024-04-11 15h11.41.757465 -0400,
images/24_28.jpg,0,0,0,0,0,"[9, 19, 29, 39, 49, 59, 68, 69, 70, 71]",0,0,0,0,4.519682793999891,,,,,,,,,,,4.481269326999609,4.48133280500042,4.481339625999681,4.519682793999891,5.507201464999525,5.507201464999525,8.507020383000054,8.507020383000054,8.507020383000054,8.490951027000847,None,0,8.492307286000141,8.492355271999259,None,8.493170732999715,8.493232890999934,None,8.493926924000334,8.493962694999937,None,,,,,,,,,,,,,,,,,9,001,0,,2024-04-11_15h11.30.511,replicate_nsd,2023.2.3,60.97184920623016,2024-04-11 15h11.41.757465 -0400,
images/10_40 copy.jpg,0,1,0,0,0,"[9, 19, 29, 39, 49, 59, 68, 69, 70, 71]",0,1,1,1,8.507020383000054,,,,,,,,,,,8.494891345000724,8.49496211800033,8.494971531999909,8.507020383000054,9.507203311999547,9.507203311999547,12.51763661699988,12.51763661699988,12.51763661699988,12.490626666000026,"['1', '2', '1', '2', '1', '2', '1', '2', '1', '2', '1', '2', '1', '2', '1', '2']",0,12.492597010999816,12.492635611999503,None,12.492735718000404,12.508485849000863,None,12.508570329000577,12.508594971999628,None,"[1.0293848550008988, 1.1214246170002298, 1.28139332200044, 1.3813707620010973, 1.5093730460012011, 1.6253854940005112, 1.7573995570000989, 1.885359296000388, 2.0133659340008307, 2.1413968649994786, 2.2933841289996053, 2.3733724409994466, 2.5173796319995745, 2.649370495000767, 2.797374449999552, 2.893381367000984]","[None, None, None, None, None, None, None, None, None, None, None, None, None, None, None, None]",,,,,,,,,,,,,,,9,001,0,,2024-04-11_15h11.30.511,replicate_nsd,2023.2.3,60.97184920623016,2024-04-11 15h11.41.757465 -0400,
images/21_12 copy 2.jpg,0,2,0,0,0,"[9, 19, 29, 39, 49, 59, 68, 69, 70, 71]",0,2,2,2,12.51763661699988,,,,,,,,,,,12.508809299000859,12.508897191999495,12.50890396199975,12.51763661699988,13.506277988000875,13.506277988000875,16.51168901299934,16.51168901299934,16.51168901299934,16.490942664000613,"['1', '2', '2', '1', '2', '1', '2', '1', '2', '1', '2', '2', '1', '2', '1', '2', '1', '2', '1']",0,16.491499760000806,16.491543963000368,None,16.49165494100089,16.500019230999897,None,16.50011436999921,16.500139558000228,None,"[0.09427572899949155, 0.20625742099946365, 0.6942692169996008, 0.7902800319989183, 0.9582627689997025, 1.0942760649995762, 1.2182474879991787, 1.358257040999888, 1.482252111998605, 1.626277540999581, 1.7382081729992933, 1.9942532530003518, 2.1302772099988943, 2.2662719629988715, 2.3982594049994077, 2.5062718839999434, 2.64626599300027, 2.7862607139995816, 2.9182526959993993]","[None, None, None, None, None, None, None, None, None, None, None, None, None, None, None, None, None, None, None]",,,,,,,,,,,,,,,9,001,0,,2024-04-11_15h11.30.511,replicate_nsd,2023.2.3,60.97184920623016,2024-04-11 15h11.41.757465 -0400,
images/17_40 copy 3.jpg,0,3,0,0,0,"[9, 19, 29, 39, 49, 59, 68, 69, 70, 71]",0,3,3,3,16.51168901299934,,,,,,,,,,,16.50039579800068,16.500455305000287,16.50046301799921,16.51168901299934,17.50678333900032,17.50678333900032,20.51115214099991,20.51115214099991,20.51115214099991,20.490632520999498,"['2', '1', '2', '1', '2', '1', '2', '1', '2', '1', '2', '1', '2', '1', '2', '1', '2', '1', '2', '1']",0,20.49119327399967,20.491237120999358,None,20.49134921299992,20.499877440001,None,20.499970385999404,20.499994826999682,None,"[0.12179635900065477, 0.2618173340015346, 0.38575663800111215, 0.521844028000487, 0.6377906910001911, 0.7897819270001492, 0.957787332999942, 1.093809426000007, 1.221805506000237, 1.3817959500011057, 1.5298099299998285, 1.6938053280009626, 1.8377740800005995, 1.977822480001123, 2.157802697000079, 2.309806226001456, 2.445796372001496, 2.617790973999945, 2.75780289100112, 2.913792999001089]","[None, None, None, None, None, None, None, None, None, None, None, None, None, None, None, None, None, None, None, None]",,,,,,,,,,,,,,,9,001,0,,2024-04-11_15h11.30.511,replicate_nsd,2023.2.3,60.97184920623016,2024-04-11 15h11.41.757465 -0400,
images/16_0.jpg,0,4,0,0,0,"[9, 19, 29, 39, 49, 59, 68, 69, 70, 71]",0,4,4,4,20.51115214099991,,,,,,,,,,,20.500248153999564,20.500306043999444,20.500313676000587,20.51115214099991,21.50627801200062,21.50627801200062,24.51483486500001,24.51483486500001,24.51483486500001,24.490668386000834,"['1', '2', '1', '2', '1', '2', '1', '2', '1', '2', '1', '2', '1', '2', '1', '2', '1', '2', '1', '2', '1']",0,24.49122973500016,24.491273503999764,None,24.491385138000624,24.499912571000095,None,24.500007721000657,24.500032072000977,None,"[0.022305368000161252, 0.1303051790000609, 0.29429930500009505, 0.3982572339991748, 0.5542958050009474, 0.6303160799998295, 0.7943055710002227, 0.9342957400003797, 1.1543136269992829, 1.2263073449994408, 1.386293850000584, 1.490303792999839, 1.6623124500001722, 1.7662457610003912, 1.9342890410007385, 2.0822700900007476, 2.254315067000789, 2.3942842010001186, 2.5663055879995227, 2.6982610909999494, 2.850301373999173]","[None, None, None, None, None, None, None, None, None, None, None, None, None, None, None, None, None, None, None, None, None]",,,,,,,,,,,,,,,9,001,0,,2024-04-11_15h11.30.511,replicate_nsd,2023.2.3,60.97184920623016,2024-04-11 15h11.41.757465 -0400,
images/pair08.jpg,0,5,0,0,0,"[9, 19, 29, 39, 49, 59, 68, 69, 70, 71]",0,5,5,5,24.51483486500001,,,,,,,,,,,24.50028569099959,24.50034961900019,24.500357528000677,24.51483486500001,25.558377539000503,25.558377539000503,28.560723103000782,28.560723103000782,28.560723103000782,28.540607349999846,"['1', '2', '1', '2', '1', '2', '1', '2', '1', '2', '1', '2', '1', '2', '1', '2', '1', '2', '1', '2', '1', '2']",0,28.54117877399949,28.541223583999454,None,28.54133545700097,28.549777738000557,None,28.549871961000463,28.54989714600015,None,"[0.026214191000690334, 0.1301942570007668, 0.31023590200129547, 0.426213890001236, 0.5902211320008064, 0.6861950090005848, 0.8621892450009909, 0.9541935330016713, 1.1301940370012744, 1.234198351001396, 1.3821876640013215, 1.5382135790005123, 1.6542130490015552, 1.770227603999956, 1.9501899660008348, 2.054194644000745, 2.2262075650014594, 2.314196567000181, 2.474203600000692, 2.5902197160012292, 2.7422042960006365, 2.8782154860000446]","[None, None, None, None, None, None, None, None, None, None, None, None, None, None, None, None, None, None, None, None, None, None]",,,,,,,,,,,,,,,9,001,0,,2024-04-11_15h11.30.511,replicate_nsd,2023.2.3,60.97184920623016,2024-04-11 15h11.41.757465 -0400,
images/15_12 copy 5.jpg,0,6,0,0,0,"[9, 19, 29, 39, 49, 59, 68, 69, 70, 71]",0,6,6,6,28.560723103000782,,,,,,,,,,,28.550156454999524,28.550214712000525,28.55022246000044,28.560723103000782,29.560139281000374,29.560139281000374,32.559240853999654,32.559240853999654,32.559240853999654,32.54059482699995,"['1', '2', '1', '2', '1', '2', '1', '2', '1', '2', '1', '2', '1', '2', '1', '2', '1', '2', '1', '2']",0,32.541163006000716,32.541206686000805,None,32.54131850600061,32.549767231999795,None,32.549861523999425,32.54988668999977,None,"[0.15244518799954676, 0.28844016999937594, 0.44441934200040123, 0.5204472040004475, 0.69242051800029, 0.8244615299990983, 0.9404660439995496, 1.2444211279998854, 1.424440799999502, 1.5724459220000426, 1.752453200000673, 1.7644250720004493, 1.9924223990001337, 2.072432242999639, 2.2644297469996673, 2.384431589000087, 2.532432529998914, 2.6564457259992196, 2.8004347989990492, 2.8884434239989787]","[None, None, None, None, None, None, None, None, None, None, None, None, None, None, None, None, None, None, None, None]",,,,,,,,,,,,,,,9,001,0,,2024-04-11_15h11.30.511,replicate_nsd,2023.2.3,60.97184920623016,2024-04-11 15h11.41.757465 -0400,
images/10_28 copy 3.jpg,0,7,0,0,0,"[9, 19, 29, 39, 49, 59, 68, 69, 70, 71]",0,7,7,7,32.559240853999654,,,,,,,,,,,32.55014323599971,32.550201886999275,32.550209716999234,32.559240853999654,33.55776782599969,33.55776782599969,36.56154172800052,36.56154172800052,36.56154172800052,36.540555413999755,"['1', '2', '1', '2', '1', '2', '1', '2', '1', '2', '1', '2', '1', '2', '1', '2', '1', '2', '1', '2']",0,36.54111909099993,36.54116288399928,None,36.54127572499965,36.54863813799966,None,36.54872289600098,36.548744162999355,None,"[0.042829559000892914, 0.1987851789999695, 0.4028378930015606, 0.6147966200005612, 0.7348034960014047, 0.9028041920009855, 0.9908058380005969, 1.0867954250006733, 1.2987934440006939, 1.3988144650011236, 1.5948016090005694, 1.8147939310001675, 1.9068013470005098, 2.0627736330006883, 2.202782139000192, 2.3308060100007424, 2.462799613000243, 2.582801835000282, 2.726821779000602, 2.8188072170014493]","[None, None, None, None, None, None, None, None, None, None, None, None, None, None, None, None, None, None, None, None]",,,,,,,,,,,,,,,9,001,0,,2024-04-11_15h11.30.511,replicate_nsd,2023.2.3,60.97184920623016,2024-04-11 15h11.41.757465 -0400,
images/7_40 copy.jpg,0,8,0,0,0,"[9, 19, 29, 39, 49, 59, 68, 69, 70, 71]",0,8,8,8,36.56154172800052,,,,,,,,,,,36.548966087000736,36.54904857300062,36.549055573999794,36.56154172800052,37.55911320700034,37.55911320700034,40.55919082299988,40.55919082299988,40.55919082299988,40.54036749700026,"['1', '2', '1', '2', '1', '2', '1', '2', '1', '2', '1', '2', '2', '1', '1', '2', '1', '2', '1', '2']",0,40.54092680100075,40.54097083899978,None,40.541082211000685,40.5493338640008,None,40.54943000499952,40.549455444999694,None,"[0.14146195700050157, 0.16947911900024337, 0.3894842930003506, 0.47746672699940973, 0.6574605610003346, 0.809471685999597, 0.9094709959990723, 1.065432695000709, 1.221440576000532, 1.3534722839995084, 1.5134701459992357, 1.6214588900002127, 1.8654442810002365, 1.9134489070002019, 2.1454122499999357, 2.2494396040001448, 2.4494441320002807, 2.5894766589990468, 2.773439552000127, 2.9134561509999912]","[None, None, None, None, None, None, None, None, None, None, None, None, None, None, None, None, None, None, None, None]",,,,,,,,,,,,,,,9,001,0,,2024-04-11_15h11.30.511,replicate_nsd,2023.2.3,60.97184920623016,2024-04-11 15h11.41.757465 -0400,
images/blank.jpg,0,9,1,0,0,"[9, 19, 29, 39, 49, 59, 68, 69, 70, 71]",0,9,9,9,40.55919082299988,,,,,,,,,,,40.54971260899947,40.54977170500024,40.54977924400009,,,,,,,40.554237669999566,None,0,40.55440753500079,44.540370413000346,2,44.541529973999786,44.54953194100017,None,44.54962662899925,44.5496513270009,None,,,40.55919082299988,40.55919082299988,44.5595129609992,44.5595129609992,3.929377996000767,None,,,,,,,,,9,001,0,,2024-04-11_15h11.30.511,replicate_nsd,2023.2.3,60.97184920623016,2024-04-11 15h11.41.757465 -0400,
images/12_0 copy.jpg,0,10,0,0,0,"[9, 19, 29, 39, 49, 59, 68, 69, 70, 71]",0,10,10,10,44.5595129609992,,,,,,,,,,,44.54990941899996,44.54997204100073,44.549979875000645,44.5595129609992,45.556793738000124,45.556793738000124,48.55643316399983,48.55643316399983,48.55643316399983,48.54001992099984,"['1', '2', '2', '1', '1', '2', '1', '2', '1', '2', '1', '2', '1', '2', '1', '2', '1', '2', '2', '1', '2']",0,48.54031344199939,48.54034037299971,None,48.540431377999994,48.54048363699985,None,48.540551629999754,48.54056809699978,None,"[0.03980471300019417, 0.07979712999986077, 0.2997778119988652, 0.3477847459998884, 0.5957663310000498, 0.5997488729990437, 0.8757884669994382, 0.883766454000579, 1.1917991009995603, 1.2037968399999954, 1.471786427000552, 1.5277904929989745, 1.775791093999942, 1.8077902519999043, 2.023791343999619, 2.039805873999285, 2.2997788169996056, 2.3117951679996622, 2.5877683149992663, 2.7917724199996883, 2.9037673940001696]","[None, None, None, None, None, None, None, None, None, None, None, None, None, None, None, None, None, None, None, None, None]",,,,,,,,,,,,,,,9,001,0,,2024-04-11_15h11.30.511,replicate_nsd,2023.2.3,60.97184920623016,2024-04-11 15h11.41.757465 -0400,
images/6_28 copy 5.jpg,0,11,0,0,0,"[9, 19, 29, 39, 49, 59, 68, 69, 70, 71]",0,11,11,11,48.55643316399983,,,,,,,,,,,48.54074165299971,48.5407815210001,48.540786628000205,48.55643316399983,49.560134327000924,49.560134327000924,52.561542313000245,52.561542313000245,52.561542313000245,52.54069675400024,"['1', '1', '2', '1', '2', '1', '2', '1', '2', '1', '2', '1', '2', '1', '2', '1', '2', '1', '2', '1', '2']",0,52.54125954099982,52.54130373800035,None,52.54141590399922,52.54916449300072,None,52.54925827800071,52.549283976999504,None,"[0.08043065200035926, 0.356453162001344, 0.42043068000020867, 0.6044921829998202, 0.7124406439997983, 0.8644334360014909, 0.9884083180004382, 1.1244538280006964, 1.208494710001105, 1.3844374390009762, 1.4924657330011541, 1.6204416529999435, 1.772445634000178, 1.9004968860008375, 2.0444209440011036, 2.2085074370006623, 2.3444384280010127, 2.5164595100013685, 2.6004357540005003, 2.760433384000862, 2.8484351290007908]","[None, None, None, None, None, None, None, None, None, None, None, None, None, None, None, None, None, None, None, None, None]",,,,,,,,,,,,,,,9,001,0,,2024-04-11_15h11.30.511,replicate_nsd,2023.2.3,60.97184920623016,2024-04-11 15h11.41.757465 -0400,
images/pair18 copy.jpg,0,12,0,0,0,"[9, 19, 29, 39, 49, 59, 68, 69, 70, 71]",0,12,12,12,52.561542313000245,,,,,,,,,,,52.549540351999894,52.54959899000096,52.5496065719999,52.561542313000245,53.55757964000077,53.55757964000077,56.559295518,56.559295518,56.559295518,56.54054278100011,"['1', '2', '1', '2', '1', '2', '1', '2', '1', '2', '1', '2', '1', '2', '1', '2', '1', '2', '1', '2']",0,56.54109867599982,56.54114334699989,None,56.54125406700041,56.54891227100052,None,56.54900547100078,56.54903006399945,None,"[0.1029563699994469, 0.21893760099919746, 0.4149393779989623, 0.4509405749995494, 0.7189404519995151, 0.8549383329991542, 1.1069572739997966, 1.2789476870002545, 1.4189574400006677, 1.5949166289992718, 1.7269478590005747, 1.8349602599992068, 2.014940693999961, 2.134881452000627, 2.2749558100003924, 2.4429596589998255, 2.562938191000285, 2.6589325860004465, 2.8229582909989404, 2.922948453000572]","[None, None, None, None, None, None, None, None, None, None, None, None, None, None, None, None, None, None, None, None]",,,,,,,,,,,,,,,9,001,0,,2024-04-11_15h11.30.511,replicate_nsd,2023.2.3,60.97184920623016,2024-04-11 15h11.41.757465 -0400,
images/12_40.jpg,0,13,0,0,0,"[9, 19, 29, 39, 49, 59, 68, 69, 70, 71]",0,13,13,13,56.559295518,,,,,,,,,,,56.54928544299946,56.54934396799945,56.54935171199941,56.559295518,57.55764661499961,57.55764661499961,60.55682678800076,60.55682678800076,60.55682678800076,60.540596656999696,"['1', '2', '1', '2', '1', '2', '1', '2', '1', '2', '1', '2', '1', '2', '1', '2', '1']",0,60.541152916999636,60.541196108000804,None,60.54130857000018,60.54887503700047,None,60.54896791899955,60.5489929739997,None,"[0.25893813900074747, 0.3789379800000461, 0.514924985000107, 0.6189234649991704, 0.7629238549998263, 0.9029250259991386, 1.0909459499998775, 1.2869675080000889, 1.4949071859991818, 1.6349282049995963, 1.7789337340000202, 1.9669216309994226, 2.2309237089993985, 2.2989229619997786, 2.5269496189994243, 2.7549249540006713, 2.946902030000274]","[None, None, None, None, None, None, None, None, None, None, None, None, None, None, None, None, None]",,,,,,,,,,,,,,,9,001,0,,2024-04-11_15h11.30.511,replicate_nsd,2023.2.3,60.97184920623016,2024-04-11 15h11.41.757465 -0400,
images/16_0 copy 3.jpg,0,14,0,0,0,"[9, 19, 29, 39, 49, 59, 68, 69, 70, 71]",0,14,14,14,60.55682678800076,,,,,,,,,,,60.54924792699967,60.54930596799932,60.549313462999635,60.55682678800076,61.559937329000604,61.559937329000604,64.55935669300015,64.55935669300015,64.55935669300015,64.54314026000065,"['1', '1', '2', '1', '2', '1', '2', '1', '2', '1', '2', '1', '2', '1', '2', '1', '2', '1', '2']",0,64.54369844699977,64.5437432710005,None,64.54385572200044,64.55126690500038,None,64.55136130699975,64.55138604900094,None,"[0.13663728999927116, 0.40869847099929757, 0.49261350499909895, 0.6926112050005031, 0.7965971680005168, 0.9646266790005029, 1.060632282998995, 1.272644118000244, 1.3086777730004542, 1.5246485799998482, 1.7326331959993695, 1.9246391619999486, 2.0246453959989594, 2.252654531999724, 2.340655243000583, 2.5646327920003387, 2.6126283459998376, 2.7926060409990896, 2.932634307000626]","[None, None, None, None, None, None, None, None, None, None, None, None, None, None, None, None, None, None, None]",,,,,,,,,,,,,,,9,001,0,,2024-04-11_15h11.30.511,replicate_nsd,2023.2.3,60.97184920623016,2024-04-11 15h11.41.757465 -0400,
images/17_12 copy 4.jpg,0,15,0,0,0,"[9, 19, 29, 39, 49, 59, 68, 69, 70, 71]",0,15,15,15,64.55935669300015,,,,,,,,,,,64.55164026800048,64.55170402600015,64.5517120250006,64.55935669300015,65.55763702200056,65.55763702200056,68.55743041099959,68.55743041099959,68.55743041099959,68.5404037469998,"['1', '2', '1', '2', '1', '2', '1', '2', '1', '1', '2', '1', '1', '2', '1', '2']",0,68.54073215800054,68.54075761199965,None,68.54082293099964,68.54624117700041,None,68.5463178810005,68.54633837800066,None,"[0.05093460799980676, 0.15093014199919708, 0.3469415269992169, 0.4709322170001542, 0.6389541299995471, 0.6988966619992425, 0.9029332629997953, 1.2389527819996147, 1.3629455760001292, 1.6949106369993387, 2.0229538929997943, 2.2069591470008163, 2.5069650879995606, 2.542944451000949, 2.842952951999905, 2.842952951999905]","[None, None, None, None, None, None, None, None, None, None, None, None, None, None, None, None]",,,,,,,,,,,,,,,9,001,0,,2024-04-11_15h11.30.511,replicate_nsd,2023.2.3,60.97184920623016,2024-04-11 15h11.41.757465 -0400,
images/10_40 copy 5.jpg,0,16,0,0,0,"[9, 19, 29, 39, 49, 59, 68, 69, 70, 71]",0,16,16,16,68.55743041099959,,,,,,,,,,,68.54655020199971,68.54662368100071,68.54663049900046,68.55743041099959,69.55711468700065,69.55711468700065,72.55966307400013,72.55966307400013,72.55966307400013,72.54056180000043,"['2', '1', '2', '1', '2', '1', '2', '1', '2', '1', '1', '2', '1', '2', '1', '2', '1', '2', '1']",0,72.54112019000058,72.54116473000067,None,72.54127674499978,72.54886908700064,None,72.5489633319994,72.5489880339992,None,"[0.05146000599961553, 0.2554693779984518, 0.327470768999774, 0.6434734829999798, 0.6594866349987569, 0.8754703499998868, 1.0594859829998313, 1.271450679998452, 1.3634472579997237, 1.447451503998309, 1.6874663879989384, 1.7394780009999522, 2.0075032519998786, 2.039472021999245, 2.3034543439989648, 2.3834511049990397, 2.5714603619999252, 2.6754800679991604, 2.7994052509984613]","[None, None, None, None, None, None, None, None, None, None, None, None, None, None, None, None, None, None, None]",,,,,,,,,,,,,,,9,001,0,,2024-04-11_15h11.30.511,replicate_nsd,2023.2.3,60.97184920623016,2024-04-11 15h11.41.757465 -0400,
images/15_28 copy 2.jpg,0,17,0,0,0,"[9, 19, 29, 39, 49, 59, 68, 69, 70, 71]",0,17,17,17,72.55966307400013,,,,,,,,,,,72.54924292299984,72.5492999170001,72.54930769699968,72.55966307400013,73.55986704499992,73.55986704499992,76.56100322599923,76.56100322599923,76.56100322599923,76.54004762099976,"['1', '2', '1', '2', '2', '1', '2', '1', '2', '1', '2', '1', '2']",0,76.54063399200095,76.54068091999943,None,76.54078024199953,76.54730230200039,None,76.54739582100046,76.54742074800015,None,"[0.032701000998713425, 0.7247154479991877, 0.8607029739996506, 0.9407091379998747, 1.136698868998792, 1.208701977999226, 1.7286999549996835, 1.8767239899989363, 2.1527252019986918, 2.392715578998832, 2.4486987499985844, 2.6326916569996683, 2.712692872999469]","[None, None, None, None, None, None, None, None, None, None, None, None, None]",,,,,,,,,,,,,,,9,001,0,,2024-04-11_15h11.30.511,replicate_nsd,2023.2.3,60.97184920623016,2024-04-11 15h11.41.757465 -0400,
images/7_0.jpg,0,18,0,0,0,"[9, 19, 29, 39, 49, 59, 68, 69, 70, 71]",0,18,18,18,76.56100322599923,,,,,,,,,,,76.54767690100016,76.54776897900047,76.54777714299962,76.56100322599923,77.55836481000006,77.55836481000006,80.5561417129993,80.5561417129993,80.5561417129993,80.54049750299964,"['2', '1', '2', '1', '1', '1', '2', '2', '1', '2', '1', '2']",0,80.54103510599998,80.54107913500047,None,80.54119022499981,80.5486576809999,None,80.54875111000001,80.54877612199925,None,"[0.7822095370011084, 0.8862078590009332, 1.1782156960016437, 1.206233405000603, 1.4542299630011257, 1.7622028450005018, 1.7902296450010908, 2.0542070220017195, 2.4742312540001876, 2.6262130940012867, 2.8862319060008303, 2.9062370030005695]","[None, None, None, None, None, None, None, None, None, None, None, None]",,,,,,,,,,,,,,,9,001,0,,2024-04-11_15h11.30.511,replicate_nsd,2023.2.3,60.97184920623016,2024-04-11 15h11.41.757465 -0400,
images/blank.jpg,0,19,1,0,0,"[9, 19, 29, 39, 49, 59, 68, 69, 70, 71]",0,19,19,19,80.5561417129993,,,,,,,,,,,80.54903329300032,80.54909143899931,80.54909921900071,,,,,,,80.5509577899993,None,0,80.5511266930007,84.53970124099942,1,84.53994422300093,84.54530389499996,None,84.54537892100052,84.54541486699964,None,,,80.5561417129993,80.5561417129993,84.55633438100085,84.55633438100085,3.212497381000503,None,,,,,,,,,9,001,0,,2024-04-11_15h11.30.511,replicate_nsd,2023.2.3,60.97184920623016,2024-04-11 15h11.41.757465 -0400,
images/20_28.jpg,0,20,0,0,0,"[9, 19, 29, 39, 49, 59, 68, 69, 70, 71]",0,20,20,20,84.55633438100085,,,,,,,,,,,84.54561764000027,84.54566530500051,84.54567126599977,84.55633438100085,85.5564904340008,85.5564904340008,88.55672841500018,88.55672841500018,88.55672841500018,88.54022183599955,"['1', '2', '1', '2', '1', '2', '1', '2', '1', '2', '2', '1', '1', '1', '2']",0,88.54076637099934,88.54081557599966,None,88.54092742300054,88.54098663900004,None,88.54109237199918,88.54112552900006,None,"[0.6401097739999386, 0.6880865690000064, 0.8960960620006517, 0.9440961090003839, 1.1160754470001848, 1.2160849160009093, 1.380092090999824, 1.4320842950000952, 1.6160862440010533, 1.7200838850003493, 1.9201116000003822, 1.960079554000913, 2.168077252999865, 2.4241019070013863, 2.4360835710012907]","[None, None, None, None, None, None, None, None, None, None, None, None, None, None, None]",,,,,,,,,,,,,,,9,001,0,,2024-04-11_15h11.30.511,replicate_nsd,2023.2.3,60.97184920623016,2024-04-11 15h11.41.757465 -0400,
images/23_12 copy.jpg,0,21,0,0,0,"[9, 19, 29, 39, 49, 59, 68, 69, 70, 71]",0,21,21,21,88.55672841500018,,,,,,,,,,,88.5414836910004,88.54156912799954,88.54158032099986,88.55672841500018,89.55634586300039,89.55634586300039,92.55886321199978,92.55886321199978,92.55886321199978,92.54048850800064,None,0,92.54077586200037,92.54081770999983,None,92.54092859000048,92.54853303600066,None,92.5486275029998,92.54865217100087,None,,,,,,,,,,,,,,,,,9,001,0,,2024-04-11_15h11.30.511,replicate_nsd,2023.2.3,60.97184920623016,2024-04-11 15h11.41.757465 -0400,
images/22_12 copy 5.jpg,0,22,0,0,0,"[9, 19, 29, 39, 49, 59, 68, 69, 70, 71]",0,22,22,22,92.55886321199978,,,,,,,,,,,92.54890844300098,92.54896711199945,92.54897487699964,92.55886321199978,93.55702697800007,93.55702697800007,96.5587426660004,96.5587426660004,96.5587426660004,96.54050919399924,None,0,96.54079507499955,96.54083744399941,None,96.5409496859993,96.54862588600008,None,96.54871974299931,96.54874487599955,None,,,,,,,,,,,,,,,,,9,001,0,,2024-04-11_15h11.30.511,replicate_nsd,2023.2.3,60.97184920623016,2024-04-11 15h11.41.757465 -0400,
images/8_40 copy 5.jpg,0,23,0,0,0,"[9, 19, 29, 39, 49, 59, 68, 69, 70, 71]",0,23,23,23,96.5587426660004,,,,,,,,,,,96.54900217800059,96.54906049300007,96.54906794800081,96.5587426660004,97.55667330700089,97.55667330700089,100.55643537499964,100.55643537499964,100.55643537499964,100.54048210600013,None,0,100.5407714489993,100.54081290300019,None,100.5409240429999,100.54847581700051,None,100.54856812000071,100.54859260199919,None,,,,,,,,,,,,,,,,,9,001,0,,2024-04-11_15h11.30.511,replicate_nsd,2023.2.3,60.97184920623016,2024-04-11 15h11.41.757465 -0400,
images/23_12.jpg,0,24,0,0,0,"[9, 19, 29, 39, 49, 59, 68, 69, 70, 71]",0,24,24,24,100.55643537499964,,,,,,,,,,,100.54884748400036,100.54890548200092,100.54891298400071,100.55643537499964,101.55666360900068,101.55666360900068,104.55885318500077,104.55885318500077,104.55885318500077,104.54051439000068,None,0,104.54080200799945,104.54084388199954,None,104.54095483700075,104.54876837399934,None,104.5488622060002,104.54888767400007,None,,,,,,,,,,,,,,,,,9,001,0,,2024-04-11_15h11.30.511,replicate_nsd,2023.2.3,60.97184920623016,2024-04-11 15h11.41.757465 -0400,
images/21_40 copy 5.jpg,0,25,0,0,0,"[9, 19, 29, 39, 49, 59, 68, 69, 70, 71]",0,25,25,25,104.55885318500077,,,,,,,,,,,104.54914519699923,104.54920306500026,104.54921075700076,104.55885318500077,105.55666590700093,105.55666590700093,108.55576110999937,108.55576110999937,108.55576110999937,108.54225381499964,None,0,108.54242267100017,108.5424435090008,None,108.54249632900064,108.54704763900008,None,108.54711435399986,108.54713206800079,None,,,,,,,,,,,,,,,,,9,001,0,,2024-04-11_15h11.30.511,replicate_nsd,2023.2.3,60.97184920623016,2024-04-11 15h11.41.757465 -0400,
images/17_0 copy 4.jpg,0,26,0,0,0,"[9, 19, 29, 39, 49, 59, 68, 69, 70, 71]",0,26,26,26,108.55576110999937,,,,,,,,,,,108.54731576000086,108.54735983899991,108.54736516199955,108.55576110999937,109.55702461300098,109.55702461300098,112.55871219999972,112.55871219999972,112.55871219999972,112.54042171999936,None,0,112.54071188099988,112.54075327999999,None,112.54086485799962,112.54886540500047,None,112.54895956300061,112.54898408500048,None,,,,,,,,,,,,,,,,,9,001,0,,2024-04-11_15h11.30.511,replicate_nsd,2023.2.3,60.97184920623016,2024-04-11 15h11.41.757465 -0400,
images/5_40 copy.jpg,0,27,0,0,0,"[9, 19, 29, 39, 49, 59, 68, 69, 70, 71]",0,27,27,27,112.55871219999972,,,,,,,,,,,112.54923846599922,112.54929701199944,112.54930480499934,112.55871219999972,113.55689582500054,113.55689582500054,116.55885601500086,116.55885601500086,116.55885601500086,116.54041483699984,None,0,116.54070383100043,116.54074590100026,None,116.5408577369999,116.54837433499961,None,116.54846685099983,116.54849145499975,None,,,,,,,,,,,,,,,,,9,001,0,,2024-04-11_15h11.30.511,replicate_nsd,2023.2.3,60.97184920623016,2024-04-11 15h11.41.757465 -0400,
images/23_0 copy 2.jpg,0,28,0,0,0,"[9, 19, 29, 39, 49, 59, 68, 69, 70, 71]",0,28,28,28,116.55885601500086,,,,,,,,,,,116.54874778500016,116.54880575099924,116.54881321100038,116.55885601500086,117.556985747,117.556985747,120.55555187400023,120.55555187400023,120.55555187400023,120.54012390000025,None,0,120.54041289999986,120.54045524799949,None,120.54056591799963,120.54799882299994,None,120.54809358199964,120.54811846600023,None,,,,,,,,,,,,,,,,,9,001,0,,2024-04-11_15h11.30.511,replicate_nsd,2023.2.3,60.97184920623016,2024-04-11 15h11.41.757465 -0400,
images/blank.jpg,0,29,1,0,0,"[9, 19, 29, 39, 49, 59, 68, 69, 70, 71]",0,29,29,29,120.55555187400023,,,,,,,,,,,120.54837716300062,120.54843516999972,120.54844305200095,,,,,,,120.55018461600048,None,0,120.5503530900005,124.5404122100008,None,124.54059162200065,124.54820311100048,None,124.54829886399966,124.54832381599954,None,,,120.55555187400023,120.55555187400023,124.55868701399959,124.55868701399959,,,,,,,,,,,9,001,0,,2024-04-11_15h11.30.511,replicate_nsd,2023.2.3,60.97184920623016,2024-04-11 15h11.41.757465 -0400,
images/8_12 copy 4.jpg,0,30,0,0,0,"[9, 19, 29, 39, 49, 59, 68, 69, 70, 71]",0,30,30,30,124.55868701399959,,,,,,,,,,,124.54858196799978,124.54863926799953,124.54864687600093,124.55868701399959,125.55683002399928,125.55683002399928,128.55699290399934,128.55699290399934,128.55699290399934,128.54043251700023,None,0,128.54072243100018,128.5407651530004,None,128.54087695499948,128.5409351849994,None,128.54104327800087,128.54107608699996,None,,,,,,,,,,,,,,,,,9,001,0,,2024-04-11_15h11.30.511,replicate_nsd,2023.2.3,60.97184920623016,2024-04-11 15h11.41.757465 -0400,
images/9_28 copy 5.jpg,0,31,0,0,0,"[9, 19, 29, 39, 49, 59, 68, 69, 70, 71]",0,31,31,31,128.55699290399934,,,,,,,,,,,128.54143376399952,128.54151839000042,128.54152962599983,128.55699290399934,129.55699341400032,129.55699341400032,132.55835777100037,132.55835777100037,132.55835777100037,132.54013709399987,None,0,132.54042894300073,132.5404710469993,None,132.5405820399992,132.54835026100045,None,132.54844248100017,132.54846655499932,None,,,,,,,,,,,,,,,,,9,001,0,,2024-04-11_15h11.30.511,replicate_nsd,2023.2.3,60.97184920623016,2024-04-11 15h11.41.757465 -0400,
images/20_0.jpg,0,32,0,0,0,"[9, 19, 29, 39, 49, 59, 68, 69, 70, 71]",0,32,32,32,132.55835777100037,,,,,,,,,,,132.54871997699956,132.54877936699995,132.5487868550008,132.55835777100037,133.55627789500068,133.55627789500068,136.55864344600013,136.55864344600013,136.55864344600013,136.54036385700056,None,0,136.54065134099983,136.54069411700038,None,136.54080401099964,136.54825653899934,None,136.54834996300087,136.54837521099944,None,,,,,,,,,,,,,,,,,9,001,0,,2024-04-11_15h11.30.511,replicate_nsd,2023.2.3,60.97184920623016,2024-04-11 15h11.41.757465 -0400,
images/14_0 copy.jpg,0,33,0,0,0,"[9, 19, 29, 39, 49, 59, 68, 69, 70, 71]",0,33,33,33,136.55864344600013,,,,,,,,,,,136.5486307629999,136.5486894400001,136.54869737800072,136.55864344600013,137.55639853399953,137.55639853399953,140.558712344,140.558712344,140.558712344,140.54036350999922,None,0,140.54065276999972,140.540695392001,None,140.5408059370002,140.54823097699955,None,140.54832426199937,140.5483486989997,None,,,,,,,,,,,,,,,,,9,001,0,,2024-04-11_15h11.30.511,replicate_nsd,2023.2.3,60.97184920623016,2024-04-11 15h11.41.757465 -0400,
images/6_12 copy 7.jpg,0,34,0,0,0,"[9, 19, 29, 39, 49, 59, 68, 69, 70, 71]",0,34,34,34,140.558712344,,,,,,,,,,,140.54860243199983,140.54866029200093,140.54866788300023,140.558712344,141.5569077149994,141.5569077149994,144.55556517100013,144.55556517100013,144.55556517100013,144.53963647899945,None,0,144.5398353319997,144.53986022699974,None,144.5399243310003,144.54537053900094,None,144.5454567249999,144.54547847399954,None,,,,,,,,,,,,,,,,,9,001,0,,2024-04-11_15h11.30.511,replicate_nsd,2023.2.3,60.97184920623016,2024-04-11 15h11.41.757465 -0400,
images/pair11.jpg,0,35,0,0,0,"[9, 19, 29, 39, 49, 59, 68, 69, 70, 71]",0,35,35,35,144.55556517100013,,,,,,,,,,,144.54570200700073,144.5457590419992,144.54576551299942,144.55556517100013,145.5565781389996,145.5565781389996,148.55909953400078,148.55909953400078,148.55909953400078,148.5403573349995,None,0,148.54064519500025,148.54068846299924,None,148.5407989030009,148.5481509300007,None,148.5482433090001,148.5482679960005,None,,,,,,,,,,,,,,,,,9,001,0,,2024-04-11_15h11.30.511,replicate_nsd,2023.2.3,60.97184920623016,2024-04-11 15h11.41.757465 -0400,
images/20_40 copy 5.jpg,0,36,0,0,0,"[9, 19, 29, 39, 49, 59, 68, 69, 70, 71]",0,36,36,36,148.55909953400078,,,,,,,,,,,148.5485222089992,148.5485808880003,148.5485884509999,148.55909953400078,149.55710805700073,149.55710805700073,152.55884479499946,152.55884479499946,152.55884479499946,152.54044704899934,None,0,152.54073780100043,152.5407802560003,None,152.54089272500096,152.54849441199985,None,152.54858741200042,152.54861207400063,None,,,,,,,,,,,,,,,,,9,001,0,,2024-04-11_15h11.30.511,replicate_nsd,2023.2.3,60.97184920623016,2024-04-11 15h11.41.757465 -0400,
images/14_12 copy 2.jpg,0,37,0,0,0,"[9, 19, 29, 39, 49, 59, 68, 69, 70, 71]",0,37,37,37,152.55884479499946,,,,,,,,,,,152.54886777499996,152.5489263290001,152.54893394200008,152.55884479499946,153.55656518199976,153.55656518199976,156.5583738309997,156.5583738309997,156.5583738309997,156.53997841400087,None,0,156.54026818900093,156.5403102199998,None,156.54042140000092,156.5478422819997,None,156.54793585399966,156.547960762,None,,,,,,,,,,,,,,,,,9,001,0,,2024-04-11_15h11.30.511,replicate_nsd,2023.2.3,60.97184920623016,2024-04-11 15h11.41.757465 -0400,
images/16_40 copy 5.jpg,0,38,0,0,0,"[9, 19, 29, 39, 49, 59, 68, 69, 70, 71]",0,38,38,38,156.5583738309997,,,,,,,,,,,156.5482143549998,156.548272035001,156.54827979100082,156.5583738309997,157.55655293199925,157.55655293199925,160.55583518300045,160.55583518300045,160.55583518300045,160.54035282100085,None,0,160.5406409949992,160.54068302300038,None,160.5407927489996,160.54824792100044,None,160.54834033599946,160.54836522500045,None,,,,,,,,,,,,,,,,,9,001,0,,2024-04-11_15h11.30.511,replicate_nsd,2023.2.3,60.97184920623016,2024-04-11 15h11.41.757465 -0400,
images/blank.jpg,0,39,1,0,0,"[9, 19, 29, 39, 49, 59, 68, 69, 70, 71]",0,39,39,39,160.55583518300045,,,,,,,,,,,160.548621336,160.5486787030004,160.5486861499994,,,,,,,160.5505734319995,None,0,160.5507411189992,164.53996883900072,None,164.54014715000085,164.54768688399963,None,164.54778303000057,164.54780817100072,None,,,160.55583518300045,160.55583518300045,164.55872250100037,164.55872250100037,,,,,,,,,,,9,001,0,,2024-04-11_15h11.30.511,replicate_nsd,2023.2.3,60.97184920623016,2024-04-11 15h11.41.757465 -0400,
images/pair03 copy 7.jpg,0,40,0,0,0,"[9, 19, 29, 39, 49, 59, 68, 69, 70, 71]",0,40,40,40,164.55872250100037,,,,,,,,,,,164.54806832900067,164.54812682800002,164.54813462499988,164.55872250100037,165.55669616100022,165.55669616100022,168.55653877199984,168.55653877199984,168.55653877199984,168.53997961499954,None,0,168.54026858900033,168.54031212600057,None,168.54042289800054,168.54048219499964,None,168.54058912300025,168.54062184599934,None,,,,,,,,,,,,,,,,,9,001,0,,2024-04-11_15h11.30.511,replicate_nsd,2023.2.3,60.97184920623016,2024-04-11 15h11.41.757465 -0400,
images/pair03 copy 3.jpg,0,41,0,0,0,"[9, 19, 29, 39, 49, 59, 68, 69, 70, 71]",0,41,41,41,168.55653877199984,,,,,,,,,,,168.5409783390005,168.54106364399922,168.54107500899954,168.55653877199984,169.5565127459995,169.5565127459995,172.55713727799957,172.55713727799957,172.55713727799957,172.5402876169992,None,0,172.54057972100054,172.54062211000019,None,172.54073509999944,172.5484700119996,None,172.5485644420005,172.54858929700094,None,,,,,,,,,,,,,,,,,9,001,0,,2024-04-11_15h11.30.511,replicate_nsd,2023.2.3,60.97184920623016,2024-04-11 15h11.41.757465 -0400,
images/20_28 copy 6.jpg,0,42,0,0,0,"[9, 19, 29, 39, 49, 59, 68, 69, 70, 71]",0,42,42,42,172.55713727799957,,,,,,,,,,,172.54884439799935,172.54890369799978,172.54891133000092,172.55713727799957,173.55651028800094,173.55651028800094,176.58935296399977,176.58935296399977,176.58935296399977,176.5734804599997,None,0,176.5737701979997,176.5738127709992,None,176.57392277399958,176.58133280199945,None,176.5814270739993,176.5814523879999,None,,,,,,,,,,,,,,,,,9,001,0,,2024-04-11_15h11.30.511,replicate_nsd,2023.2.3,60.97184920623016,2024-04-11 15h11.41.757465 -0400,
images/20_0 copy 2.jpg,0,43,0,0,0,"[9, 19, 29, 39, 49, 59, 68, 69, 70, 71]",0,43,43,43,176.58935296399977,,,,,,,,,,,176.58171270800085,176.58177122400048,176.58177902600073,176.58935296399977,177.59002285499992,177.59002285499992,180.59183332499924,180.59183332499924,180.59183332499924,180.57354303600005,None,0,180.57383071100048,180.57387301900053,None,180.57398463000027,180.58137896900007,None,180.58147301600002,180.58149807600057,None,,,,,,,,,,,,,,,,,9,001,0,,2024-04-11_15h11.30.511,replicate_nsd,2023.2.3,60.97184920623016,2024-04-11 15h11.41.757465 -0400,
images/7_28 copy 7.jpg,0,44,0,0,0,"[9, 19, 29, 39, 49, 59, 68, 69, 70, 71]",0,44,44,44,180.59183332499924,,,,,,,,,,,180.58175352299986,180.5818112800007,180.5818191569997,180.59183332499924,181.59003922299962,181.59003922299962,184.59251341900017,184.59251341900017,184.59251341900017,184.57348909400025,None,0,184.5737721789992,184.57381343700035,None,184.5739232369997,184.58166668800004,None,184.58175836100054,184.58178288700037,None,,,,,,,,,,,,,,,,,9,001,0,,2024-04-11_15h11.30.511,replicate_nsd,2023.2.3,60.97184920623016,2024-04-11 15h11.41.757465 -0400,
images/9_12 copy 4.jpg,0,45,0,0,0,"[9, 19, 29, 39, 49, 59, 68, 69, 70, 71]",0,45,45,45,184.59251341900017,,,,,,,,,,,184.58203298300032,184.58209132999946,184.5820987620009,184.59251341900017,185.58881725399988,185.58881725399988,188.59223488899988,188.59223488899988,188.59223488899988,188.5735150010005,None,0,188.5738055389993,188.57384729600017,None,188.57395844200073,188.5814514199992,None,188.58154578299946,188.58157021400075,None,,,,,,,,,,,,,,,,,9,001,0,,2024-04-11_15h11.30.511,replicate_nsd,2023.2.3,60.97184920623016,2024-04-11 15h11.41.757465 -0400,
images/pair04 copy.jpg,0,46,0,0,0,"[9, 19, 29, 39, 49, 59, 68, 69, 70, 71]",0,46,46,46,188.59223488899988,,,,,,,,,,,188.5818278530005,188.58188543799952,188.58189322900034,188.59223488899988,189.5898757899995,189.5898757899995,192.5922712699994,192.5922712699994,192.5922712699994,192.57348763499976,None,0,192.57377560399982,192.57381749900014,None,192.57392645800064,192.58164067600046,None,192.58173415700003,192.58175922699957,None,,,,,,,,,,,,,,,,,9,001,0,,2024-04-11_15h11.30.511,replicate_nsd,2023.2.3,60.97184920623016,2024-04-11 15h11.41.757465 -0400,
images/18_12.jpg,0,47,0,0,0,"[9, 19, 29, 39, 49, 59, 68, 69, 70, 71]",0,47,47,47,192.5922712699994,,,,,,,,,,,192.58201524300057,192.58207260100062,192.58208002799984,192.5922712699994,193.58977836899976,193.58977836899976,196.5922011849998,196.5922011849998,196.5922011849998,196.57345728700056,None,0,196.57374951599922,196.57379138599936,None,196.5739033459995,196.58131057600076,None,196.58140381200064,196.58142862900058,None,,,,,,,,,,,,,,,,,9,001,0,,2024-04-11_15h11.30.511,replicate_nsd,2023.2.3,60.97184920623016,2024-04-11 15h11.41.757465 -0400,
images/pair08 copy 3.jpg,0,48,0,0,0,"[9, 19, 29, 39, 49, 59, 68, 69, 70, 71]",0,48,48,48,196.5922011849998,,,,,,,,,,,196.58168266100074,196.58173984099994,196.5817474100004,196.5922011849998,197.58976021200033,197.58976021200033,200.58885437199933,200.58885437199933,200.58885437199933,200.57315405000008,None,0,200.573444697,200.57348687100057,None,200.57359897800052,200.58087590499963,None,200.58096941000076,200.5809942369997,None,,,,,,,,,,,,,,,,,9,001,0,,2024-04-11_15h11.30.511,replicate_nsd,2023.2.3,60.97184920623016,2024-04-11 15h11.41.757465 -0400,
images/blank.jpg,0,49,1,0,0,"[9, 19, 29, 39, 49, 59, 68, 69, 70, 71]",0,49,49,49,200.58885437199933,,,,,,,,,,,200.58124919300099,200.58130698700006,200.5813147509998,,,,,,,200.58359094200023,None,0,200.58376191500065,204.57347636399936,None,204.57365625999955,204.58118671699958,None,204.58128746399962,204.58131228899947,None,,,200.58885437199933,200.58885437199933,204.58956668700012,204.58956668700012,,,,,,,,,,,9,001,0,,2024-04-11_15h11.30.511,replicate_nsd,2023.2.3,60.97184920623016,2024-04-11 15h11.41.757465 -0400,
images/24_28 copy.jpg,0,50,0,0,0,"[9, 19, 29, 39, 49, 59, 68, 69, 70, 71]",0,50,50,50,204.58956668700012,,,,,,,,,,,204.58157304000088,204.58163158999923,204.58163927900023,204.58956668700012,205.58952122799928,205.58952122799928,208.59007221799948,208.59007221799948,208.59007221799948,208.57349078100015,None,0,208.57378189299925,208.57382522499938,None,208.5739384440003,208.5739972219999,None,208.5741070790009,208.5741407759997,None,,,,,,,,,,,,,,,,,9,001,0,,2024-04-11_15h11.30.511,replicate_nsd,2023.2.3,60.97184920623016,2024-04-11 15h11.41.757465 -0400,
images/pair18 copy 5.jpg,0,51,0,0,0,"[9, 19, 29, 39, 49, 59, 68, 69, 70, 71]",0,51,51,51,208.59007221799948,,,,,,,,,,,208.5745013270007,208.57458581600076,208.57459698999992,208.59007221799948,209.58970193999994,209.58970193999994,212.59527122500003,212.59527122500003,212.59527122500003,212.57543338100004,None,0,212.57586649299992,212.57590962500035,None,212.5760232550001,212.5838470029994,None,212.5839390300007,212.58396410999921,None,,,,,,,,,,,,,,,,,9,001,0,,2024-04-11_15h11.30.511,replicate_nsd,2023.2.3,60.97184920623016,2024-04-11 15h11.41.757465 -0400,
images/23_12 copy 4.jpg,0,52,0,0,0,"[9, 19, 29, 39, 49, 59, 68, 69, 70, 71]",0,52,52,52,212.59527122500003,,,,,,,,,,,212.58421776000068,212.58427586499965,212.58428348400048,212.59527122500003,213.59009618600066,213.59009618600066,216.58885968300092,216.58885968300092,216.58885968300092,216.57257355500042,None,0,216.57278024299922,216.57280884300053,None,216.57288454099944,216.57839083200088,None,216.5784713280009,216.57849294900006,None,,,,,,,,,,,,,,,,,9,001,0,,2024-04-11_15h11.30.511,replicate_nsd,2023.2.3,60.97184920623016,2024-04-11 15h11.41.757465 -0400,
images/18_0 copy 6.jpg,0,53,0,0,0,"[9, 19, 29, 39, 49, 59, 68, 69, 70, 71]",0,53,53,53,216.58885968300092,,,,,,,,,,,216.57871354800045,216.57876324300014,216.57876973199927,216.58885968300092,217.5896947860001,217.5896947860001,220.58850777999942,220.58850777999942,220.58850777999942,220.57341951799935,None,0,220.57366166599968,220.57369635400028,None,220.5737879499993,220.58039352699961,None,220.58047572299984,220.58049686699997,None,,,,,,,,,,,,,,,,,9,001,0,,2024-04-11_15h11.30.511,replicate_nsd,2023.2.3,60.97184920623016,2024-04-11 15h11.41.757465 -0400,
images/16_12 copy 5.jpg,0,54,0,0,0,"[9, 19, 29, 39, 49, 59, 68, 69, 70, 71]",0,54,54,54,220.58850777999942,,,,,,,,,,,220.58072031200027,220.5807712959995,220.58077791399955,220.58850777999942,221.58983908799928,221.58983908799928,224.59246561100008,224.59246561100008,224.59246561100008,224.57347481500074,None,0,224.5737625239999,224.57380454600025,None,224.57391505099986,224.58167727799992,None,224.58177040200098,224.58179487900088,None,,,,,,,,,,,,,,,,,9,001,0,,2024-04-11_15h11.30.511,replicate_nsd,2023.2.3,60.97184920623016,2024-04-11 15h11.41.757465 -0400,
images/20_12 copy 6.jpg,0,55,0,0,0,"[9, 19, 29, 39, 49, 59, 68, 69, 70, 71]",0,55,55,55,224.59246561100008,,,,,,,,,,,224.58204998200017,224.5821084729996,224.5821162150005,224.59246561100008,225.5899793940007,225.5899793940007,228.59136438399946,228.59136438399946,228.59136438399946,228.5730817040003,None,0,228.57336789799956,228.5734101500002,None,228.5735213070002,228.5809637630009,None,228.5810592100006,228.58108425300088,None,,,,,,,,,,,,,,,,,9,001,0,,2024-04-11_15h11.30.511,replicate_nsd,2023.2.3,60.97184920623016,2024-04-11 15h11.41.757465 -0400,
images/5_12 copy 6.jpg,0,56,0,0,0,"[9, 19, 29, 39, 49, 59, 68, 69, 70, 71]",0,56,56,56,228.59136438399946,,,,,,,,,,,228.58134111099935,228.58140012700096,228.58140771299986,228.59136438399946,229.58970763599973,229.58970763599973,232.59147910799948,232.59147910799948,232.59147910799948,232.57327545800035,None,0,232.57356538599925,232.57360674499978,None,232.57371872899967,232.58134789200085,None,232.58144257700042,232.58146726199993,None,,,,,,,,,,,,,,,,,9,001,0,,2024-04-11_15h11.30.511,replicate_nsd,2023.2.3,60.97184920623016,2024-04-11 15h11.41.757465 -0400,
images/9_40 copy 4.jpg,0,57,0,0,0,"[9, 19, 29, 39, 49, 59, 68, 69, 70, 71]",0,57,57,57,232.59147910799948,,,,,,,,,,,232.5817220780009,232.5817805709994,232.58178815800056,232.59147910799948,233.58891793899966,233.58891793899966,236.58848258299986,236.58848258299986,236.58848258299986,236.57284906600034,None,0,236.57314045299972,236.57318262700028,None,236.57329343700076,236.58050461099992,None,236.58060619000025,236.58063127700007,None,,,,,,,,,,,,,,,,,9,001,0,,2024-04-11_15h11.30.511,replicate_nsd,2023.2.3,60.97184920623016,2024-04-11 15h11.41.757465 -0400,
images/8_0 copy 3.jpg,0,58,0,0,0,"[9, 19, 29, 39, 49, 59, 68, 69, 70, 71]",0,58,58,58,236.58848258299986,,,,,,,,,,,236.5808885410006,236.58094857800097,236.58095588600008,236.58848258299986,237.58912309399966,237.58912309399966,240.58797309799957,240.58797309799957,240.58797309799957,240.57266752400028,None,0,240.57295597899974,240.57299759499983,None,240.57310878099997,240.58061787900078,None,240.58071265800027,240.58073768199938,None,,,,,,,,,,,,,,,,,9,001,0,,2024-04-11_15h11.30.511,replicate_nsd,2023.2.3,60.97184920623016,2024-04-11 15h11.41.757465 -0400,
images/blank.jpg,0,59,1,0,0,"[9, 19, 29, 39, 49, 59, 68, 69, 70, 71]",0,59,59,59,240.58797309799957,,,,,,,,,,,240.58099659599975,240.5810555049993,240.58106312900054,,,,,,,240.58286551200035,None,0,240.58301587300048,244.57296392100034,None,244.57314479100023,244.580713587,None,244.58081137699992,244.58083623099992,None,,,240.58797309799957,240.58797309799957,244.5876712570007,244.5876712570007,,,,,,,,,,,9,001,0,,2024-04-11_15h11.30.511,replicate_nsd,2023.2.3,60.97184920623016,2024-04-11 15h11.41.757465 -0400,
images/6_28 copy 3.jpg,0,60,0,0,0,"[9, 19, 29, 39, 49, 59, 68, 69, 70, 71]",0,60,60,60,244.5876712570007,,,,,,,,,,,244.58109255899944,244.58115120100047,244.5811588409997,244.5876712570007,245.59063123799933,245.59063123799933,248.58908682900073,248.58908682900073,248.58908682900073,248.57255566499953,None,0,248.57284733300003,248.57289056599984,None,248.57300275200032,248.5730637180004,None,248.5731722420005,248.57320504000018,None,,,,,,,,,,,,,,,,,9,001,0,,2024-04-11_15h11.30.511,replicate_nsd,2023.2.3,60.97184920623016,2024-04-11 15h11.41.757465 -0400,
images/22_12 copy 7.jpg,0,61,0,0,0,"[9, 19, 29, 39, 49, 59, 68, 69, 70, 71]",0,61,61,61,248.58908682900073,,,,,,,,,,,248.57355950000056,248.5736464189995,248.57365789600044,248.58908682900073,249.5890239950004,249.5890239950004,252.59045358000003,252.59045358000003,252.59045358000003,252.572450433001,None,0,252.57273821200033,252.57277927799987,None,252.5728910199996,252.58014511300098,None,252.58024018200013,252.58026551700095,None,,,,,,,,,,,,,,,,,9,001,0,,2024-04-11_15h11.30.511,replicate_nsd,2023.2.3,60.97184920623016,2024-04-11 15h11.41.757465 -0400,
images/pair04 copy 7.jpg,0,62,0,0,0,"[9, 19, 29, 39, 49, 59, 68, 69, 70, 71]",0,62,62,62,252.59045358000003,,,,,,,,,,,252.58052202,252.58057966200067,252.58058723000067,252.59045358000003,253.58915791400068,253.58915791400068,256.5938708859994,256.5938708859994,256.5938708859994,256.57514100499975,None,0,256.5754310730008,256.5754731830002,None,256.57558490299925,256.58307029999924,None,256.58316457100045,256.5831897400003,None,,,,,,,,,,,,,,,,,9,001,0,,2024-04-11_15h11.30.511,replicate_nsd,2023.2.3,60.97184920623016,2024-04-11 15h11.41.757465 -0400,
images/12_12 copy 5.jpg,0,63,0,0,0,"[9, 19, 29, 39, 49, 59, 68, 69, 70, 71]",0,63,63,63,256.5938708859994,,,,,,,,,,,256.58344808999937,256.5835070079993,256.583514639,256.5938708859994,257.58904003099997,257.58904003099997,260.5881675470009,260.5881675470009,260.5881675470009,260.5721006069998,"['2', '1', '2', '1', '2', '1', '2', '1', '2', '1', '2', '1', '2', '1', '2', '1', '2', '1', '2', '1', '2', '1']",0,260.57244536799953,260.5724707169993,None,260.57253593600035,260.57795773200087,None,260.57803556100043,260.5780565360001,None,"[0.32355134899989935, 0.36753217700061214, 0.5075392529997771, 0.6314743849998194, 0.7355321949999052, 0.8715394899991225, 0.9874971320004988, 1.0995629530007136, 1.2355248990006658, 1.3555208500001754, 1.503522601999066, 1.63151820100029, 1.7715244259998144, 1.8995220430006157, 2.059559809998973, 2.1555322719996184, 2.30753252499926, 2.4035284870005853, 2.583528440000009, 2.683533333000014, 2.819525805000012, 2.8835351939997054]","[None, None, None, None, None, None, None, None, None, None, None, None, None, None, None, None, None, None, None, None, None, None]",,,,,,,,,,,,,,,9,001,0,,2024-04-11_15h11.30.511,replicate_nsd,2023.2.3,60.97184920623016,2024-04-11 15h11.41.757465 -0400,
images/8_28 copy 6.jpg,0,64,0,0,0,"[9, 19, 29, 39, 49, 59, 68, 69, 70, 71]",0,64,64,64,260.5881675470009,,,,,,,,,,,260.57826980999926,260.57831880699996,260.578325294,260.5881675470009,261.58823657299945,261.58823657299945,264.58947724599966,264.58947724599966,264.58947724599966,264.57508305600095,None,0,264.5753740649998,264.57541645499987,None,264.575527084,264.58295621599973,None,264.58306105500014,264.5830865829994,None,,,,,,,,,,,,,,,,,9,001,0,,2024-04-11_15h11.30.511,replicate_nsd,2023.2.3,60.97184920623016,2024-04-11 15h11.41.757465 -0400,
images/14_12 copy 6.jpg,0,65,0,0,0,"[9, 19, 29, 39, 49, 59, 68, 69, 70, 71]",0,65,65,65,264.58947724599966,,,,,,,,,,,264.5833466559998,264.583404641,264.5834121709995,264.58947724599966,265.58905680300086,265.58905680300086,268.58960672800094,268.58960672800094,268.58960672800094,268.5724211550005,None,0,268.5727112149998,268.5727535620008,None,268.57286488799946,268.5804189650007,None,268.5805119689994,268.5805367009998,None,,,,,,,,,,,,,,,,,9,001,0,,2024-04-11_15h11.30.511,replicate_nsd,2023.2.3,60.97184920623016,2024-04-11 15h11.41.757465 -0400,
images/6_0.jpg,0,66,0,0,0,"[9, 19, 29, 39, 49, 59, 68, 69, 70, 71]",0,66,66,66,268.58960672800094,,,,,,,,,,,268.5807912330001,268.5808497199996,268.58085722100077,268.58960672800094,269.58875072000046,269.58875072000046,272.592238919,272.592238919,272.592238919,272.5749259080003,None,0,272.57521452400033,272.57525626200004,None,272.5753676280001,272.5828606220002,None,272.5829531290001,272.5829778059997,None,,,,,,,,,,,,,,,,,9,001,0,,2024-04-11_15h11.30.511,replicate_nsd,2023.2.3,60.97184920623016,2024-04-11 15h11.41.757465 -0400,
images/15_0 copy.jpg,0,67,0,0,0,"[9, 19, 29, 39, 49, 59, 68, 69, 70, 71]",0,67,67,67,272.592238919,,,,,,,,,,,272.58323841499987,272.583296746001,272.5833041599999,272.592238919,273.59177646100034,273.59177646100034,276.5882941430009,276.5882941430009,276.5882941430009,276.5742659259995,None,0,276.574555227,276.57459715799996,None,276.5747076869993,276.58214594700075,None,276.5822384410003,276.5822634239994,None,,,,,,,,,,,,,,,,,9,001,0,,2024-04-11_15h11.30.511,replicate_nsd,2023.2.3,60.97184920623016,2024-04-11 15h11.41.757465 -0400,
images/blank.jpg,0,68,1,0,0,"[9, 19, 29, 39, 49, 59, 68, 69, 70, 71]",0,68,68,68,276.5882941430009,,,,,,,,,,,276.5825189019997,276.58257714200045,276.5825846450007,,,,,,,276.5843496689995,None,0,276.58453490899956,280.5729130569998,None,280.5730925320004,280.58070357699944,None,280.58080305399926,280.5808280330002,None,,,276.5882941430009,276.5882941430009,280.5876330459996,280.5876330459996,,,,,,,,,,,9,001,0,,2024-04-11_15h11.30.511,replicate_nsd,2023.2.3,60.97184920623016,2024-04-11 15h11.41.757465 -0400,
images/blank.jpg,0,69,1,0,0,"[9, 19, 29, 39, 49, 59, 68, 69, 70, 71]",0,69,69,69,280.5876330459996,,,,,,,,,,,280.58108570200056,280.5811437299999,280.58115116800036,,,,,,,280.58304432300065,None,0,280.5832132100004,284.5741404870005,None,284.5743200369998,284.5743832730004,None,284.57450497600075,284.57453907700074,None,,,280.5876330459996,280.5876330459996,284.5884295619999,284.5884295619999,,,,,,,,,,,9,001,0,,2024-04-11_15h11.30.511,replicate_nsd,2023.2.3,60.97184920623016,2024-04-11 15h11.41.757465 -0400,
images/blank.jpg,0,70,1,0,0,"[9, 19, 29, 39, 49, 59, 68, 69, 70, 71]",0,70,70,70,284.5884295619999,,,,,,,,,,,284.57490682500065,284.5749912200008,284.5750022960001,,,,,,,284.57722760899924,None,0,284.57743164400017,288.5729116900002,None,288.5730910910006,288.5731536429994,None,288.5732763350006,288.5733115799994,None,,,284.5884295619999,284.5884295619999,288.5890325870005,288.5890325870005,,,,,,,,,,,9,001,0,,2024-04-11_15h11.30.511,replicate_nsd,2023.2.3,60.97184920623016,2024-04-11 15h11.41.757465 -0400,
images/blank.jpg,0,71,1,1,0,"[9, 19, 29, 39, 49, 59, 68, 69, 70, 71]",0,71,71,71,288.5890325870005,,,,,,,,,,,288.5736818360001,288.5737670920007,288.5737781400003,,,,,,,288.57599675799975,None,0,288.57620186500026,292.5742603029994,None,292.5744383279998,310.58833709099963,space,310.5890328429996,312.5578052159999,5,,,288.5890325870005,288.5890325870005,292.58872361000067,292.58872361000067,,,292.58872361000067,292.58872361000067,17.991865668000173,None,310.60588245300096,310.60588245300096,1.9467291239998303,None,9,001,0,,2024-04-11_15h11.30.511,replicate_nsd,2023.2.3,60.97184920623016,2024-04-11 15h11.41.757465 -0400,
images/24_40 copy 2.jpg,0,0,0,0,1,"[9, 19, 31, 42, 56, 68, 69, 70, 71]",0,72,72,72,312.5721054349997,,,,,,,,,,,312.5587625400003,312.5588198910009,312.558827451001,312.5721054349997,313.5721636590006,313.5721636590006,316.57198151800003,316.57198151800003,316.57198151800003,316.5581757149994,None,0,316.55846458199994,316.5585077600008,None,316.5586201919996,316.5586793780003,None,316.55878766299975,316.55882186300005,None,,,,,,,,,,,,,,,,,9,001,0,,2024-04-11_15h11.30.511,replicate_nsd,2023.2.3,60.97184920623016,2024-04-11 15h11.41.757465 -0400,
images/pair01 copy 7.jpg,0,1,0,0,1,"[9, 19, 31, 42, 56, 68, 69, 70, 71]",0,73,73,73,316.57198151800003,,,,,,,,,,,316.5591774940003,316.5592616869999,316.55927252699985,316.57198151800003,317.57216487000005,317.57216487000005,320.57292978700025,320.57292978700025,320.57292978700025,320.5580015890009,None,0,320.55828914499943,320.5583313349998,None,320.5584422390002,320.5661608490009,None,320.5662531880007,320.56627824099996,None,,,,,,,,,,,,,,,,,9,001,0,,2024-04-11_15h11.30.511,replicate_nsd,2023.2.3,60.97184920623016,2024-04-11 15h11.41.757465 -0400,
images/8_12.jpg,0,2,0,0,1,"[9, 19, 31, 42, 56, 68, 69, 70, 71]",0,74,74,74,320.57292978700025,,,,,,,,,,,320.5665344070003,320.5665925840003,320.56660006399943,320.57292978700025,321.57212682700083,321.57212682700083,324.57603901900075,324.57603901900075,324.57603901900075,324.5581816039994,None,0,324.55846943300094,324.55851119600084,None,324.5586233850008,324.5661024839992,None,324.5661962569993,324.56622174400036,None,,,,,,,,,,,,,,,,,9,001,0,,2024-04-11_15h11.30.511,replicate_nsd,2023.2.3,60.97184920623016,2024-04-11 15h11.41.757465 -0400,
images/pair04 copy 6.jpg,0,3,0,0,1,"[9, 19, 31, 42, 56, 68, 69, 70, 71]",0,75,75,75,324.57603901900075,,,,,,,,,,,324.56647911099935,324.56653689199993,324.56654441499995,324.57603901900075,325.5721439930003,325.5721439930003,328.5734149279997,328.5734149279997,328.5734149279997,328.55552807999993,None,0,328.55581644000085,328.5558584930004,None,328.5559699730002,328.56332018099965,None,328.5634131629995,328.5634376479993,None,,,,,,,,,,,,,,,,,9,001,0,,2024-04-11_15h11.30.511,replicate_nsd,2023.2.3,60.97184920623016,2024-04-11 15h11.41.757465 -0400,
images/21_12 copy 5.jpg,0,4,0,0,1,"[9, 19, 31, 42, 56, 68, 69, 70, 71]",0,76,76,76,328.5734149279997,,,,,,,,,,,328.5636931879999,328.5637514129994,328.56375873400066,328.5734149279997,329.57215052299944,329.57215052299944,332.5707762969996,332.5707762969996,332.5707762969996,332.5555222389994,None,0,332.5558120120004,332.55585391100067,None,332.5559645020003,332.56333088800056,None,332.56342368100013,332.5634480009994,None,,,,,,,,,,,,,,,,,9,001,0,,2024-04-11_15h11.30.511,replicate_nsd,2023.2.3,60.97184920623016,2024-04-11 15h11.41.757465 -0400,
images/8_28 copy 2.jpg,0,5,0,0,1,"[9, 19, 31, 42, 56, 68, 69, 70, 71]",0,77,77,77,332.5707762969996,,,,,,,,,,,332.56370312299987,332.5637607860008,332.56376838100005,332.5707762969996,333.57214041500083,333.57214041500083,336.5713196710003,336.5713196710003,336.5713196710003,336.5547856730009,None,0,336.55498431699925,336.5550095340004,None,336.55507419900096,336.5605168279999,None,336.5605971879995,336.5606187840003,None,,,,,,,,,,,,,,,,,9,001,0,,2024-04-11_15h11.30.511,replicate_nsd,2023.2.3,60.97184920623016,2024-04-11 15h11.41.757465 -0400,
images/18_0 copy 4.jpg,0,6,0,0,1,"[9, 19, 31, 42, 56, 68, 69, 70, 71]",0,78,78,78,336.5713196710003,,,,,,,,,,,336.56083856199984,336.560888729,336.5608952220009,336.5713196710003,337.5721448259992,337.5721448259992,340.57541010299974,340.57541010299974,340.57541010299974,340.558055806001,None,0,340.55834268999934,340.558384588001,None,340.55849594199935,340.5661608699993,None,340.5662541490001,340.5662786310004,None,,,,,,,,,,,,,,,,,9,001,0,,2024-04-11_15h11.30.511,replicate_nsd,2023.2.3,60.97184920623016,2024-04-11 15h11.41.757465 -0400,
images/21_28.jpg,0,7,0,0,1,"[9, 19, 31, 42, 56, 68, 69, 70, 71]",0,79,79,79,340.57541010299974,,,,,,,,,,,340.5665319719992,340.5665898139996,340.5665976170003,340.57541010299974,341.57214104299965,341.57214104299965,344.572160832,344.572160832,344.572160832,344.5580265509998,None,0,344.55831281099927,344.55835483100054,None,344.5584664149992,344.565919951001,None,344.56601280500036,344.5660376750002,None,,,,,,,,,,,,,,,,,9,001,0,,2024-04-11_15h11.30.511,replicate_nsd,2023.2.3,60.97184920623016,2024-04-11 15h11.41.757465 -0400,
images/24_40.jpg,0,8,0,0,1,"[9, 19, 31, 42, 56, 68, 69, 70, 71]",0,80,80,80,344.572160832,,,,,,,,,,,344.5662914509994,344.5663486529993,344.5663560009998,344.572160832,345.57215847599946,345.57215847599946,348.57127670299997,348.57127670299997,348.57127670299997,348.5555024240002,None,0,348.555790497001,348.5558317119994,None,348.5559421779999,348.56329729999925,None,348.5633909070002,348.56341538000015,None,,,,,,,,,,,,,,,,,9,001,0,,2024-04-11_15h11.30.511,replicate_nsd,2023.2.3,60.97184920623016,2024-04-11 15h11.41.757465 -0400,
images/blank.jpg,0,9,1,0,1,"[9, 19, 31, 42, 56, 68, 69, 70, 71]",0,81,81,81,348.57127670299997,,,,,,,,,,,348.56367013899944,348.56372855799964,348.5637363179994,,,,,,,348.565460885,None,0,348.5656291180003,352.55737095599943,None,352.55762210099965,352.565591089,None,352.5656880259994,352.5657127409995,None,,,348.57127670299997,348.57127670299997,352.57460130800064,352.57460130800064,,,,,,,,,,,9,001,0,,2024-04-11_15h11.30.511,replicate_nsd,2023.2.3,60.97184920623016,2024-04-11 15h11.41.757465 -0400,
images/18_40 copy 4.jpg,0,10,0,0,1,"[9, 19, 31, 42, 56, 68, 69, 70, 71]",0,82,82,82,352.57460130800064,,,,,,,,,,,352.56596649399944,352.56602451800063,352.5660319279996,352.57460130800064,353.57211959900087,353.57211959900087,356.57215148999967,356.57215148999967,356.57215148999967,356.5579947690003,None,0,356.558283063001,356.5583252560009,None,356.5584374659993,356.55849648299954,None,356.5586042670002,356.5586371770005,None,,,,,,,,,,,,,,,,,9,001,0,,2024-04-11_15h11.30.511,replicate_nsd,2023.2.3,60.97184920623016,2024-04-11 15h11.41.757465 -0400,
images/15_0 copy.jpg,1,11,0,0,1,"[9, 19, 31, 42, 56, 68, 69, 70, 71]",0,83,83,83,356.57215148999967,,,,,,,,,,,356.5589956519998,356.55908074500076,356.5590918329999,356.57215148999967,357.57216744499965,357.57216744499965,360.57259456999964,360.57259456999964,360.57259456999964,360.5555146679999,None,0,360.55580303200077,360.5558447660005,None,360.55595746200015,360.56365675800043,None,360.5637498849992,360.5637740330003,None,,,,,,,,,,,,,,,,,9,001,0,,2024-04-11_15h11.30.511,replicate_nsd,2023.2.3,60.97184920623016,2024-04-11 15h11.41.757465 -0400,
images/24_12 copy 2.jpg,0,12,0,0,1,"[9, 19, 31, 42, 56, 68, 69, 70, 71]",0,84,84,84,360.57259456999964,,,,,,,,,,,360.5640284180008,360.56408662300055,360.5640942360005,360.57259456999964,361.57215845800056,361.57215845800056,364.57258196399926,364.57258196399926,364.57258196399926,364.55804900300063,None,0,364.55834139500075,364.55838348900033,None,364.5584946660001,364.56595699900026,None,364.5660503979998,364.56607536699994,None,,,,,,,,,,,,,,,,,9,001,0,,2024-04-11_15h11.30.511,replicate_nsd,2023.2.3,60.97184920623016,2024-04-11 15h11.41.757465 -0400,
images/22_0 copy.jpg,0,13,0,0,1,"[9, 19, 31, 42, 56, 68, 69, 70, 71]",0,85,85,85,364.57258196399926,,,,,,,,,,,364.56632886199986,364.56638639000084,364.5663939749993,364.57258196399926,365.57211851300053,365.57211851300053,368.5726148220001,368.5726148220001,368.5726148220001,368.55550240699995,None,0,368.5557905660007,368.5558328909992,None,368.5559440809993,368.5633476389994,None,368.5634405620003,368.5634647930001,None,,,,,,,,,,,,,,,,,9,001,0,,2024-04-11_15h11.30.511,replicate_nsd,2023.2.3,60.97184920623016,2024-04-11 15h11.41.757465 -0400,
images/16_28 copy 2.jpg,0,14,0,0,1,"[9, 19, 31, 42, 56, 68, 69, 70, 71]",0,86,86,86,368.5726148220001,,,,,,,,,,,368.5637180850008,368.56377603799956,368.56378337299975,368.5726148220001,369.57213774199954,369.57213774199954,372.5760378310006,372.5760378310006,372.5760378310006,372.5580182440008,None,0,372.5583067250009,372.55834839599993,None,372.5584598149999,372.5659567620005,None,372.56604960799996,372.56607492200055,None,,,,,,,,,,,,,,,,,9,001,0,,2024-04-11_15h11.30.511,replicate_nsd,2023.2.3,60.97184920623016,2024-04-11 15h11.41.757465 -0400,
images/11_12 copy 4.jpg,0,15,0,0,1,"[9, 19, 31, 42, 56, 68, 69, 70, 71]",0,87,87,87,372.5760378310006,,,,,,,,,,,372.5663278030006,372.56638541100074,372.56639300999996,372.5760378310006,373.5721202200002,373.5721202200002,376.57291567500033,376.57291567500033,376.57291567500033,376.5555297840001,None,0,376.5558192490007,376.5558608699994,None,376.55597140200007,376.56339356399985,None,376.56348639600037,376.563510811,None,,,,,,,,,,,,,,,,,9,001,0,,2024-04-11_15h11.30.511,replicate_nsd,2023.2.3,60.97184920623016,2024-04-11 15h11.41.757465 -0400,
images/pair01 copy 5.jpg,0,16,0,0,1,"[9, 19, 31, 42, 56, 68, 69, 70, 71]",0,88,88,88,376.57291567500033,,,,,,,,,,,376.5637664299993,376.56382483000016,376.5638324009997,376.57291567500033,377.57189546100017,377.57189546100017,380.5729368510001,380.5729368510001,380.5729368510001,380.55549214500024,None,0,380.55577897200055,380.55582094500096,None,380.55593120699996,380.56352076800067,None,380.5636126169993,380.56363710799997,None,,,,,,,,,,,,,,,,,9,001,0,,2024-04-11_15h11.30.511,replicate_nsd,2023.2.3,60.97184920623016,2024-04-11 15h11.41.757465 -0400,
images/14_28 copy 4.jpg,0,17,0,0,1,"[9, 19, 31, 42, 56, 68, 69, 70, 71]",0,89,89,89,380.5729368510001,,,,,,,,,,,380.5638915899999,380.56394948100024,380.5639572960008,380.5729368510001,381.5714268009997,381.5714268009997,384.57124269999986,384.57124269999986,384.57124269999986,384.5563969110008,None,0,384.556553370001,384.5565744960004,None,384.55662747399947,384.5613217040009,None,384.56138880400067,384.5614064679994,None,,,,,,,,,,,,,,,,,9,001,0,,2024-04-11_15h11.30.511,replicate_nsd,2023.2.3,60.97184920623016,2024-04-11 15h11.41.757465 -0400,
,,,,,,,,,,,384.57124269999986,,,,,,,,,,,384.56159042299987,384.56163476800066,384.5616401269999,384.57124269999986,385.5712338550002,385.5712338550002,,,,,,,,,,,,,,,,,,,,,,,,,,,,,,,,,,,,,,,,,
