current_image,is_repeat,trial_index,is_blank_trial,is_new_run,run_num,all_blanks_list,practice.thisRepN,practice.thisTrialN,practice.thisN,practice.thisIndex,loop_all_images.thisRepN,loop_all_images.thisTrialN,loop_all_images.thisN,loop_all_images.thisIndex,thisRow.t,notes,set_up.started,set_up.stopped,practice_continue.started,key_resp_6.started,text_6.started,practice_continue.stopped,key_resp_6.keys,key_resp_6.rt,key_resp_6.duration,testing_continue.started,key_resp_7.started,text_7.started,testing_continue.stopped,key_resp_7.keys,key_resp_7.rt,key_resp_7.duration,waiting_fmri.started,key_resp_2.started,text_3.started,waiting_fmri.stopped,key_resp_2.keys,key_resp_2.rt,key_resp_2.duration,set_skips_and_correct_key.started,set_skips_and_correct_key.stopped,trial.started,polygon.started,all_keys_pressed.started,image.started,press_if_repeat.started,image.stopped,press_if_repeat.stopped,polygon.stopped,all_keys_pressed.stopped,trial.stopped,press_if_repeat.keys,press_if_repeat.corr,all_keys_pressed.keys,blank_trial.started,blank_trial.stopped,blank_trial_testing_keys.keys,run_wait2_2.started,run_wait2_2.stopped,key_resp_5.keys,waiting_fmri_2.started,waiting_fmri_2.stopped,key_resp_4.keys,blank_trial_testing_keys.started,polygon_2.started,blank_trial_testing_keys.stopped,polygon_2.stopped,press_if_repeat.rt,press_if_repeat.duration,blank_trial_testing_keys.rt,blank_trial_testing_keys.duration,all_keys_pressed.rt,all_keys_pressed.duration,key_resp_5.started,text_5.started,participant,session,starting_run,,date,expName,psychopyVersion,frameRate,expStart,
,,,,,,,,,,,,,,,,,0.00962491699920065,0.009808608999264834,0.00982235099945683,0.030720029999429244,0.030720029999429244,3.7587457739991805,2,3.7235436669998307,None,,,,,,,,,,,,,,,,,,,,,,,,,,,,,,,,,,,,,,,,,,,,,,,,,,,1,001,0,,2024-04-12_14h36.02.204,replicate_nsd,2023.2.3,60.00090889386956,2024-04-12 14h36.21.687993 -0400,
,,,,,,,,,,,,,,,,,,,,,,,,,,3.7653566009994393,3.78342009699918,3.78342009699918,7.725328485999853,2,3.933589676000338,None,,,,,,,,,,,,,,,,,,,,,,,,,,,,,,,,,,,,,,,,,,,,1,001,0,,2024-04-12_14h36.02.204,replicate_nsd,2023.2.3,60.00090889386956,2024-04-12 14h36.21.687993 -0400,
,,,,,,,,,,,,,,,,,,,,,,,,,,,,,,,,,7.725353572999666,7.742405715999666,7.742405715999666,57.427222098999664,equal,49.68423837899991,None,,,,,,,,,,,,,,,,,,,,,,,,,,,,,,,,,,,,,1,001,0,,2024-04-12_14h36.02.204,replicate_nsd,2023.2.3,60.00090889386956,2024-04-12 14h36.21.687993 -0400,
images/image_585_seed_1.png,0,0,0,0,0,"[9, 19, 29, 39, 49, 59, 68, 69, 70, 71]",,,,,0,0,0,0,57.53549140599989,,,,,,,,,,,,,,,,,,,,,,,,,57.507770350999635,57.507888203999755,57.50789565099967,57.53549140599989,57.53549140599989,58.50739078699917,58.50739078699917,61.50727876499968,61.50727876499968,61.50727876499968,61.50727876499968,61.490909373999784,None,0,None,61.49325213499924,61.49329380399922,None,61.49399961399922,61.494063277999885,None,61.49475460999929,61.49479068399978,None,,,,,,,,,,,,,1,001,0,,2024-04-12_14h36.02.204,replicate_nsd,2023.2.3,60.00090889386956,2024-04-12 14h36.21.687993 -0400,
images/image_252_seed_1.png,0,1,0,0,0,"[9, 19, 29, 39, 49, 59, 68, 69, 70, 71]",,,,,0,1,1,1,61.50727876499968,,,,,,,,,,,,,,,,,,,,,,,,,61.495721527999194,61.495837038999525,61.49584739599959,61.50727876499968,61.50727876499968,62.50946050699986,62.50946050699986,65.51108187299997,65.51108187299997,65.51108187299997,65.51108187299997,65.49278187399977,None,0,None,65.49325683199913,65.49330153399933,None,65.49341510299928,65.50338344199918,None,65.5034643479994,65.50348648899944,None,,,,,,,,,,,,,1,001,0,,2024-04-12_14h36.02.204,replicate_nsd,2023.2.3,60.00090889386956,2024-04-12 14h36.21.687993 -0400,
images/image_118_seed_1.png,0,2,0,0,0,"[9, 19, 29, 39, 49, 59, 68, 69, 70, 71]",,,,,0,2,2,2,65.51108187299997,,,,,,,,,,,,,,,,,,,,,,,,,65.50370523499987,65.50378787599948,65.5037949789994,65.51108187299997,65.51108187299997,66.50727289199949,66.50727289199949,69.51002147500003,69.51002147500003,69.51002147500003,69.51002147500003,69.49242795699956,None,0,None,69.49292033199981,69.49296452899944,None,69.49308225299956,69.5014661109999,None,69.50156349699955,69.50158858699979,None,,,,,,,,,,,,,1,001,0,,2024-04-12_14h36.02.204,replicate_nsd,2023.2.3,60.00090889386956,2024-04-12 14h36.21.687993 -0400,
images/image_196_seed_1.png,0,3,0,0,0,"[9, 19, 29, 39, 49, 59, 68, 69, 70, 71]",,,,,0,3,3,3,69.51002147500003,,,,,,,,,,,,,,,,,,,,,,,,,69.50184642599925,69.50194431399996,69.50195244899987,69.51002147500003,69.51002147500003,70.50965753199944,70.50965753199944,73.51030061999973,73.51030061999973,73.51030061999973,73.51030061999973,73.49247142999957,None,0,None,73.49293754499922,73.49298268999974,None,73.49309869699937,73.50158866499987,None,73.50168330299948,73.50170858199999,None,,,,,,,,,,,,,1,001,0,,2024-04-12_14h36.02.204,replicate_nsd,2023.2.3,60.00090889386956,2024-04-12 14h36.21.687993 -0400,
images/image_10_seed_1.png,0,4,0,0,0,"[9, 19, 29, 39, 49, 59, 68, 69, 70, 71]",,,,,0,4,4,4,73.51030061999973,,,,,,,,,,,,,,,,,,,,,,,,,73.50196416699964,73.50205825499961,73.5020666219998,73.51030061999973,73.51030061999973,74.50944105399958,74.50944105399958,77.54427867699997,77.54427867699997,77.54427867699997,77.54427867699997,77.52645304999987,None,0,None,77.52693078499942,77.52697500199974,None,77.52708897999946,77.53540032199999,None,77.53549398799987,77.535519303,None,,,,,,,,,,,,,1,001,0,,2024-04-12_14h36.02.204,replicate_nsd,2023.2.3,60.00090889386956,2024-04-12 14h36.21.687993 -0400,
images/image_318_seed_1.png,0,5,0,0,0,"[9, 19, 29, 39, 49, 59, 68, 69, 70, 71]",,,,,0,5,5,5,77.54427867699997,,,,,,,,,,,,,,,,,,,,,,,,,77.53577103499993,77.53586434399949,77.53587214599975,77.54427867699997,77.54427867699997,78.54298767099954,78.54298767099954,81.54307542799961,81.54307542799961,81.54307542799961,81.54307542799961,81.52438980599982,None,0,None,81.52489440199952,81.52493841399973,None,81.52505505599947,81.53353109,None,81.53363110099963,81.53365601099995,None,,,,,,,,,,,,,1,001,0,,2024-04-12_14h36.02.204,replicate_nsd,2023.2.3,60.00090889386956,2024-04-12 14h36.21.687993 -0400,
images/image_719_seed_1.png,0,6,0,0,0,"[9, 19, 29, 39, 49, 59, 68, 69, 70, 71]",,,,,0,6,6,6,81.54307542799961,,,,,,,,,,,,,,,,,,,,,,,,,81.5339110649993,81.5340140369999,81.53402216399991,81.54307542799961,81.54307542799961,82.5429520609996,82.5429520609996,85.54366211699926,85.54366211699926,85.54366211699926,85.54366211699926,85.52618307899957,None,0,None,85.5266684799999,85.52671298899986,None,85.52683101599996,85.53524511699925,None,85.5353400869999,85.53536537399941,None,,,,,,,,,,,,,1,001,0,,2024-04-12_14h36.02.204,replicate_nsd,2023.2.3,60.00090889386956,2024-04-12 14h36.21.687993 -0400,
images/image_253_seed_1.png,0,7,0,0,0,"[9, 19, 29, 39, 49, 59, 68, 69, 70, 71]",,,,,0,7,7,7,85.54366211699926,,,,,,,,,,,,,,,,,,,,,,,,,85.53562243999932,85.53571719699994,85.5357254799992,85.54366211699926,85.54366211699926,86.54306266200001,86.54306266200001,89.54425803999948,89.54425803999948,89.54425803999948,89.54425803999948,89.52649780999946,None,0,None,89.5269555219993,89.52699951399973,None,89.5271104049998,89.53550610799994,None,89.53560330899927,89.53562891199999,None,,,,,,,,,,,,,1,001,0,,2024-04-12_14h36.02.204,replicate_nsd,2023.2.3,60.00090889386956,2024-04-12 14h36.21.687993 -0400,
images/image_458_seed_1.png,0,8,0,0,0,"[9, 19, 29, 39, 49, 59, 68, 69, 70, 71]",,,,,0,8,8,8,89.54425803999948,,,,,,,,,,,,,,,,,,,,,,,,,89.5358812759996,89.53597713899944,89.53598496499944,89.54425803999948,89.54425803999948,90.54338996299975,90.54338996299975,93.54514632399969,93.54514632399969,93.54514632399969,93.54514632399969,93.52683864699975,None,0,None,93.52731478399983,93.52735859199947,None,93.52747203599938,93.53588385699913,None,93.53597687899946,93.53600166399974,None,,,,,,,,,,,,,1,001,0,,2024-04-12_14h36.02.204,replicate_nsd,2023.2.3,60.00090889386956,2024-04-12 14h36.21.687993 -0400,
images/blank.jpg,0,9,1,0,0,"[9, 19, 29, 39, 49, 59, 68, 69, 70, 71]",,,,,0,9,9,9,93.54514632399969,,,,,,,,,,,,,,,,,,,,,,,,,93.53625209399979,93.53634847399917,93.53635655599919,,,,,,,,,93.54207386999951,None,0,None,93.54236606999984,97.5265525269997,None,97.52674580599978,97.53538945299988,None,97.53549015099998,97.53551502899973,None,93.54514632399969,93.54514632399969,97.54450824099968,97.54450824099968,,,,,,,,,1,001,0,,2024-04-12_14h36.02.204,replicate_nsd,2023.2.3,60.00090889386956,2024-04-12 14h36.21.687993 -0400,
images/image_545_seed_1.png,0,10,0,0,0,"[9, 19, 29, 39, 49, 59, 68, 69, 70, 71]",,,,,0,10,10,10,97.54450824099968,,,,,,,,,,,,,,,,,,,,,,,,,97.53577855999993,97.53587815999981,97.53588617999958,97.54450824099968,97.54450824099968,98.54266768299931,98.54266768299931,101.54117120199953,101.54117120199953,101.54117120199953,101.54117120199953,101.52692853199915,None,0,None,101.52741628199965,101.52746136199949,None,101.52757967399975,101.52764473799925,None,101.52776215699942,101.52779883599942,None,,,,,,,,,,,,,1,001,0,,2024-04-12_14h36.02.204,replicate_nsd,2023.2.3,60.00090889386956,2024-04-12 14h36.21.687993 -0400,
images/image_571_seed_1.png,0,11,0,0,0,"[9, 19, 29, 39, 49, 59, 68, 69, 70, 71]",,,,,0,11,11,11,101.54117120199953,,,,,,,,,,,,,,,,,,,,,,,,,101.52817868900001,101.52832068799944,101.52833372699934,101.54117120199953,101.54117120199953,102.54361869099921,102.54361869099921,105.5461690279999,105.5461690279999,105.5461690279999,105.5461690279999,105.52708662799978,None,0,None,105.52756647999922,105.52761046299929,None,105.5277248249995,105.53582232699955,None,105.53591605599922,105.53594066200003,None,,,,,,,,,,,,,1,001,0,,2024-04-12_14h36.02.204,replicate_nsd,2023.2.3,60.00090889386956,2024-04-12 14h36.21.687993 -0400,
images/image_687_seed_1.png,0,12,0,0,0,"[9, 19, 29, 39, 49, 59, 68, 69, 70, 71]",,,,,0,12,12,12,105.5461690279999,,,,,,,,,,,,,,,,,,,,,,,,,105.53619297399928,105.53628874399965,105.53629679799997,105.5461690279999,105.5461690279999,106.54332361199977,106.54332361199977,109.54457409799943,109.54457409799943,109.54457409799943,109.54457409799943,109.52707972999997,None,0,None,109.52756457899977,109.52760927799955,None,109.5277258419992,109.53544736099957,None,109.53554207999969,109.53556820799986,None,,,,,,,,,,,,,1,001,0,,2024-04-12_14h36.02.204,replicate_nsd,2023.2.3,60.00090889386956,2024-04-12 14h36.21.687993 -0400,
images/image_276_seed_1.png,0,13,0,0,0,"[9, 19, 29, 39, 49, 59, 68, 69, 70, 71]",,,,,0,13,13,13,109.54457409799943,,,,,,,,,,,,,,,,,,,,,,,,,109.53582249299961,109.5359152609999,109.5359232969995,109.54457409799943,109.54457409799943,110.54381898199972,110.54381898199972,113.54524674899949,113.54524674899949,113.54524674899949,113.54524674899949,113.52735751799992,1,1,None,113.52886558999944,113.52891179799917,None,113.52902578799967,113.5364382279995,None,113.53653010499966,113.53655475099913,None,,,,,2.5657291800007442,None,,,,,,,1,001,0,,2024-04-12_14h36.02.204,replicate_nsd,2023.2.3,60.00090889386956,2024-04-12 14h36.21.687993 -0400,
images/image_438_seed_1.png,0,14,0,0,0,"[9, 19, 29, 39, 49, 59, 68, 69, 70, 71]",,,,,0,14,14,14,113.54524674899949,,,,,,,,,,,,,,,,,,,,,,,,,113.53680644299948,113.5369004589993,113.53690852599993,113.54524674899949,113.54524674899949,114.54405606599994,114.54405606599994,117.54512236499977,117.54512236499977,117.54512236499977,117.54512236499977,117.52576987799966,1,1,None,117.52645627199945,117.52650120099952,None,117.52661396499934,117.53434343499976,None,117.53443859099934,117.53446444499968,None,,,,,1.429486471999553,None,,,,,,,1,001,0,,2024-04-12_14h36.02.204,replicate_nsd,2023.2.3,60.00090889386956,2024-04-12 14h36.21.687993 -0400,
images/image_611_seed_1.png,0,15,0,0,0,"[9, 19, 29, 39, 49, 59, 68, 69, 70, 71]",,,,,0,15,15,15,117.54512236499977,,,,,,,,,,,,,,,,,,,,,,,,,117.53472196499933,117.53481795199968,117.53482636599983,117.54512236499977,117.54512236499977,118.54202126999917,118.54202126999917,121.54459438199956,121.54459438199956,121.54459438199956,121.54459438199956,121.52704052299941,1,1,None,121.52771618599945,121.5277619619992,None,121.52814665499955,121.53557541399914,None,121.53567000799922,121.53569535299994,None,,,,,0.503501389000121,None,,,,,,,1,001,0,,2024-04-12_14h36.02.204,replicate_nsd,2023.2.3,60.00090889386956,2024-04-12 14h36.21.687993 -0400,
images/image_615_seed_1.png,0,16,0,0,0,"[9, 19, 29, 39, 49, 59, 68, 69, 70, 71]",,,,,0,16,16,16,121.54459438199956,,,,,,,,,,,,,,,,,,,,,,,,,121.53595223399952,121.5360458539999,121.5360541329992,121.54459438199956,121.54459438199956,122.54408426699956,122.54408426699956,125.5457269819999,125.5457269819999,125.5457269819999,125.5457269819999,125.5276447389997,1,1,None,125.52830923900001,125.52835416199923,None,125.5284626549992,125.53577448599935,None,125.53586615099994,125.53589101499983,None,,,,,0.4774581779993241,None,,,,,,,1,001,0,,2024-04-12_14h36.02.204,replicate_nsd,2023.2.3,60.00090889386956,2024-04-12 14h36.21.687993 -0400,
images/image_256_seed_1.png,0,17,0,0,0,"[9, 19, 29, 39, 49, 59, 68, 69, 70, 71]",,,,,0,17,17,17,125.5457269819999,,,,,,,,,,,,,,,,,,,,,,,,,125.53614403699976,125.53623676499956,125.53624471299918,125.5457269819999,125.5457269819999,126.54385675699996,126.54385675699996,129.5451794949995,129.5451794949995,129.5451794949995,129.5451794949995,129.52798153799995,1,1,None,129.5286514219997,129.5286968849996,None,129.52880983399973,129.53662728799918,None,129.53672165599983,129.53674762299943,None,,,,,0.43770911100000376,None,,,,,,,1,001,0,,2024-04-12_14h36.02.204,replicate_nsd,2023.2.3,60.00090889386956,2024-04-12 14h36.21.687993 -0400,
images/image_210_seed_1.png,0,18,0,0,0,"[9, 19, 29, 39, 49, 59, 68, 69, 70, 71]",,,,,0,18,18,18,129.5451794949995,,,,,,,,,,,,,,,,,,,,,,,,,129.5370057679993,129.53709929899924,129.5371072449998,129.5451794949995,129.5451794949995,130.54447007,130.54447007,133.54543065500002,133.54543065500002,133.54543065500002,133.54543065500002,133.52816847699978,1,1,None,133.52884434899988,133.52889041799972,None,133.52900471799967,133.5366227939994,None,133.53671764199953,133.53674319199945,None,,,,,0.4211100490001627,None,,,,,,,1,001,0,,2024-04-12_14h36.02.204,replicate_nsd,2023.2.3,60.00090889386956,2024-04-12 14h36.21.687993 -0400,
images/blank.jpg,0,19,1,0,0,"[9, 19, 29, 39, 49, 59, 68, 69, 70, 71]",,,,,0,19,19,19,133.54543065500002,,,,,,,,,,,,,,,,,,,,,,,,,133.53700089799986,133.53709594599968,133.5371041089993,,,,,,,,,133.5426537129997,None,0,None,133.54294546799974,137.52768637600002,['1'],137.52959027199995,137.53713298299954,None,137.53723373699995,137.53725949099953,None,133.54543065500002,133.54543065500002,137.54558341499978,137.54558341499978,,,[0.06815264300075796],[None],,,,,1,001,0,,2024-04-12_14h36.02.204,replicate_nsd,2023.2.3,60.00090889386956,2024-04-12 14h36.21.687993 -0400,
images/image_372_seed_1.png,0,20,0,0,0,"[9, 19, 29, 39, 49, 59, 68, 69, 70, 71]",,,,,0,20,20,20,137.54558341499978,,,,,,,,,,,,,,,,,,,,,,,,,137.53752452699973,137.5376299339996,137.53763825899932,137.54558341499978,137.54558341499978,138.54446383199956,138.54446383199956,141.54198329299925,141.54198329299925,141.54198329299925,141.54198329299925,141.52769422099936,1,1,None,141.5283534299997,141.52840047899917,None,141.52851344399915,141.52857765099998,None,141.52869085599923,141.52872768199995,None,,,,,0.5250858939998579,None,,,,,,,1,001,0,,2024-04-12_14h36.02.204,replicate_nsd,2023.2.3,60.00090889386956,2024-04-12 14h36.21.687993 -0400,
images/image_444_seed_1.png,0,21,0,0,0,"[9, 19, 29, 39, 49, 59, 68, 69, 70, 71]",,,,,0,21,21,21,141.54198329299925,,,,,,,,,,,,,,,,,,,,,,,,,141.52910753699962,141.52924876199995,141.52926134599966,141.54198329299925,141.54198329299925,142.5446613539998,142.5446613539998,145.54528596899945,145.54528596899945,145.54528596899945,145.54528596899945,145.52818558199942,1,1,['1'],145.53049952799938,145.5305381849994,None,145.530641544,145.5380095569999,None,145.53810535799948,145.53813036199972,None,,,,,0.41289351799969154,None,,,[0.3355105659993569],[None],,,1,001,0,,2024-04-12_14h36.02.204,replicate_nsd,2023.2.3,60.00090889386956,2024-04-12 14h36.21.687993 -0400,
images/image_564_seed_1.png,0,22,0,0,0,"[9, 19, 29, 39, 49, 59, 68, 69, 70, 71]",,,,,0,22,22,22,145.54528596899945,,,,,,,,,,,,,,,,,,,,,,,,,145.53838875199926,145.53847026699987,145.53847729599966,145.54528596899945,145.54528596899945,146.54446038099923,146.54446038099923,149.54615522899985,149.54615522899985,149.54615522899985,149.54615522899985,149.52859365599943,1,1,None,149.52925991699976,149.5293052019997,None,149.52941339299923,149.53700240999933,None,149.53709696299939,149.5371216479998,None,,,,,0.9891042400004153,None,,,,,,,1,001,0,,2024-04-12_14h36.02.204,replicate_nsd,2023.2.3,60.00090889386956,2024-04-12 14h36.21.687993 -0400,
images/image_105_seed_1.png,0,23,0,0,0,"[9, 19, 29, 39, 49, 59, 68, 69, 70, 71]",,,,,0,23,23,23,149.54615522899985,,,,,,,,,,,,,,,,,,,,,,,,,149.53737634499976,149.53747591499996,149.53748651099977,149.54615522899985,149.54615522899985,150.54494472699935,150.54494472699935,153.54603642999973,153.54603642999973,153.54603642999973,153.54603642999973,153.52649023199956,1,1,None,153.52716011899975,153.52720571399914,None,153.52731775399934,153.53507783399982,None,153.53517275299964,153.5351983749997,None,,,,,0.30860475200006476,None,,,,,,,1,001,0,,2024-04-12_14h36.02.204,replicate_nsd,2023.2.3,60.00090889386956,2024-04-12 14h36.21.687993 -0400,
images/image_422_seed_1.png,0,24,0,0,0,"[9, 19, 29, 39, 49, 59, 68, 69, 70, 71]",,,,,0,24,24,24,153.54603642999973,,,,,,,,,,,,,,,,,,,,,,,,,153.5354543049998,153.53554910899948,153.5355571,153.54603642999973,153.54603642999973,154.5450068199998,154.5450068199998,157.5457578939995,157.5457578939995,157.5457578939995,157.5457578939995,157.52838604099998,1,1,None,157.52905626099982,157.52910212199913,None,157.5292150789992,157.5372030769995,None,157.5372972159994,157.53732293999929,None,,,,,0.3405388959999982,None,,,,,,,1,001,0,,2024-04-12_14h36.02.204,replicate_nsd,2023.2.3,60.00090889386956,2024-04-12 14h36.21.687993 -0400,
images/image_3_seed_1.png,0,25,0,0,0,"[9, 19, 29, 39, 49, 59, 68, 69, 70, 71]",,,,,0,25,25,25,157.5457578939995,,,,,,,,,,,,,,,,,,,,,,,,,157.53758049499993,157.53767569799948,157.53768403100003,157.5457578939995,157.5457578939995,158.54448156299986,158.54448156299986,161.5468924729994,161.5468924729994,161.5468924729994,161.5468924729994,161.52895115999945,1,1,None,161.52984139099954,161.52988636099963,None,161.5299996119993,161.5380871439993,None,161.53818015999968,161.53820546499992,None,,,,,0.35703976700006024,None,,,,,,,1,001,0,,2024-04-12_14h36.02.204,replicate_nsd,2023.2.3,60.00090889386956,2024-04-12 14h36.21.687993 -0400,
images/image_608_seed_1.png,0,26,0,0,0,"[9, 19, 29, 39, 49, 59, 68, 69, 70, 71]",,,,,0,26,26,26,161.5468924729994,,,,,,,,,,,,,,,,,,,,,,,,,161.5384597959992,161.53855905699947,161.53856746899964,161.5468924729994,161.5468924729994,162.5451501109992,162.5451501109992,165.54604484999982,165.54604484999982,165.54604484999982,165.54604484999982,165.52868360199955,1,1,None,165.52936281299935,165.5294079539999,None,165.52952040699984,165.53716459299994,None,165.5372598819995,165.53728549599964,None,,,,,0.42042456899980607,None,,,,,,,1,001,0,,2024-04-12_14h36.02.204,replicate_nsd,2023.2.3,60.00090889386956,2024-04-12 14h36.21.687993 -0400,
images/image_326_seed_1.png,0,27,0,0,0,"[9, 19, 29, 39, 49, 59, 68, 69, 70, 71]",,,,,0,27,27,27,165.54604484999982,,,,,,,,,,,,,,,,,,,,,,,,,165.53754487099923,165.53764136799964,165.53764956099985,165.54604484999982,165.54604484999982,166.54511425299916,166.54511425299916,169.54632326299998,169.54632326299998,169.54632326299998,169.54632326299998,169.52702018199943,None,0,['1'],169.52770370599956,169.52774737799973,None,169.52785888399922,169.53562683999917,None,169.53571927599933,169.53574445499999,None,,,,,,,,,[1.3155230150005082],[None],,,1,001,0,,2024-04-12_14h36.02.204,replicate_nsd,2023.2.3,60.00090889386956,2024-04-12 14h36.21.687993 -0400,
images/image_514_seed_1.png,0,28,0,0,0,"[9, 19, 29, 39, 49, 59, 68, 69, 70, 71]",,,,,0,28,28,28,169.54632326299998,,,,,,,,,,,,,,,,,,,,,,,,,169.535998587,169.53609105299984,169.53609895199952,169.54632326299998,169.54632326299998,170.5453906039993,170.5453906039993,173.54690091999964,173.54690091999964,173.54690091999964,173.54690091999964,173.52888931599955,1,1,None,173.52956795199952,173.52961384699938,None,173.52972692799995,173.53736397199918,None,173.53745848899962,173.5374844629996,None,,,,,0.580122891999963,None,,,,,,,1,001,0,,2024-04-12_14h36.02.204,replicate_nsd,2023.2.3,60.00090889386956,2024-04-12 14h36.21.687993 -0400,
images/blank.jpg,0,29,1,0,0,"[9, 19, 29, 39, 49, 59, 68, 69, 70, 71]",,,,,0,29,29,29,173.54690091999964,,,,,,,,,,,,,,,,,,,,,,,,,173.53774286999942,173.53783810299956,173.53784653499952,,,,,,,,,173.54376353099997,None,0,None,173.54414350699972,177.5288798419997,['1'],177.5293161589998,177.53729369999928,None,177.5373857149998,177.53741040499972,None,173.54690091999964,173.54690091999964,177.54647072899934,177.54647072899934,,,[1.9946502210004837],[None],,,,,1,001,0,,2024-04-12_14h36.02.204,replicate_nsd,2023.2.3,60.00090889386956,2024-04-12 14h36.21.687993 -0400,
images/image_519_seed_1.png,0,30,0,0,0,"[9, 19, 29, 39, 49, 59, 68, 69, 70, 71]",,,,,0,30,30,30,177.54647072899934,,,,,,,,,,,,,,,,,,,,,,,,,177.53766190999977,177.53776119099984,177.53776920199925,177.54647072899934,177.54647072899934,178.54357773899937,178.54357773899937,181.543359409,181.543359409,181.543359409,181.543359409,181.5288540599995,1,1,None,181.52953905899994,181.52958486699936,None,181.52969450399996,181.52975985599915,None,181.52986933199918,181.52990516499995,None,,,,,0.44595718500022485,None,,,,,,,1,001,0,,2024-04-12_14h36.02.204,replicate_nsd,2023.2.3,60.00090889386956,2024-04-12 14h36.21.687993 -0400,
images/image_63_seed_1.png,0,31,0,0,0,"[9, 19, 29, 39, 49, 59, 68, 69, 70, 71]",,,,,0,31,31,31,181.543359409,,,,,,,,,,,,,,,,,,,,,,,,,181.53027850099988,181.53041758699965,181.53043001599963,181.543359409,181.543359409,182.54379728000004,182.54379728000004,185.54623938699933,185.54623938699933,185.54623938699933,185.54623938699933,185.5296868559999,1,1,None,185.5302439929992,185.5302803709992,None,185.53036972799964,185.5373924939995,None,185.53747180499977,185.53749378199973,None,,,,,0.3897409109995351,None,,,,,,,1,001,0,,2024-04-12_14h36.02.204,replicate_nsd,2023.2.3,60.00090889386956,2024-04-12 14h36.21.687993 -0400,
images/image_310_seed_1.png,0,32,0,0,0,"[9, 19, 29, 39, 49, 59, 68, 69, 70, 71]",,,,,0,32,32,32,185.54623938699933,,,,,,,,,,,,,,,,,,,,,,,,,185.53771184299967,185.537792696,185.53779968299932,185.54623938699933,185.54623938699933,186.54376983899965,186.54376983899965,189.54627338199953,189.54627338199953,189.54627338199953,189.54627338199953,189.53002839599958,1,1,None,189.53082445499967,189.53087975399922,None,189.53101042699927,189.53851366699928,None,189.538609317,189.53863510099927,None,,,,,0.3657184369994866,None,,,,,,,1,001,0,,2024-04-12_14h36.02.204,replicate_nsd,2023.2.3,60.00090889386956,2024-04-12 14h36.21.687993 -0400,
images/image_326_seed_1.png,1,33,0,0,0,"[9, 19, 29, 39, 49, 59, 68, 69, 70, 71]",,,,,0,33,33,33,189.54627338199953,,,,,,,,,,,,,,,,,,,,,,,,,189.53889340999922,189.5389902729994,189.53899829299917,189.54627338199953,189.54627338199953,190.54631030499968,190.54631030499968,193.54766425099933,193.54766425099933,193.54766425099933,193.54766425099933,193.53003750599964,1,0,None,193.53071552099937,193.53076065299956,None,193.5308695779995,193.53865838799993,None,193.53875037299986,193.53877528199973,None,,,,,0.41926059200068266,None,,,,,,,1,001,0,,2024-04-12_14h36.02.204,replicate_nsd,2023.2.3,60.00090889386956,2024-04-12 14h36.21.687993 -0400,
images/image_96_seed_1.png,0,34,0,0,0,"[9, 19, 29, 39, 49, 59, 68, 69, 70, 71]",,,,,0,34,34,34,193.54766425099933,,,,,,,,,,,,,,,,,,,,,,,,,193.5390275739992,193.5391204509997,193.53912835199935,193.54766425099933,193.54766425099933,194.54406762599956,194.54406762599956,197.54788862499936,197.54788862499936,197.54788862499936,197.54788862499936,197.52956147399982,1,1,None,197.53023135199965,197.53027755099993,None,197.53038758000002,197.53792920199976,None,197.53802138099945,197.53804630799914,None,,,,,0.3014780210005483,None,,,,,,,1,001,0,,2024-04-12_14h36.02.204,replicate_nsd,2023.2.3,60.00090889386956,2024-04-12 14h36.21.687993 -0400,
images/image_471_seed_1.png,0,35,0,0,0,"[9, 19, 29, 39, 49, 59, 68, 69, 70, 71]",,,,,0,35,35,35,197.54788862499936,,,,,,,,,,,,,,,,,,,,,,,,,197.53830051799923,197.5383930809994,197.53840100199977,197.54788862499936,197.54788862499936,198.54429413699927,198.54429413699927,201.546994024,201.546994024,201.546994024,201.546994024,201.52998420199947,1,1,None,201.5306885179998,201.5307339609999,None,201.53084653599944,201.5386617819995,None,201.53875628399965,201.53878120199988,None,,,,,0.2612698699995235,None,,,,,,,1,001,0,,2024-04-12_14h36.02.204,replicate_nsd,2023.2.3,60.00090889386956,2024-04-12 14h36.21.687993 -0400,
images/image_264_seed_1.png,0,36,0,0,0,"[9, 19, 29, 39, 49, 59, 68, 69, 70, 71]",,,,,0,36,36,36,201.546994024,,,,,,,,,,,,,,,,,,,,,,,,,201.53903711799921,201.53913101999933,201.5391392019992,201.546994024,201.546994024,202.54444880099982,202.54444880099982,205.54790913299985,205.54790913299985,205.54790913299985,205.54790913299985,205.53009184799976,1,1,None,205.53079474399965,205.530843001,None,205.53095496499918,205.5384790169992,None,205.53857168799914,205.53859677299988,None,,,,,0.3971806409999772,None,,,,,,,1,001,0,,2024-04-12_14h36.02.204,replicate_nsd,2023.2.3,60.00090889386956,2024-04-12 14h36.21.687993 -0400,
images/image_413_seed_1.png,0,37,0,0,0,"[9, 19, 29, 39, 49, 59, 68, 69, 70, 71]",,,,,0,37,37,37,205.54790913299985,,,,,,,,,,,,,,,,,,,,,,,,,205.53885170799913,205.5389458059999,205.53895373699925,205.54790913299985,205.54790913299985,206.5444006609996,206.5444006609996,209.54703189599968,209.54703189599968,209.54703189599968,209.54703189599968,209.53105738399972,1,1,['1'],209.5319625029997,209.5320089019997,None,209.53211941899917,209.53995761999977,None,209.5400515049996,209.54007756099963,None,,,,,2.9571686469998895,None,,,[0.0416595110000344],[None],,,1,001,0,,2024-04-12_14h36.02.204,replicate_nsd,2023.2.3,60.00090889386956,2024-04-12 14h36.21.687993 -0400,
images/image_608_seed_1.png,1,38,0,0,0,"[9, 19, 29, 39, 49, 59, 68, 69, 70, 71]",,,,,0,38,38,38,209.54703189599968,,,,,,,,,,,,,,,,,,,,,,,,,209.54033295199952,209.54042833699987,209.54043654899942,209.54703189599968,209.54703189599968,210.5443569909994,210.5443569909994,213.5470432129996,213.5470432129996,213.5470432129996,213.5470432129996,213.53024263899988,1,0,None,213.53091682899958,213.53096195499984,None,213.53106958699937,213.53877086599914,None,213.53886450699974,213.538889681,None,,,,,1.5651869110006373,None,,,,,,,1,001,0,,2024-04-12_14h36.02.204,replicate_nsd,2023.2.3,60.00090889386956,2024-04-12 14h36.21.687993 -0400,
images/blank.jpg,0,39,1,0,0,"[9, 19, 29, 39, 49, 59, 68, 69, 70, 71]",,,,,0,39,39,39,213.5470432129996,,,,,,,,,,,,,,,,,,,,,,,,,213.53914648599948,213.53924134099998,213.5392494029993,,,,,,,,,213.5441789639999,None,0,None,213.54447511699982,217.5304193259999,['1'],217.5308695369995,217.53880105899952,None,217.53889528999935,217.5389204109997,None,213.5470432129996,213.5470432129996,217.54795393399945,217.54795393399945,,,[3.2185385519997],[None],,,,,1,001,0,,2024-04-12_14h36.02.204,replicate_nsd,2023.2.3,60.00090889386956,2024-04-12 14h36.21.687993 -0400,
images/image_363_seed_1.png,0,40,0,0,0,"[9, 19, 29, 39, 49, 59, 68, 69, 70, 71]",,,,,0,40,40,40,217.54795393399945,,,,,,,,,,,,,,,,,,,,,,,,,217.5391769199996,217.53927545999977,217.53928370199992,217.54795393399945,217.54795393399945,218.54730233499959,218.54730233499959,221.54424397299954,221.54424397299954,221.54424397299954,221.54424397299954,221.530474917,1,1,None,221.53117490399927,221.531221964,None,221.53133338099997,221.53139855799964,None,221.5315104929996,221.53154756999993,None,,,,,2.6743664830000853,None,,,,,,,1,001,0,,2024-04-12_14h36.02.204,replicate_nsd,2023.2.3,60.00090889386956,2024-04-12 14h36.21.687993 -0400,
images/image_267_seed_1.png,0,41,0,0,0,"[9, 19, 29, 39, 49, 59, 68, 69, 70, 71]",,,,,0,41,41,41,221.54424397299954,,,,,,,,,,,,,,,,,,,,,,,,,221.53192567299993,221.532064299,221.53207676999955,221.54424397299954,221.54424397299954,222.5450061399997,222.5450061399997,225.54765881999992,225.54765881999992,225.54765881999992,225.54765881999992,225.53055074499935,1,1,None,225.53126001499913,225.53130772999975,None,225.531441739,225.53925584699937,None,225.5393513149993,225.5393762169997,None,,,,,1.0286845939999694,None,,,,,,,1,001,0,,2024-04-12_14h36.02.204,replicate_nsd,2023.2.3,60.00090889386956,2024-04-12 14h36.21.687993 -0400,
images/image_278_seed_1.png,0,42,0,0,0,"[9, 19, 29, 39, 49, 59, 68, 69, 70, 71]",,,,,0,42,42,42,225.54765881999992,,,,,,,,,,,,,,,,,,,,,,,,,225.53963682299946,225.53973348099953,225.53974179599936,225.54765881999992,225.54765881999992,226.54498685599992,226.54498685599992,229.5481439389996,229.5481439389996,229.5481439389996,229.5481439389996,229.53080602499995,1,1,None,229.531509464,229.53155573599997,None,229.53166853399944,229.53921889499998,None,229.53931196699978,229.53933792099997,None,,,,,0.8287004699996032,None,,,,,,,1,001,0,,2024-04-12_14h36.02.204,replicate_nsd,2023.2.3,60.00090889386956,2024-04-12 14h36.21.687993 -0400,
images/image_633_seed_1.png,0,43,0,0,0,"[9, 19, 29, 39, 49, 59, 68, 69, 70, 71]",,,,,0,43,43,43,229.5481439389996,,,,,,,,,,,,,,,,,,,,,,,,,229.5395944389993,229.53968866599917,229.53969673899974,229.5481439389996,229.5481439389996,230.54500634099986,230.54500634099986,233.5483510289996,233.5483510289996,233.5483510289996,233.5483510289996,233.53077172699977,1,1,None,233.53150953299973,233.5315548159997,None,233.53166612199948,233.53936954299934,None,233.53946183399967,233.53948719399978,None,,,,,0.4286817929996687,None,,,,,,,1,001,0,,2024-04-12_14h36.02.204,replicate_nsd,2023.2.3,60.00090889386956,2024-04-12 14h36.21.687993 -0400,
images/image_609_seed_1.png,0,44,0,0,0,"[9, 19, 29, 39, 49, 59, 68, 69, 70, 71]",,,,,0,44,44,44,233.5483510289996,,,,,,,,,,,,,,,,,,,,,,,,,233.53974379599913,233.53983770599916,233.53984546399988,233.5483510289996,233.5483510289996,234.5465577719997,234.5465577719997,237.54798626699994,237.54798626699994,237.54798626699994,237.54798626699994,237.53079853099916,1,1,None,237.5315061929996,237.5315516109995,None,237.53166537599918,237.53924390199973,None,237.5393387059994,237.5393642019999,None,,,,,0.30700286800038157,None,,,,,,,1,001,0,,2024-04-12_14h36.02.204,replicate_nsd,2023.2.3,60.00090889386956,2024-04-12 14h36.21.687993 -0400,
images/image_403_seed_1.png,0,45,0,0,0,"[9, 19, 29, 39, 49, 59, 68, 69, 70, 71]",,,,,0,45,45,45,237.54798626699994,,,,,,,,,,,,,,,,,,,,,,,,,237.53962153499924,237.53971598299995,237.53972431900002,237.54798626699994,237.54798626699994,238.54498508599954,238.54498508599954,241.548122401,241.548122401,241.548122401,241.548122401,241.53094707799937,1,1,None,241.53162370299924,241.53166963499916,None,241.53178180399937,241.53970736799965,None,241.5398013009999,241.5398265519998,None,,,,,0.7005790490002255,None,,,,,,,1,001,0,,2024-04-12_14h36.02.204,replicate_nsd,2023.2.3,60.00090889386956,2024-04-12 14h36.21.687993 -0400,
images/image_566_seed_1.png,0,46,0,0,0,"[9, 19, 29, 39, 49, 59, 68, 69, 70, 71]",,,,,0,46,46,46,241.548122401,,,,,,,,,,,,,,,,,,,,,,,,,241.54007977499987,241.5401739279996,241.5401818219998,241.548122401,241.548122401,242.54567078699984,242.54567078699984,245.54834757299977,245.54834757299977,245.54834757299977,245.54834757299977,245.53090497199992,1,1,None,245.53158032199917,245.53162581299966,None,245.53173628699915,245.53936396399968,None,245.5394578989999,245.5394837269996,None,,,,,2.3959103880006296,None,,,,,,,1,001,0,,2024-04-12_14h36.02.204,replicate_nsd,2023.2.3,60.00090889386956,2024-04-12 14h36.21.687993 -0400,
images/image_679_seed_1.png,0,47,0,0,0,"[9, 19, 29, 39, 49, 59, 68, 69, 70, 71]",,,,,0,47,47,47,245.54834757299977,,,,,,,,,,,,,,,,,,,,,,,,,245.5397422119995,245.53983857599997,245.53984707899963,245.54834757299977,245.54834757299977,246.545664407,246.545664407,249.54485848699915,249.54485848699915,249.54485848699915,249.54485848699915,249.53001827299977,1,1,None,249.53039429399996,249.53041562199996,None,249.530465455,249.5355493119996,None,249.53562087999944,249.53563886199936,None,,,,,0.6118956919999619,None,,,,,,,1,001,0,,2024-04-12_14h36.02.204,replicate_nsd,2023.2.3,60.00090889386956,2024-04-12 14h36.21.687993 -0400,
images/image_29_seed_1.png,0,48,0,0,0,"[9, 19, 29, 39, 49, 59, 68, 69, 70, 71]",,,,,0,48,48,48,249.54485848699915,,,,,,,,,,,,,,,,,,,,,,,,,249.5358240609994,249.53589886499958,249.53590462399916,249.54485848699915,249.54485848699915,250.54570065999997,250.54570065999997,253.54809778399976,253.54809778399976,253.54809778399976,253.54809778399976,253.53132391599956,1,1,None,253.53200464199927,253.53205051499936,None,253.53216177799914,253.5396589789998,None,253.53975239800002,253.53977725200002,None,,,,,0.49198863900073775,None,,,,,,,1,001,0,,2024-04-12_14h36.02.204,replicate_nsd,2023.2.3,60.00090889386956,2024-04-12 14h36.21.687993 -0400,
images/blank.jpg,0,49,1,0,0,"[9, 19, 29, 39, 49, 59, 68, 69, 70, 71]",,,,,0,49,49,49,253.54809778399976,,,,,,,,,,,,,,,,,,,,,,,,,253.54003191999982,253.54012373399928,253.5401320709998,,,,,,,,,253.54525901399938,None,0,None,253.5455609669998,257.53134372099976,None,257.531560937,257.5396044469999,None,257.539701058,257.53972717599936,None,253.54809778399976,253.54809778399976,257.55029193099926,257.55029193099926,,,,,,,,,1,001,0,,2024-04-12_14h36.02.204,replicate_nsd,2023.2.3,60.00090889386956,2024-04-12 14h36.21.687993 -0400,
images/image_7_seed_1.png,0,50,0,0,0,"[9, 19, 29, 39, 49, 59, 68, 69, 70, 71]",,,,,0,50,50,50,257.55029193099926,,,,,,,,,,,,,,,,,,,,,,,,,257.53998219499954,257.5400823639993,257.5400905329998,257.55029193099926,257.55029193099926,258.5458447869996,258.5458447869996,261.54521444299917,261.54521444299917,261.54521444299917,261.54521444299917,261.53141542999947,1,1,None,261.53216621999945,261.53221428599954,None,261.5323267579997,261.53239243199914,None,261.53250590399966,261.5325420979998,None,,,,,1.9477021430002424,None,,,,,,,1,001,0,,2024-04-12_14h36.02.204,replicate_nsd,2023.2.3,60.00090889386956,2024-04-12 14h36.21.687993 -0400,
images/image_357_seed_1.png,0,51,0,0,0,"[9, 19, 29, 39, 49, 59, 68, 69, 70, 71]",,,,,0,51,51,51,261.54521444299917,,,,,,,,,,,,,,,,,,,,,,,,,261.5329193559992,261.53305835099945,261.5330711889992,261.54521444299917,261.54521444299917,262.5461198589992,262.5461198589992,265.55096003499966,265.55096003499966,265.55096003499966,265.55096003499966,265.5315982719994,1,1,None,265.5323318309993,265.5323775699999,None,265.53248885299945,265.54018915599954,None,265.54028368999934,265.5403080919996,None,,,,,2.3714383429996815,None,,,,,,,1,001,0,,2024-04-12_14h36.02.204,replicate_nsd,2023.2.3,60.00090889386956,2024-04-12 14h36.21.687993 -0400,
images/image_202_seed_1.png,0,52,0,0,0,"[9, 19, 29, 39, 49, 59, 68, 69, 70, 71]",,,,,0,52,52,52,265.55096003499966,,,,,,,,,,,,,,,,,,,,,,,,,265.5405634889994,265.5406544819998,265.54066226599934,265.55096003499966,265.55096003499966,266.5460780029998,266.5460780029998,269.54959832499935,269.54959832499935,269.54959832499935,269.54959832499935,269.5316268229999,1,1,None,269.53233164499943,269.5323778229995,None,269.532489749,269.5400037829995,None,269.54009537,269.5401205949993,None,,,,,0.7474702819999948,None,,,,,,,1,001,0,,2024-04-12_14h36.02.204,replicate_nsd,2023.2.3,60.00090889386956,2024-04-12 14h36.21.687993 -0400,
images/image_653_seed_1.png,0,53,0,0,0,"[9, 19, 29, 39, 49, 59, 68, 69, 70, 71]",,,,,0,53,53,53,269.54959832499935,,,,,,,,,,,,,,,,,,,,,,,,,269.54037487200003,269.54046673299945,269.54047485699994,269.54959832499935,269.54959832499935,270.5460835449994,270.5460835449994,273.55016895899917,273.55016895899917,273.55016895899917,273.55016895899917,273.5320236179996,1,1,None,273.53272132299935,273.5327670879997,None,273.53287914299926,273.54073136399984,None,273.5408244529999,273.5408494839994,None,,,,,0.1074707629995828,None,,,,,,,1,001,0,,2024-04-12_14h36.02.204,replicate_nsd,2023.2.3,60.00090889386956,2024-04-12 14h36.21.687993 -0400,
images/image_56_seed_1.png,0,54,0,0,0,"[9, 19, 29, 39, 49, 59, 68, 69, 70, 71]",,,,,0,54,54,54,273.55016895899917,,,,,,,,,,,,,,,,,,,,,,,,,273.5411035339994,273.5411948809997,273.5412027549992,273.55016895899917,273.55016895899917,274.54645113699917,274.54645113699917,277.5507089109997,277.5507089109997,277.5507089109997,277.5507089109997,277.53205070199965,None,0,"['1', '1']",277.53276205399925,277.5328066939992,None,277.53291749599975,277.5404473409999,None,277.5405406379996,277.54056556999967,None,,,,,,,,,"[0.6715304889994513, 1.8313706230001117]","[None, None]",,,1,001,0,,2024-04-12_14h36.02.204,replicate_nsd,2023.2.3,60.00090889386956,2024-04-12 14h36.21.687993 -0400,
images/image_95_seed_1.png,0,55,0,0,0,"[9, 19, 29, 39, 49, 59, 68, 69, 70, 71]",,,,,0,55,55,55,277.5507089109997,,,,,,,,,,,,,,,,,,,,,,,,,277.54081956999926,277.5409109659995,277.5409189059992,277.5507089109997,277.5507089109997,278.54862849799974,278.54862849799974,281.55088323699965,281.55088323699965,281.55088323699965,281.55088323699965,281.53226036699925,1,1,None,281.53317700499974,281.5332220699993,None,281.5333330479998,281.54141867,None,281.5415111049997,281.5415356699996,None,,,,,2.425061607000316,None,,,,,,,1,001,0,,2024-04-12_14h36.02.204,replicate_nsd,2023.2.3,60.00090889386956,2024-04-12 14h36.21.687993 -0400,
images/image_614_seed_1.png,0,56,0,0,0,"[9, 19, 29, 39, 49, 59, 68, 69, 70, 71]",,,,,0,56,56,56,281.55088323699965,,,,,,,,,,,,,,,,,,,,,,,,,281.5417944419996,281.5418853209994,281.5418932069997,281.55088323699965,281.55088323699965,282.54650598599983,282.54650598599983,285.55068177499925,285.55068177499925,285.55068177499925,285.55068177499925,285.53219030199944,1,1,None,285.5329564619997,285.5330058469999,None,285.5331305969994,285.54063078799936,None,285.54072190399984,285.54074706899974,None,,,,,0.6670205620002889,None,,,,,,,1,001,0,,2024-04-12_14h36.02.204,replicate_nsd,2023.2.3,60.00090889386956,2024-04-12 14h36.21.687993 -0400,
images/image_42_seed_1.png,0,57,0,0,0,"[9, 19, 29, 39, 49, 59, 68, 69, 70, 71]",,,,,0,57,57,57,285.55068177499925,,,,,,,,,,,,,,,,,,,,,,,,,285.5409951619995,285.5410851529996,285.5410931639999,285.55068177499925,285.55068177499925,286.5465056799994,286.5465056799994,289.5513102219993,289.5513102219993,289.5513102219993,289.5513102219993,289.53271401099937,1,1,None,289.533415203,289.53346127699933,None,289.5335710499994,289.5413870909997,None,289.54147973199997,289.5415049639996,None,,,,,0.3070755950002422,None,,,,,,,1,001,0,,2024-04-12_14h36.02.204,replicate_nsd,2023.2.3,60.00090889386956,2024-04-12 14h36.21.687993 -0400,
images/image_299_seed_1.png,0,58,0,0,0,"[9, 19, 29, 39, 49, 59, 68, 69, 70, 71]",,,,,0,58,58,58,289.5513102219993,,,,,,,,,,,,,,,,,,,,,,,,,289.54175837799994,289.54184881499987,289.5418568489995,289.5513102219993,289.5513102219993,290.54675426299946,290.54675426299946,293.54997933399954,293.54997933399954,293.54997933399954,293.54997933399954,293.5324626419997,1,1,None,293.5331383319999,293.5331843019994,None,293.5332959259995,293.54078032099915,None,293.540872689,293.5408977929992,None,,,,,2.5548029330002464,None,,,,,,,1,001,0,,2024-04-12_14h36.02.204,replicate_nsd,2023.2.3,60.00090889386956,2024-04-12 14h36.21.687993 -0400,
images/blank.jpg,0,59,1,0,0,"[9, 19, 29, 39, 49, 59, 68, 69, 70, 71]",,,,,0,59,59,59,293.54997933399954,,,,,,,,,,,,,,,,,,,,,,,,,293.54115088399976,293.5412408919992,293.54124871599925,,,,,,,,,293.5470627269997,None,0,None,293.54737737099913,297.532511679,None,297.5327254239992,297.54065894499945,None,297.54075274499974,297.5407785409998,None,293.54997933399954,293.54997933399954,297.54991741399954,297.54991741399954,,,,,,,,,1,001,0,,2024-04-12_14h36.02.204,replicate_nsd,2023.2.3,60.00090889386956,2024-04-12 14h36.21.687993 -0400,
images/image_91_seed_1.png,0,60,0,0,0,"[9, 19, 29, 39, 49, 59, 68, 69, 70, 71]",,,,,0,60,60,60,297.54991741399954,,,,,,,,,,,,,,,,,,,,,,,,,297.5410318439999,297.54113096199944,297.5411390479994,297.54991741399954,297.54991741399954,298.5468013339996,298.5468013339996,301.54651474099956,301.54651474099956,301.54651474099956,301.54651474099956,301.53065469800003,1,1,None,301.5313487049998,301.53139543399993,None,301.5315066769999,301.531570997,None,301.53168310399997,301.5317202869992,None,,,,,0.5468879760001073,None,,,,,,,1,001,0,,2024-04-12_14h36.02.204,replicate_nsd,2023.2.3,60.00090889386956,2024-04-12 14h36.21.687993 -0400,
images/image_623_seed_1.png,0,61,0,0,0,"[9, 19, 29, 39, 49, 59, 68, 69, 70, 71]",,,,,0,61,61,61,301.54651474099956,,,,,,,,,,,,,,,,,,,,,,,,,301.53212377899945,301.53226267599985,301.53227492399947,301.54651474099956,301.54651474099956,302.54710482799965,302.54710482799965,305.5511096129994,305.5511096129994,305.5511096129994,305.5511096129994,305.53282151999974,1,1,None,305.5335152429998,305.53356114099915,None,305.53367189599976,305.5414315989992,None,305.5415244659998,305.54155032199924,None,,,,,0.8504684589997851,None,,,,,,,1,001,0,,2024-04-12_14h36.02.204,replicate_nsd,2023.2.3,60.00090889386956,2024-04-12 14h36.21.687993 -0400,
images/image_268_seed_1.png,0,62,0,0,0,"[9, 19, 29, 39, 49, 59, 68, 69, 70, 71]",,,,,0,62,62,62,305.5511096129994,,,,,,,,,,,,,,,,,,,,,,,,,305.54180270300003,305.5418939049996,305.5419020569998,305.5511096129994,305.5511096129994,306.5471564189993,306.5471564189993,309.5463387439995,309.5463387439995,309.5463387439995,309.5463387439995,309.53224335100003,1,1,None,309.5325579549999,309.5325787539996,None,309.53262756799995,309.5373976109995,None,309.537463482,309.53748197799996,None,,,,,2.9543514980005057,None,,,,,,,1,001,0,,2024-04-12_14h36.02.204,replicate_nsd,2023.2.3,60.00090889386956,2024-04-12 14h36.21.687993 -0400,
images/image_150_seed_1.png,0,63,0,0,0,"[9, 19, 29, 39, 49, 59, 68, 69, 70, 71]",,,,,0,63,63,63,309.5463387439995,,,,,,,,,,,,,,,,,,,,,,,,,309.53766388799977,309.5377302449997,309.53773579899917,309.5463387439995,309.5463387439995,310.54728016599984,310.54728016599984,313.54981875499925,313.54981875499925,313.54981875499925,313.54981875499925,313.53279675499925,1,1,None,313.53349773099944,313.5335438079992,None,313.5336567759996,313.5414824399995,None,313.5415770999998,313.541602323,None,,,,,0.5944197210001221,None,,,,,,,1,001,0,,2024-04-12_14h36.02.204,replicate_nsd,2023.2.3,60.00090889386956,2024-04-12 14h36.21.687993 -0400,
images/image_115_seed_1.png,0,64,0,0,0,"[9, 19, 29, 39, 49, 59, 68, 69, 70, 71]",,,,,0,64,64,64,313.54981875499925,,,,,,,,,,,,,,,,,,,,,,,,,313.5418604819997,313.54195253999933,313.54196054899967,313.54981875499925,313.54981875499925,314.54731266899944,314.54731266899944,317.5520298699994,317.5520298699994,317.5520298699994,317.5520298699994,317.53333132899934,1,1,None,317.5341213849997,317.5341726959996,None,317.53430173499964,317.5418117429999,None,317.5419020899999,317.54192677599985,None,,,,,0.5462097290001111,None,,,,,,,1,001,0,,2024-04-12_14h36.02.204,replicate_nsd,2023.2.3,60.00090889386956,2024-04-12 14h36.21.687993 -0400,
images/image_616_seed_1.png,0,65,0,0,0,"[9, 19, 29, 39, 49, 59, 68, 69, 70, 71]",,,,,0,65,65,65,317.5520298699994,,,,,,,,,,,,,,,,,,,,,,,,,317.5421751239992,317.54226591099996,317.54227381799956,317.5520298699994,317.5520298699994,318.549735867,318.549735867,321.55133345299964,321.55133345299964,321.55133345299964,321.55133345299964,321.5311986019997,1,1,['1'],321.5321010909993,321.53214637899964,None,321.53225751599985,321.5399566779997,None,321.54005001099995,321.5400751949992,None,,,,,0.6157874450000236,None,,,[0.9737104099995122],[None],,,1,001,0,,2024-04-12_14h36.02.204,replicate_nsd,2023.2.3,60.00090889386956,2024-04-12 14h36.21.687993 -0400,
images/image_39_seed_1.png,0,66,0,0,0,"[9, 19, 29, 39, 49, 59, 68, 69, 70, 71]",,,,,0,66,66,66,321.55133345299964,,,,,,,,,,,,,,,,,,,,,,,,,321.54032663,321.540417573,321.5404255179992,321.55133345299964,321.55133345299964,322.54763875799927,322.54763875799927,325.5525122179997,325.5525122179997,325.5525122179997,325.5525122179997,325.53319266199924,1,1,None,325.5339556529998,325.53400238299946,None,325.53411346899975,325.54157586199926,None,325.54166861499925,325.5416941069998,None,,,,,0.4179372680000597,None,,,,,,,1,001,0,,2024-04-12_14h36.02.204,replicate_nsd,2023.2.3,60.00090889386956,2024-04-12 14h36.21.687993 -0400,
images/image_58_seed_1.png,0,67,0,0,0,"[9, 19, 29, 39, 49, 59, 68, 69, 70, 71]",,,,,0,67,67,67,325.5525122179997,,,,,,,,,,,,,,,,,,,,,,,,,325.5419490279992,325.54204002999995,325.54204768899945,325.5525122179997,325.5525122179997,326.54762955799924,326.54762955799924,329.55044224299945,329.55044224299945,329.55044224299945,329.55044224299945,329.5333217389998,1,1,None,329.5340522809993,329.5340990909999,None,329.53420959899995,329.5419519879997,None,329.542044195,329.54206951299966,None,,,,,2.1059428179996758,None,,,,,,,1,001,0,,2024-04-12_14h36.02.204,replicate_nsd,2023.2.3,60.00090889386956,2024-04-12 14h36.21.687993 -0400,
images/blank.jpg,0,68,1,0,0,"[9, 19, 29, 39, 49, 59, 68, 69, 70, 71]",,,,,0,68,68,68,329.55044224299945,,,,,,,,,,,,,,,,,,,,,,,,,329.54232280999986,329.54241345899936,329.5424213219994,,,,,,,,,329.54745026,None,0,None,329.5477674219992,333.5332269549999,['1'],333.5336795739995,333.5414051429998,None,333.54149946399957,333.5415252869998,None,329.55044224299945,329.55044224299945,333.54716546799955,333.54716546799955,,,[2.6951333070001056],[None],,,,,1,001,0,,2024-04-12_14h36.02.204,replicate_nsd,2023.2.3,60.00090889386956,2024-04-12 14h36.21.687993 -0400,
images/blank.jpg,0,69,1,0,0,"[9, 19, 29, 39, 49, 59, 68, 69, 70, 71]",,,,,0,69,69,69,333.54716546799955,,,,,,,,,,,,,,,,,,,,,,,,,333.54177872699984,333.54187952699976,333.54188742399947,,,,,,,,,333.54390815399984,None,0,None,333.5441759719997,337.53348284000003,None,337.53369750299953,337.5337651099999,None,337.53389573299955,337.5339340539995,None,333.54716546799955,333.54716546799955,337.54812579899954,337.54812579899954,,,,,,,,,1,001,0,,2024-04-12_14h36.02.204,replicate_nsd,2023.2.3,60.00090889386956,2024-04-12 14h36.21.687993 -0400,
images/blank.jpg,0,70,1,0,0,"[9, 19, 29, 39, 49, 59, 68, 69, 70, 71]",,,,,0,70,70,70,337.54812579899954,,,,,,,,,,,,,,,,,,,,,,,,,337.53432540499944,337.5344746259998,337.534487291,,,,,,,,,337.53690283499964,None,0,None,337.53722624199963,341.5335379169992,None,341.533752884,341.5338206459992,None,341.53395061099945,341.53398854699935,None,337.54812579899954,337.54812579899954,341.54819784399933,341.54819784399933,,,,,,,,,1,001,0,,2024-04-12_14h36.02.204,replicate_nsd,2023.2.3,60.00090889386956,2024-04-12 14h36.21.687993 -0400,
,,,,,,,,,,,,,,,341.54819784399933,,,,,,,,,,,,,,,,,,,,,,,,,341.53438427199944,341.5345370189998,341.53454925799997,,,,,,,,,341.5372810889994,None,0,None,341.537779192,345.5337912319992,None,345.53400377399976,,,,,,341.54819784399933,341.54819784399933,345.5483231579992,345.5483231579992,,,,,,,345.5483231579992,345.5483231579992,,,,,,,,,,
